CityName,StimuliFile,CityImage,StreetSign,Cue,Image,Category,Novelty,UpdateImage,TestImage1,TestImage2,TestImage3,TestImage4,TestImage1Type,TestImage2Type,TestImage3Type,TestImage4Type,CityBlock.thisRepN,CityBlock.thisTrialN,CityBlock.thisN,CityBlock.thisIndex,LearningTrials.thisRepN,LearningTrials.thisTrialN,LearningTrials.thisN,LearningTrials.thisIndex,learning_instructions_text.started,learning_instructions_text.stopped,intro_key.keys,intro_key.rt,intro_key.started,intro_key.stopped,cityname_text.started,cityname_text.stopped,city_image.started,city_image.stopped,fx_cross.started,fx_cross.stopped,plate.started,plate.stopped,city_text.started,city_text.stopped,street_text.started,street_text.stopped,fx_cross_prediction.started,fx_cross_prediction.stopped,plate_updating.started,plate_updating.stopped,city_text_updating.started,city_text_updating.stopped,street_text_updating.started,street_text_updating.stopped,updating_image.started,updating_image.stopped,short_break_text.started,short_break_text.stopped,short_break_key.keys,short_break_key.started,short_break_key.stopped,short_break_key.rt,break_text.started,break_text.stopped,break_key_resp.keys,break_key_resp.rt,break_key_resp.started,break_key_resp.stopped,end_text.started,end_text.stopped,participant,date,expName,psychopyVersion,frameRate,
,,,,,,,,,,,,,,,,,,,,,,,,,108.10599259939045,None,space,41.63968425383791,108.10599259939045,None,,,,,,,,,,,,,,,,,,,,,,,,,,,,,,,,,,,,,pilot1,2022_Jun_16_1001,Hippopolis_Updating,2021.1.2,60.00059718860514,
Hippopolis,stimuli/subj_files/pilot1_cityA.csv,./stimuli/frankfurt.jpg,./stimuli/street_plate1.png,KÁRTYA UTCA,stimuli/scenes/079a.jpg,scene,1,stimuli/scenes/094a.jpg,stimuli/scenes/094a.jpg,stimuli/scenes/105a.jpg,stimuli/scenes/105b.jpg,stimuli/scenes/094b.jpg,target,dist1,dist2,lure,0,0,0,0,0,0,0,30,,,,,,,149.8642823244445,None,149.8642823244445,None,152.8067843602039,None,153.82554614311084,None,153.82554614311084,None,153.82554614311084,None,153.82554614311084,None,156.81068220548332,None,156.81068220548332,None,156.81068220548332,None,156.81068220548332,None,None,None,None,None,None,,,,,,,,,,pilot1,2022_Jun_16_1001,Hippopolis_Updating,2021.1.2,60.00059718860514,
Hippopolis,stimuli/subj_files/pilot1_cityA.csv,./stimuli/frankfurt.jpg,./stimuli/street_plate1.png,PAPAGÁJ UTCA,stimuli/scenes/023a.jpg,scene,1,stimuli/scenes/113a.jpg,stimuli/objects/070b.jpg,stimuli/scenes/113b.jpg,stimuli/objects/070a.jpg,stimuli/scenes/113a.jpg,dist2,lure,dist1,target,0,0,0,0,0,1,1,53,,,,,,,,,,,159.78919569356367,None,160.82317378511652,None,160.82317378511652,None,160.82317378511652,None,160.82317378511652,None,163.82206660183147,None,163.82206660183147,None,163.82206660183147,None,163.82206660183147,None,None,None,None,None,None,,,,,,,,,,pilot1,2022_Jun_16_1001,Hippopolis_Updating,2021.1.2,60.00059718860514,
Hippopolis,stimuli/subj_files/pilot1_cityA.csv,./stimuli/frankfurt.jpg,./stimuli/street_plate1.png,DOBOZ UTCA,stimuli/scenes/030a.jpg,scene,1,stimuli/scenes/060a.jpg,stimuli/scenes/051a.jpg,stimuli/scenes/060b.jpg,stimuli/scenes/060a.jpg,stimuli/scenes/051b.jpg,dist1,lure,target,dist2,0,0,0,0,0,2,2,21,,,,,,,,,,,166.8077864232473,None,167.84150513540953,None,167.84150513540953,None,167.84150513540953,None,167.84150513540953,None,170.8540004468523,None,170.8540004468523,None,170.8540004468523,None,170.8540004468523,None,None,None,None,None,None,,,,,,,,,,pilot1,2022_Jun_16_1001,Hippopolis_Updating,2021.1.2,60.00059718860514,
Hippopolis,stimuli/subj_files/pilot1_cityA.csv,./stimuli/frankfurt.jpg,./stimuli/street_plate1.png,ZSEMLE UTCA,stimuli/objects/035a.jpg,object,2,stimuli/scenes/100a.jpg,stimuli/objects/120a.jpg,stimuli/scenes/100b.jpg,stimuli/objects/120b.jpg,stimuli/scenes/100a.jpg,dist1,lure,dist2,target,0,0,0,0,0,3,3,27,,,,,,,,,,,173.82091525522992,None,174.84028723323718,None,174.84028723323718,None,174.84028723323718,None,174.84028723323718,None,177.85902071511373,None,177.85902071511373,None,177.85902071511373,None,177.85902071511373,None,None,None,None,None,None,,,,,,,,,,pilot1,2022_Jun_16_1001,Hippopolis_Updating,2021.1.2,60.00059718860514,
Hippopolis,stimuli/subj_files/pilot1_cityA.csv,./stimuli/frankfurt.jpg,./stimuli/street_plate1.png,GYŰRŰ UTCA,stimuli/scenes/007a.jpg,scene,0,stimuli/scenes/007a.jpg,stimuli/scenes/076a.jpg,stimuli/scenes/007b.jpg,stimuli/scenes/007a.jpg,stimuli/scenes/076b.jpg,dist1,lure,target,dist2,0,0,0,0,0,4,4,76,,,,,,,,,,,180.83428605040535,None,181.85750331403688,None,181.85750331403688,None,181.85750331403688,None,181.85750331403688,None,184.85411396436393,None,184.85411396436393,None,184.85411396436393,None,184.85411396436393,None,None,None,None,None,None,,,,,,,,,,pilot1,2022_Jun_16_1001,Hippopolis_Updating,2021.1.2,60.00059718860514,
Hippopolis,stimuli/subj_files/pilot1_cityA.csv,./stimuli/frankfurt.jpg,./stimuli/street_plate1.png,TÖLCSÉR UTCA,stimuli/scenes/068a.jpg,scene,0,stimuli/scenes/068a.jpg,stimuli/objects/039a.jpg,stimuli/scenes/068a.jpg,stimuli/scenes/068b.jpg,stimuli/objects/039b.jpg,dist1,target,lure,dist2,0,0,0,0,0,5,5,46,,,,,,,,,,,187.84581661969423,None,188.8768640961498,None,188.8768640961498,None,188.8768640961498,None,188.8768640961498,None,191.8677631104365,None,191.8677631104365,None,191.8677631104365,None,191.8677631104365,None,None,None,None,None,None,,,,,,,,,,pilot1,2022_Jun_16_1001,Hippopolis_Updating,2021.1.2,60.00059718860514,
Hippopolis,stimuli/subj_files/pilot1_cityA.csv,./stimuli/frankfurt.jpg,./stimuli/street_plate1.png,KAKAS UTCA,stimuli/scenes/057a.jpg,scene,1,stimuli/scenes/076a.jpg,stimuli/scenes/076b.jpg,stimuli/objects/014b.jpg,stimuli/objects/014a.jpg,stimuli/scenes/076a.jpg,lure,dist2,dist1,target,0,0,0,0,0,6,6,18,,,,,,,,,,,194.85660823713988,None,195.88725980184972,None,195.88725980184972,None,195.88725980184972,None,195.88725980184972,None,198.9112943909131,None,198.9112943909131,None,198.9112943909131,None,198.9112943909131,None,None,None,None,None,None,,,,,,,,,,pilot1,2022_Jun_16_1001,Hippopolis_Updating,2021.1.2,60.00059718860514,
Hippopolis,stimuli/subj_files/pilot1_cityA.csv,./stimuli/frankfurt.jpg,./stimuli/street_plate1.png,ZSÁLYA UTCA,stimuli/objects/034a.jpg,object,2,stimuli/scenes/117a.jpg,stimuli/scenes/117b.jpg,stimuli/scenes/001b.jpg,stimuli/scenes/117a.jpg,stimuli/scenes/001a.jpg,lure,dist2,target,dist1,0,0,0,0,0,7,7,33,,,,,,,,,,,201.878597646486,None,202.89546850975603,None,202.89546850975603,None,202.89546850975603,None,202.89546850975603,None,205.9057475887239,None,205.9057475887239,None,205.9057475887239,None,205.9057475887239,None,None,None,None,None,None,,,,,,,,,,pilot1,2022_Jun_16_1001,Hippopolis_Updating,2021.1.2,60.00059718860514,
Hippopolis,stimuli/subj_files/pilot1_cityA.csv,./stimuli/frankfurt.jpg,./stimuli/street_plate1.png,TOLMÁCS UTCA,stimuli/objects/049a.jpg,object,2,stimuli/scenes/097a.jpg,stimuli/scenes/097b.jpg,stimuli/scenes/077a.jpg,stimuli/scenes/097a.jpg,stimuli/scenes/077b.jpg,lure,dist1,target,dist2,0,0,0,0,0,8,8,23,,,,,,,,,,,208.88398987893015,None,209.90598457539454,None,209.90598457539454,None,209.90598457539454,None,209.90598457539454,None,212.90309034846723,None,212.90309034846723,None,212.90309034846723,None,212.90309034846723,None,None,None,None,None,None,,,,,,,,,,pilot1,2022_Jun_16_1001,Hippopolis_Updating,2021.1.2,60.00059718860514,
Hippopolis,stimuli/subj_files/pilot1_cityA.csv,./stimuli/frankfurt.jpg,./stimuli/street_plate1.png,BONBON UTCA,stimuli/scenes/022a.jpg,scene,0,stimuli/scenes/022a.jpg,stimuli/scenes/022a.jpg,stimuli/scenes/022b.jpg,stimuli/scenes/018a.jpg,stimuli/scenes/018b.jpg,target,lure,dist1,dist2,0,0,0,0,0,9,9,43,,,,,,,,,,,215.8875505933538,None,216.91282516531646,None,216.91282516531646,None,216.91282516531646,None,216.91282516531646,None,219.92679464817047,None,219.92679464817047,None,219.92679464817047,None,219.92679464817047,None,None,None,None,None,None,,,,,,,,,,pilot1,2022_Jun_16_1001,Hippopolis_Updating,2021.1.2,60.00059718860514,
Hippopolis,stimuli/subj_files/pilot1_cityA.csv,./stimuli/frankfurt.jpg,./stimuli/street_plate1.png,SZILVA UTCA,stimuli/objects/059a.jpg,object,2,stimuli/scenes/070a.jpg,stimuli/scenes/114b.jpg,stimuli/scenes/070a.jpg,stimuli/scenes/070b.jpg,stimuli/scenes/114a.jpg,dist2,target,lure,dist1,0,0,0,0,0,10,10,71,,,,,,,,,,,222.90041382564232,None,223.9318149164319,None,223.9318149164319,None,223.9318149164319,None,223.9318149164319,None,226.91663966095075,None,226.91663966095075,None,226.91663966095075,None,226.91663966095075,None,None,None,None,None,None,,,,,,,,,,pilot1,2022_Jun_16_1001,Hippopolis_Updating,2021.1.2,60.00059718860514,
Hippopolis,stimuli/subj_files/pilot1_cityA.csv,./stimuli/frankfurt.jpg,./stimuli/street_plate1.png,FIÓK UTCA,stimuli/objects/012a.jpg,object,0,stimuli/objects/012a.jpg,stimuli/objects/012a.jpg,stimuli/objects/024b.jpg,stimuli/objects/012b.jpg,stimuli/objects/024a.jpg,target,dist2,lure,dist1,0,0,0,0,0,11,11,31,,,,,,,,,,,229.91183958528563,None,230.93938948167488,None,230.93938948167488,None,230.93938948167488,None,230.93938948167488,None,233.93773181689903,None,233.93773181689903,None,233.93773181689903,None,233.93773181689903,None,None,None,None,None,None,,,,,,,,,,pilot1,2022_Jun_16_1001,Hippopolis_Updating,2021.1.2,60.00059718860514,
Hippopolis,stimuli/subj_files/pilot1_cityA.csv,./stimuli/frankfurt.jpg,./stimuli/street_plate1.png,ÁLOM UTCA,stimuli/scenes/031a.jpg,scene,1,stimuli/scenes/114a.jpg,stimuli/scenes/114b.jpg,stimuli/scenes/080b.jpg,stimuli/scenes/114a.jpg,stimuli/scenes/080a.jpg,lure,dist2,target,dist1,0,0,0,0,0,12,12,15,,,,,,,,,,,236.91700696013868,None,237.93104890733957,None,237.93104890733957,None,237.93104890733957,None,237.93104890733957,None,240.95492612663656,None,240.95492612663656,None,240.95492612663656,None,240.95492612663656,None,None,None,None,None,None,,,,,,,,,,pilot1,2022_Jun_16_1001,Hippopolis_Updating,2021.1.2,60.00059718860514,
Hippopolis,stimuli/subj_files/pilot1_cityA.csv,./stimuli/frankfurt.jpg,./stimuli/street_plate1.png,LOVAGLÁS UTCA,stimuli/objects/110a.jpg,object,1,stimuli/objects/010a.jpg,stimuli/objects/010b.jpg,stimuli/scenes/007a.jpg,stimuli/objects/010a.jpg,stimuli/scenes/007b.jpg,lure,dist1,target,dist2,0,0,0,0,0,13,13,22,,,,,,,,,,,243.9271806073375,None,244.95090325642377,None,244.95090325642377,None,244.95090325642377,None,244.95090325642377,None,247.96440467471257,None,247.96440467471257,None,247.96440467471257,None,247.96440467471257,None,None,None,None,None,None,,,,,,,,,,pilot1,2022_Jun_16_1001,Hippopolis_Updating,2021.1.2,60.00059718860514,
Hippopolis,stimuli/subj_files/pilot1_cityA.csv,./stimuli/frankfurt.jpg,./stimuli/street_plate1.png,SIVATAG UTCA,stimuli/scenes/085a.jpg,scene,2,stimuli/objects/038a.jpg,stimuli/objects/012b.jpg,stimuli/objects/038a.jpg,stimuli/objects/038b.jpg,stimuli/objects/012a.jpg,dist2,target,lure,dist1,0,0,0,0,0,14,14,35,,,,,,,,,,,250.9377097352408,None,251.9638408194296,None,251.9638408194296,None,251.9638408194296,None,251.9638408194296,None,255.00425332644954,None,255.00425332644954,None,255.00425332644954,None,255.00425332644954,None,None,None,None,None,None,,,,,,,,,,pilot1,2022_Jun_16_1001,Hippopolis_Updating,2021.1.2,60.00059718860514,
Hippopolis,stimuli/subj_files/pilot1_cityA.csv,./stimuli/frankfurt.jpg,./stimuli/street_plate1.png,KIFLI UTCA,stimuli/scenes/006a.jpg,scene,0,stimuli/scenes/006a.jpg,stimuli/scenes/006a.jpg,stimuli/scenes/006b.jpg,stimuli/scenes/014b.jpg,stimuli/scenes/014a.jpg,target,lure,dist2,dist1,0,0,0,0,0,15,15,62,,,,,,,,,,,257.95349363051355,None,258.9715357446112,None,258.9715357446112,None,258.9715357446112,None,258.9715357446112,None,261.98324731970206,None,261.98324731970206,None,261.98324731970206,None,261.98324731970206,None,None,None,None,None,None,,,,,,,,,,pilot1,2022_Jun_16_1001,Hippopolis_Updating,2021.1.2,60.00059718860514,
Hippopolis,stimuli/subj_files/pilot1_cityA.csv,./stimuli/frankfurt.jpg,./stimuli/street_plate1.png,FÜGE UTCA,stimuli/objects/109a.jpg,object,2,stimuli/scenes/104a.jpg,stimuli/scenes/104b.jpg,stimuli/objects/030b.jpg,stimuli/scenes/104a.jpg,stimuli/objects/030a.jpg,lure,dist2,target,dist1,0,0,0,0,0,16,16,9,,,,,,,,,,,264.9724043859169,None,266.0021602520719,None,266.0021602520719,None,266.0021602520719,None,266.0021602520719,None,269.0056945309043,None,269.0056945309043,None,269.0056945309043,None,269.0056945309043,None,None,None,None,None,None,,,,,,,,,,pilot1,2022_Jun_16_1001,Hippopolis_Updating,2021.1.2,60.00059718860514,
Hippopolis,stimuli/subj_files/pilot1_cityA.csv,./stimuli/frankfurt.jpg,./stimuli/street_plate1.png,KERET UTCA,stimuli/objects/046a.jpg,object,0,stimuli/objects/046a.jpg,stimuli/objects/046b.jpg,stimuli/scenes/022b.jpg,stimuli/scenes/022a.jpg,stimuli/objects/046a.jpg,lure,dist2,dist1,target,0,0,0,0,0,17,17,29,,,,,,,,,,,271.98733519017696,None,273.023770544678,None,273.023770544678,None,273.023770544678,None,273.023770544678,None,276.0349198197946,None,276.0349198197946,None,276.0349198197946,None,276.0349198197946,None,None,None,None,None,None,,,,,,,,,,pilot1,2022_Jun_16_1001,Hippopolis_Updating,2021.1.2,60.00059718860514,
Hippopolis,stimuli/subj_files/pilot1_cityA.csv,./stimuli/frankfurt.jpg,./stimuli/street_plate1.png,FÜZET UTCA,stimuli/scenes/008a.jpg,scene,2,stimuli/objects/024a.jpg,stimuli/objects/024b.jpg,stimuli/scenes/117a.jpg,stimuli/objects/024a.jpg,stimuli/scenes/117b.jpg,lure,dist1,target,dist2,0,0,0,0,0,18,18,69,,,,,,,,,,,279.00409067003056,None,280.02937892638147,None,280.02937892638147,None,280.02937892638147,None,280.02937892638147,None,283.0324886809103,None,283.0324886809103,None,283.0324886809103,None,283.0324886809103,None,None,None,None,None,None,,,,,,,,,,pilot1,2022_Jun_16_1001,Hippopolis_Updating,2021.1.2,60.00059718860514,
Hippopolis,stimuli/subj_files/pilot1_cityA.csv,./stimuli/frankfurt.jpg,./stimuli/street_plate1.png,KÖTÉNY UTCA,stimuli/scenes/108a.jpg,scene,2,stimuli/objects/066a.jpg,stimuli/objects/072b.jpg,stimuli/objects/072a.jpg,stimuli/objects/066b.jpg,stimuli/objects/066a.jpg,dist2,dist1,lure,target,0,0,0,0,0,19,19,36,,,,,,,,,,,286.01472305180505,None,287.04073750879616,None,287.04073750879616,None,287.04073750879616,None,287.04073750879616,None,290.0775264776312,None,290.0775264776312,None,290.0775264776312,None,290.0775264776312,None,None,None,None,None,None,,,,,,,,,,pilot1,2022_Jun_16_1001,Hippopolis_Updating,2021.1.2,60.00059718860514,
Hippopolis,stimuli/subj_files/pilot1_cityA.csv,./stimuli/frankfurt.jpg,./stimuli/street_plate1.png,SZITAKÖTŐ UTCA,stimuli/objects/064a.jpg,object,0,stimuli/objects/064a.jpg,stimuli/objects/037b.jpg,stimuli/objects/064a.jpg,stimuli/objects/064b.jpg,stimuli/objects/037a.jpg,dist2,target,lure,dist1,0,0,0,0,0,20,20,3,,,,,,,,,,,293.0205338988453,None,294.0493937549181,None,294.0493937549181,None,294.0493937549181,None,294.0493937549181,None,297.05136740300804,None,297.05136740300804,None,297.05136740300804,None,297.05136740300804,None,None,None,None,None,None,,,,,,,,,,pilot1,2022_Jun_16_1001,Hippopolis_Updating,2021.1.2,60.00059718860514,
Hippopolis,stimuli/subj_files/pilot1_cityA.csv,./stimuli/frankfurt.jpg,./stimuli/street_plate1.png,TÁBLA UTCA,stimuli/objects/118a.jpg,object,1,stimuli/objects/042a.jpg,stimuli/scenes/084a.jpg,stimuli/scenes/084b.jpg,stimuli/objects/042a.jpg,stimuli/objects/042b.jpg,dist1,dist2,target,lure,0,0,0,0,0,21,21,78,,,,,,,,,,,300.02814889512956,None,301.05119759310037,None,301.05119759310037,None,301.05119759310037,None,301.05119759310037,None,304.0491446387023,None,304.0491446387023,None,304.0491446387023,None,304.0491446387023,None,None,None,None,None,None,,,,,,,,,,pilot1,2022_Jun_16_1001,Hippopolis_Updating,2021.1.2,60.00059718860514,
Hippopolis,stimuli/subj_files/pilot1_cityA.csv,./stimuli/frankfurt.jpg,./stimuli/street_plate1.png,MAJORÁNNA UTCA,stimuli/objects/068a.jpg,object,0,stimuli/objects/068a.jpg,stimuli/objects/068a.jpg,stimuli/scenes/118a.jpg,stimuli/objects/068b.jpg,stimuli/scenes/118b.jpg,target,dist1,lure,dist2,0,0,0,0,0,22,22,57,,,,,,,,,,,307.0330907898024,None,308.06401261966676,None,308.06401261966676,None,308.06401261966676,None,308.06401261966676,None,311.0485901138745,None,311.0485901138745,None,311.0485901138745,None,311.0485901138745,None,None,None,None,None,None,,,,,,,,,,pilot1,2022_Jun_16_1001,Hippopolis_Updating,2021.1.2,60.00059718860514,
Hippopolis,stimuli/subj_files/pilot1_cityA.csv,./stimuli/frankfurt.jpg,./stimuli/street_plate1.png,LEPKE UTCA,stimuli/scenes/046a.jpg,scene,0,stimuli/scenes/046a.jpg,stimuli/scenes/094a.jpg,stimuli/scenes/046a.jpg,stimuli/scenes/046b.jpg,stimuli/scenes/094b.jpg,dist1,target,lure,dist2,0,0,0,0,0,23,23,61,,,,,,,,,,,314.0364375319332,None,315.0573751172051,None,315.0573751172051,None,315.0573751172051,None,315.0573751172051,None,318.0746002169326,None,318.0746002169326,None,318.0746002169326,None,318.0746002169326,None,None,None,None,None,None,,,,,,,,,,pilot1,2022_Jun_16_1001,Hippopolis_Updating,2021.1.2,60.00059718860514,
Hippopolis,stimuli/subj_files/pilot1_cityA.csv,./stimuli/frankfurt.jpg,./stimuli/street_plate1.png,TOLLTARTÓ UTCA,stimuli/objects/117a.jpg,object,2,stimuli/scenes/045a.jpg,stimuli/scenes/045b.jpg,stimuli/scenes/120b.jpg,stimuli/scenes/045a.jpg,stimuli/scenes/120a.jpg,lure,dist2,target,dist1,0,0,0,0,0,24,24,58,,,,,,,,,,,321.0495906220749,None,322.06297634588555,None,322.06297634588555,None,322.06297634588555,None,322.06297634588555,None,325.0647018100135,None,325.0647018100135,None,325.0647018100135,None,325.0647018100135,None,None,None,None,None,None,,,,,,,,,,pilot1,2022_Jun_16_1001,Hippopolis_Updating,2021.1.2,60.00059718860514,
Hippopolis,stimuli/subj_files/pilot1_cityA.csv,./stimuli/frankfurt.jpg,./stimuli/street_plate1.png,KABÁT UTCA,stimuli/scenes/032a.jpg,scene,1,stimuli/scenes/105a.jpg,stimuli/scenes/105a.jpg,stimuli/scenes/024b.jpg,stimuli/scenes/024a.jpg,stimuli/scenes/105b.jpg,target,dist2,dist1,lure,0,0,0,0,0,25,25,50,,,,,,,,,,,328.06601674621925,None,329.09833903843537,None,329.09833903843537,None,329.09833903843537,None,329.09833903843537,None,332.09384095016867,None,332.09384095016867,None,332.09384095016867,None,332.09384095016867,None,None,None,None,None,None,,,,,,,,,,pilot1,2022_Jun_16_1001,Hippopolis_Updating,2021.1.2,60.00059718860514,
Hippopolis,stimuli/subj_files/pilot1_cityA.csv,./stimuli/frankfurt.jpg,./stimuli/street_plate1.png,LEGELŐ UTCA,stimuli/scenes/012a.jpg,scene,1,stimuli/scenes/014a.jpg,stimuli/scenes/014b.jpg,stimuli/objects/016b.jpg,stimuli/scenes/014a.jpg,stimuli/objects/016a.jpg,lure,dist2,target,dist1,0,0,0,0,0,26,26,65,,,,,,,,,,,335.0927113741636,None,336.127070448827,None,336.127070448827,None,336.127070448827,None,336.127070448827,None,339.14434904186055,None,339.14434904186055,None,339.14434904186055,None,339.14434904186055,None,None,None,None,None,None,,,,,,,,,,pilot1,2022_Jun_16_1001,Hippopolis_Updating,2021.1.2,60.00059718860514,
Hippopolis,stimuli/subj_files/pilot1_cityA.csv,./stimuli/frankfurt.jpg,./stimuli/street_plate1.png,LÁNDZSA UTCA,stimuli/scenes/041a.jpg,scene,1,stimuli/scenes/116a.jpg,stimuli/scenes/116b.jpg,stimuli/scenes/116a.jpg,stimuli/objects/100a.jpg,stimuli/objects/100b.jpg,lure,target,dist1,dist2,0,0,0,0,0,27,27,32,,,,,,,,,,,342.10351605387405,None,343.1299852025695,None,343.1299852025695,None,343.1299852025695,None,343.1299852025695,None,346.13806608645245,None,346.13806608645245,None,346.13806608645245,None,346.13806608645245,None,None,None,None,None,None,,,,,,,,,,pilot1,2022_Jun_16_1001,Hippopolis_Updating,2021.1.2,60.00059718860514,
Hippopolis,stimuli/subj_files/pilot1_cityA.csv,./stimuli/frankfurt.jpg,./stimuli/street_plate1.png,KULACS UTCA,stimuli/objects/045a.jpg,object,1,stimuli/objects/073a.jpg,stimuli/objects/073a.jpg,stimuli/objects/073b.jpg,stimuli/scenes/002a.jpg,stimuli/scenes/002b.jpg,target,lure,dist1,dist2,0,0,0,0,0,28,28,51,,,,,,,,,,,349.1181066171266,None,350.13997784396634,None,350.13997784396634,None,350.13997784396634,None,350.13997784396634,None,353.1408527055755,None,353.1408527055755,None,353.1408527055755,None,353.1408527055755,None,None,None,None,None,None,,,,,,,,,,pilot1,2022_Jun_16_1001,Hippopolis_Updating,2021.1.2,60.00059718860514,
Hippopolis,stimuli/subj_files/pilot1_cityA.csv,./stimuli/frankfurt.jpg,./stimuli/street_plate1.png,KOKTÉL UTCA,stimuli/scenes/106a.jpg,scene,1,stimuli/scenes/096a.jpg,stimuli/scenes/096a.jpg,stimuli/scenes/096b.jpg,stimuli/objects/042a.jpg,stimuli/objects/042b.jpg,target,lure,dist1,dist2,0,0,0,0,0,29,29,44,,,,,,,,,,,356.12765016499907,None,357.15026967413723,None,357.15026967413723,None,357.15026967413723,None,357.15026967413723,None,360.1494756741449,None,360.1494756741449,None,360.1494756741449,None,360.1494756741449,None,None,None,None,None,None,,,,,,,,,,pilot1,2022_Jun_16_1001,Hippopolis_Updating,2021.1.2,60.00059718860514,
Hippopolis,stimuli/subj_files/pilot1_cityA.csv,./stimuli/frankfurt.jpg,./stimuli/street_plate1.png,VITORLA UTCA,stimuli/scenes/086a.jpg,scene,2,stimuli/objects/015a.jpg,stimuli/objects/015b.jpg,stimuli/objects/115a.jpg,stimuli/objects/015a.jpg,stimuli/objects/115b.jpg,lure,dist1,target,dist2,0,0,0,0,0,30,30,77,,,,,,,,,,,363.13234169920906,None,364.1508549884893,None,364.1508549884893,None,364.1508549884893,None,364.1508549884893,None,367.16279764147475,None,367.16279764147475,None,367.16279764147475,None,367.16279764147475,None,None,None,None,None,None,,,,,,,,,,pilot1,2022_Jun_16_1001,Hippopolis_Updating,2021.1.2,60.00059718860514,
Hippopolis,stimuli/subj_files/pilot1_cityA.csv,./stimuli/frankfurt.jpg,./stimuli/street_plate1.png,KESELYŰ UTCA,stimuli/scenes/027a.jpg,scene,2,stimuli/objects/101a.jpg,stimuli/scenes/044a.jpg,stimuli/objects/101a.jpg,stimuli/objects/101b.jpg,stimuli/scenes/044b.jpg,dist1,target,lure,dist2,0,0,0,0,0,31,31,4,,,,,,,,,,,370.13646875694394,None,371.1631077150814,None,371.1631077150814,None,371.1631077150814,None,371.1631077150814,None,374.1658041421324,None,374.1658041421324,None,374.1658041421324,None,374.1658041421324,None,None,None,None,None,None,,,,,,,,,,pilot1,2022_Jun_16_1001,Hippopolis_Updating,2021.1.2,60.00059718860514,
Hippopolis,stimuli/subj_files/pilot1_cityA.csv,./stimuli/frankfurt.jpg,./stimuli/street_plate1.png,MÁLNA UTCA,stimuli/scenes/003a.jpg,scene,2,stimuli/objects/115a.jpg,stimuli/objects/115a.jpg,stimuli/objects/115b.jpg,stimuli/objects/086a.jpg,stimuli/objects/086b.jpg,target,lure,dist1,dist2,0,0,0,0,0,32,32,45,,,,,,,,,,,377.15252384962514,None,378.16880784370005,None,378.16880784370005,None,378.16880784370005,None,378.16880784370005,None,381.18083229102194,None,381.18083229102194,None,381.18083229102194,None,381.18083229102194,None,None,None,None,None,None,,,,,,,,,,pilot1,2022_Jun_16_1001,Hippopolis_Updating,2021.1.2,60.00059718860514,
Hippopolis,stimuli/subj_files/pilot1_cityA.csv,./stimuli/frankfurt.jpg,./stimuli/street_plate1.png,PADLÓ UTCA,stimuli/objects/053a.jpg,object,0,stimuli/objects/053a.jpg,stimuli/objects/053a.jpg,stimuli/objects/053b.jpg,stimuli/objects/064b.jpg,stimuli/objects/064a.jpg,target,lure,dist2,dist1,0,0,0,0,0,33,33,74,,,,,,,,,,,384.16548225004226,None,385.1828914657235,None,385.1828914657235,None,385.1828914657235,None,385.1828914657235,None,388.1845740112476,None,388.1845740112476,None,388.1845740112476,None,388.1845740112476,None,None,None,None,None,None,,,,,,,,,,pilot1,2022_Jun_16_1001,Hippopolis_Updating,2021.1.2,60.00059718860514,
Hippopolis,stimuli/subj_files/pilot1_cityA.csv,./stimuli/frankfurt.jpg,./stimuli/street_plate1.png,POGÁCSA UTCA,stimuli/objects/093a.jpg,object,1,stimuli/objects/018a.jpg,stimuli/scenes/064a.jpg,stimuli/scenes/064b.jpg,stimuli/objects/018b.jpg,stimuli/objects/018a.jpg,dist1,dist2,lure,target,0,0,0,0,0,34,34,10,,,,,,,,,,,391.1791491233744,None,392.20384677825496,None,392.20384677825496,None,392.20384677825496,None,392.20384677825496,None,395.21574993338436,None,395.21574993338436,None,395.21574993338436,None,395.21574993338436,None,None,None,None,None,None,,,,,,,,,,pilot1,2022_Jun_16_1001,Hippopolis_Updating,2021.1.2,60.00059718860514,
Hippopolis,stimuli/subj_files/pilot1_cityA.csv,./stimuli/frankfurt.jpg,./stimuli/street_plate1.png,SZERSZÁM UTCA,stimuli/objects/037a.jpg,object,0,stimuli/objects/037a.jpg,stimuli/objects/037a.jpg,stimuli/scenes/097b.jpg,stimuli/scenes/097a.jpg,stimuli/objects/037b.jpg,target,dist2,dist1,lure,0,0,0,0,0,35,35,19,,,,,,,,,,,398.1931643243879,None,399.21009334595874,None,399.21009334595874,None,399.21009334595874,None,399.21009334595874,None,402.2052795859054,None,402.2052795859054,None,402.2052795859054,None,402.2052795859054,None,None,None,None,None,None,,,,,,,,,,pilot1,2022_Jun_16_1001,Hippopolis_Updating,2021.1.2,60.00059718860514,
Hippopolis,stimuli/subj_files/pilot1_cityA.csv,./stimuli/frankfurt.jpg,./stimuli/street_plate1.png,ÁRNYÉK UTCA,stimuli/scenes/088a.jpg,scene,0,stimuli/scenes/088a.jpg,stimuli/scenes/088a.jpg,stimuli/objects/038a.jpg,stimuli/objects/038b.jpg,stimuli/scenes/088b.jpg,target,dist1,dist2,lure,0,0,0,0,0,36,36,42,,,,,,,,,,,405.2020196146332,None,406.22479835897684,None,406.22479835897684,None,406.22479835897684,None,406.22479835897684,None,409.2196446689777,None,409.2196446689777,None,409.2196446689777,None,409.2196446689777,None,None,None,None,None,None,,,,,,,,,,pilot1,2022_Jun_16_1001,Hippopolis_Updating,2021.1.2,60.00059718860514,
Hippopolis,stimuli/subj_files/pilot1_cityA.csv,./stimuli/frankfurt.jpg,./stimuli/street_plate1.png,DARU UTCA,stimuli/scenes/035a.jpg,scene,1,stimuli/scenes/080a.jpg,stimuli/scenes/080b.jpg,stimuli/objects/010b.jpg,stimuli/objects/010a.jpg,stimuli/scenes/080a.jpg,lure,dist2,dist1,target,0,0,0,0,0,37,37,41,,,,,,,,,,,412.21520629385486,None,413.24592472519726,None,413.24592472519726,None,413.24592472519726,None,413.24592472519726,None,416.2309438493103,None,416.2309438493103,None,416.2309438493103,None,416.2309438493103,None,None,None,None,None,None,,,,,,,,,,pilot1,2022_Jun_16_1001,Hippopolis_Updating,2021.1.2,60.00059718860514,
Hippopolis,stimuli/subj_files/pilot1_cityA.csv,./stimuli/frankfurt.jpg,./stimuli/street_plate1.png,ASZTAL UTCA,stimuli/objects/016a.jpg,object,0,stimuli/objects/016a.jpg,stimuli/objects/016a.jpg,stimuli/scenes/046b.jpg,stimuli/scenes/046a.jpg,stimuli/objects/016b.jpg,target,dist2,dist1,lure,0,0,0,0,0,38,38,56,,,,,,,,,,,419.2317726816982,None,420.24974077614024,None,420.24974077614024,None,420.24974077614024,None,420.24974077614024,None,423.25166590698063,None,423.25166590698063,None,423.25166590698063,None,423.25166590698063,None,None,None,None,None,None,,,,,,,,,,pilot1,2022_Jun_16_1001,Hippopolis_Updating,2021.1.2,60.00059718860514,
Hippopolis,stimuli/subj_files/pilot1_cityA.csv,./stimuli/frankfurt.jpg,./stimuli/street_plate1.png,HARMONIKA UTCA,stimuli/scenes/028a.jpg,scene,2,stimuli/objects/099a.jpg,stimuli/objects/099a.jpg,stimuli/objects/015b.jpg,stimuli/objects/015a.jpg,stimuli/objects/099b.jpg,target,dist2,dist1,lure,0,0,0,0,0,39,39,63,,,,,,,,,,,426.25510190753266,None,427.2894864846021,None,427.2894864846021,None,427.2894864846021,None,427.2894864846021,None,430.2958288420923,None,430.2958288420923,None,430.2958288420923,None,430.2958288420923,None,433.2503534592688,None,space,433.2503534592688,None,7.9154077637940645,,,,,,,,,pilot1,2022_Jun_16_1001,Hippopolis_Updating,2021.1.2,60.00059718860514,
Hippopolis,stimuli/subj_files/pilot1_cityA.csv,./stimuli/frankfurt.jpg,./stimuli/street_plate1.png,POLIP UTCA,stimuli/objects/039a.jpg,object,0,stimuli/objects/039a.jpg,stimuli/objects/101a.jpg,stimuli/objects/039b.jpg,stimuli/objects/101b.jpg,stimuli/objects/039a.jpg,dist1,lure,dist2,target,0,0,0,0,0,40,40,12,,,,,,,,,,,441.19601190043613,None,442.21016021212563,None,442.21016021212563,None,442.21016021212563,None,442.21016021212563,None,445.2131449421868,None,445.2131449421868,None,445.2131449421868,None,445.2131449421868,None,None,None,None,None,None,,,,,,,,,,pilot1,2022_Jun_16_1001,Hippopolis_Updating,2021.1.2,60.00059718860514,
Hippopolis,stimuli/subj_files/pilot1_cityA.csv,./stimuli/frankfurt.jpg,./stimuli/street_plate1.png,KÖNYVTÁR UTCA,stimuli/objects/070a.jpg,object,0,stimuli/objects/070a.jpg,stimuli/objects/070a.jpg,stimuli/scenes/100b.jpg,stimuli/scenes/100a.jpg,stimuli/objects/070b.jpg,target,dist2,dist1,lure,0,0,0,0,0,41,41,79,,,,,,,,,,,448.1978748301044,None,449.2135890596546,None,449.2135890596546,None,449.2135890596546,None,449.2135890596546,None,452.2137993001379,None,452.2137993001379,None,452.2137993001379,None,452.2137993001379,None,None,None,None,None,None,,,,,,,,,,pilot1,2022_Jun_16_1001,Hippopolis_Updating,2021.1.2,60.00059718860514,
Hippopolis,stimuli/subj_files/pilot1_cityA.csv,./stimuli/frankfurt.jpg,./stimuli/street_plate1.png,KULLANCS UTCA,stimuli/scenes/111a.jpg,scene,1,stimuli/scenes/084a.jpg,stimuli/scenes/084b.jpg,stimuli/scenes/084a.jpg,stimuli/objects/054a.jpg,stimuli/objects/054b.jpg,lure,target,dist1,dist2,0,0,0,0,0,42,42,68,,,,,,,,,,,455.21790551999584,None,456.2368131657131,None,456.2368131657131,None,456.2368131657131,None,456.2368131657131,None,459.2336147739552,None,459.2336147739552,None,459.2336147739552,None,459.2336147739552,None,None,None,None,None,None,,,,,,,,,,pilot1,2022_Jun_16_1001,Hippopolis_Updating,2021.1.2,60.00059718860514,
Hippopolis,stimuli/subj_files/pilot1_cityA.csv,./stimuli/frankfurt.jpg,./stimuli/street_plate1.png,PETREZSELYEM UTCA,stimuli/objects/090a.jpg,object,1,stimuli/objects/040a.jpg,stimuli/objects/040a.jpg,stimuli/objects/053a.jpg,stimuli/objects/053b.jpg,stimuli/objects/040b.jpg,target,dist1,dist2,lure,0,0,0,0,0,43,43,16,,,,,,,,,,,462.2146352860145,None,463.2434369837865,None,463.2434369837865,None,463.2434369837865,None,463.2434369837865,None,466.2372084548697,None,466.2372084548697,None,466.2372084548697,None,466.2372084548697,None,None,None,None,None,None,,,,,,,,,,pilot1,2022_Jun_16_1001,Hippopolis_Updating,2021.1.2,60.00059718860514,
Hippopolis,stimuli/subj_files/pilot1_cityA.csv,./stimuli/frankfurt.jpg,./stimuli/street_plate1.png,MOTOR UTCA,stimuli/objects/111a.jpg,object,1,stimuli/objects/100a.jpg,stimuli/objects/055a.jpg,stimuli/objects/100b.jpg,stimuli/objects/100a.jpg,stimuli/objects/055b.jpg,dist1,lure,target,dist2,0,0,0,0,0,44,44,55,,,,,,,,,,,469.22641963651404,None,470.2545147272758,None,470.2545147272758,None,470.2545147272758,None,470.2545147272758,None,473.2519697602838,None,473.2519697602838,None,473.2519697602838,None,473.2519697602838,None,None,None,None,None,None,,,,,,,,,,pilot1,2022_Jun_16_1001,Hippopolis_Updating,2021.1.2,60.00059718860514,
Hippopolis,stimuli/subj_files/pilot1_cityA.csv,./stimuli/frankfurt.jpg,./stimuli/street_plate1.png,VÁSÁR UTCA,stimuli/objects/060a.jpg,object,1,stimuli/objects/076a.jpg,stimuli/objects/076b.jpg,stimuli/objects/076a.jpg,stimuli/objects/080b.jpg,stimuli/objects/080a.jpg,lure,target,dist2,dist1,0,0,0,0,0,45,45,40,,,,,,,,,,,476.2313102148473,None,477.2501432187855,None,477.2501432187855,None,477.2501432187855,None,477.2501432187855,None,480.27605784265324,None,480.27605784265324,None,480.27605784265324,None,480.27605784265324,None,None,None,None,None,None,,,,,,,,,,pilot1,2022_Jun_16_1001,Hippopolis_Updating,2021.1.2,60.00059718860514,
Hippopolis,stimuli/subj_files/pilot1_cityA.csv,./stimuli/frankfurt.jpg,./stimuli/street_plate1.png,POHÁR UTCA,stimuli/scenes/062a.jpg,scene,1,stimuli/scenes/064a.jpg,stimuli/scenes/064a.jpg,stimuli/scenes/006b.jpg,stimuli/scenes/006a.jpg,stimuli/scenes/064b.jpg,target,dist2,dist1,lure,0,0,0,0,0,46,46,38,,,,,,,,,,,483.2408917057328,None,484.2690884959884,None,484.2690884959884,None,484.2690884959884,None,484.2690884959884,None,487.2835220005363,None,487.2835220005363,None,487.2835220005363,None,487.2835220005363,None,None,None,None,None,None,,,,,,,,,,pilot1,2022_Jun_16_1001,Hippopolis_Updating,2021.1.2,60.00059718860514,
Hippopolis,stimuli/subj_files/pilot1_cityA.csv,./stimuli/frankfurt.jpg,./stimuli/street_plate1.png,MENTA UTCA,stimuli/objects/088a.jpg,object,1,stimuli/objects/054a.jpg,stimuli/scenes/088b.jpg,stimuli/scenes/088a.jpg,stimuli/objects/054b.jpg,stimuli/objects/054a.jpg,dist2,dist1,lure,target,0,0,0,0,0,47,47,26,,,,,,,,,,,490.2542114960961,None,491.2695683790371,None,491.2695683790371,None,491.2695683790371,None,491.2695683790371,None,494.3089038701728,None,494.3089038701728,None,494.3089038701728,None,494.3089038701728,None,None,None,None,None,None,,,,,,,,,,pilot1,2022_Jun_16_1001,Hippopolis_Updating,2021.1.2,60.00059718860514,
Hippopolis,stimuli/subj_files/pilot1_cityA.csv,./stimuli/frankfurt.jpg,./stimuli/street_plate1.png,TEHÉN UTCA,stimuli/objects/006a.jpg,object,1,stimuli/objects/017a.jpg,stimuli/objects/017a.jpg,stimuli/objects/017b.jpg,stimuli/scenes/113b.jpg,stimuli/scenes/113a.jpg,target,lure,dist2,dist1,0,0,0,0,0,48,48,28,,,,,,,,,,,497.2690256726928,None,498.3022134960629,None,498.3022134960629,None,498.3022134960629,None,498.3022134960629,None,501.3194233565591,None,501.3194233565591,None,501.3194233565591,None,501.3194233565591,None,None,None,None,None,None,,,,,,,,,,pilot1,2022_Jun_16_1001,Hippopolis_Updating,2021.1.2,60.00059718860514,
Hippopolis,stimuli/subj_files/pilot1_cityA.csv,./stimuli/frankfurt.jpg,./stimuli/street_plate1.png,EPER UTCA,stimuli/objects/028a.jpg,object,1,stimuli/objects/062a.jpg,stimuli/objects/062a.jpg,stimuli/objects/047b.jpg,stimuli/objects/062b.jpg,stimuli/objects/047a.jpg,target,dist2,lure,dist1,0,0,0,0,0,49,49,39,,,,,,,,,,,504.2754607098177,None,505.3024654118344,None,505.3024654118344,None,505.3024654118344,None,505.3024654118344,None,508.2975903833285,None,508.2975903833285,None,508.2975903833285,None,508.2975903833285,None,None,None,None,None,None,,,,,,,,,,pilot1,2022_Jun_16_1001,Hippopolis_Updating,2021.1.2,60.00059718860514,
Hippopolis,stimuli/subj_files/pilot1_cityA.csv,./stimuli/frankfurt.jpg,./stimuli/street_plate1.png,OROSZLÁN UTCA,stimuli/scenes/054a.jpg,scene,2,stimuli/objects/014a.jpg,stimuli/objects/099a.jpg,stimuli/objects/099b.jpg,stimuli/objects/014b.jpg,stimuli/objects/014a.jpg,dist1,dist2,lure,target,0,0,0,0,0,50,50,52,,,,,,,,,,,511.2807049029507,None,512.3120515677147,None,512.3120515677147,None,512.3120515677147,None,512.3120515677147,None,515.3141965800896,None,515.3141965800896,None,515.3141965800896,None,515.3141965800896,None,None,None,None,None,None,,,,,,,,,,pilot1,2022_Jun_16_1001,Hippopolis_Updating,2021.1.2,60.00059718860514,
Hippopolis,stimuli/subj_files/pilot1_cityA.csv,./stimuli/frankfurt.jpg,./stimuli/street_plate1.png,SZIKLA UTCA,stimuli/objects/077a.jpg,object,1,stimuli/objects/072a.jpg,stimuli/scenes/017b.jpg,stimuli/objects/072a.jpg,stimuli/scenes/017a.jpg,stimuli/objects/072b.jpg,dist2,target,dist1,lure,0,0,0,0,0,51,51,1,,,,,,,,,,,518.2979383999482,None,519.3146537598222,None,519.3146537598222,None,519.3146537598222,None,519.3146537598222,None,522.3166572642513,None,522.3166572642513,None,522.3166572642513,None,522.3166572642513,None,None,None,None,None,None,,,,,,,,,,pilot1,2022_Jun_16_1001,Hippopolis_Updating,2021.1.2,60.00059718860514,
Hippopolis,stimuli/subj_files/pilot1_cityA.csv,./stimuli/frankfurt.jpg,./stimuli/street_plate1.png,FOGÓ UTCA,stimuli/scenes/072a.jpg,scene,0,stimuli/scenes/072a.jpg,stimuli/scenes/072b.jpg,stimuli/scenes/072a.jpg,stimuli/objects/104b.jpg,stimuli/objects/104a.jpg,lure,target,dist2,dist1,0,0,0,0,0,52,52,70,,,,,,,,,,,525.3007847322151,None,526.3217024127953,None,526.3217024127953,None,526.3217024127953,None,526.3217024127953,None,529.3301347345114,None,529.3301347345114,None,529.3301347345114,None,529.3301347345114,None,None,None,None,None,None,,,,,,,,,,pilot1,2022_Jun_16_1001,Hippopolis_Updating,2021.1.2,60.00059718860514,
Hippopolis,stimuli/subj_files/pilot1_cityA.csv,./stimuli/frankfurt.jpg,./stimuli/street_plate1.png,KECSKE UTCA,stimuli/objects/011a.jpg,object,1,stimuli/objects/086a.jpg,stimuli/objects/086b.jpg,stimuli/objects/066a.jpg,stimuli/objects/086a.jpg,stimuli/objects/066b.jpg,lure,dist1,target,dist2,0,0,0,0,0,53,53,64,,,,,,,,,,,532.3142989012413,None,533.34565862827,None,533.34565862827,None,533.34565862827,None,533.34565862827,None,536.333848153241,None,536.333848153241,None,536.333848153241,None,536.333848153241,None,None,None,None,None,None,,,,,,,,,,pilot1,2022_Jun_16_1001,Hippopolis_Updating,2021.1.2,60.00059718860514,
Hippopolis,stimuli/subj_files/pilot1_cityA.csv,./stimuli/frankfurt.jpg,./stimuli/street_plate1.png,SZŐNYEG UTCA,stimuli/scenes/044a.jpg,scene,0,stimuli/scenes/044a.jpg,stimuli/scenes/044a.jpg,stimuli/scenes/004b.jpg,stimuli/scenes/004a.jpg,stimuli/scenes/044b.jpg,target,dist2,dist1,lure,0,0,0,0,0,54,54,11,,,,,,,,,,,539.3228375869803,None,540.3544305688702,None,540.3544305688702,None,540.3544305688702,None,540.3544305688702,None,543.3481034510769,None,543.3481034510769,None,543.3481034510769,None,543.3481034510769,None,None,None,None,None,None,,,,,,,,,,pilot1,2022_Jun_16_1001,Hippopolis_Updating,2021.1.2,60.00059718860514,
Hippopolis,stimuli/subj_files/pilot1_cityA.csv,./stimuli/frankfurt.jpg,./stimuli/street_plate1.png,MANDARIN UTCA,stimuli/scenes/047a.jpg,scene,1,stimuli/scenes/024a.jpg,stimuli/scenes/024a.jpg,stimuli/scenes/024b.jpg,stimuli/scenes/069a.jpg,stimuli/scenes/069b.jpg,target,lure,dist1,dist2,0,0,0,0,0,55,55,60,,,,,,,,,,,546.3308547148481,None,547.3623690120876,None,547.3623690120876,None,547.3623690120876,None,547.3623690120876,None,550.3648679498583,None,550.3648679498583,None,550.3648679498583,None,550.3648679498583,None,None,None,None,None,None,,,,,,,,,,pilot1,2022_Jun_16_1001,Hippopolis_Updating,2021.1.2,60.00059718860514,
Hippopolis,stimuli/subj_files/pilot1_cityA.csv,./stimuli/frankfurt.jpg,./stimuli/street_plate1.png,KORONG UTCA,stimuli/objects/104a.jpg,object,0,stimuli/objects/104a.jpg,stimuli/objects/076b.jpg,stimuli/objects/104a.jpg,stimuli/objects/104b.jpg,stimuli/objects/076a.jpg,dist2,target,lure,dist1,0,0,0,0,0,56,56,5,,,,,,,,,,,553.3565379497595,None,554.3873559031636,None,554.3873559031636,None,554.3873559031636,None,554.3873559031636,None,557.397965581622,None,557.397965581622,None,557.397965581622,None,557.397965581622,None,None,None,None,None,None,,,,,,,,,,pilot1,2022_Jun_16_1001,Hippopolis_Updating,2021.1.2,60.00059718860514,
Hippopolis,stimuli/subj_files/pilot1_cityA.csv,./stimuli/frankfurt.jpg,./stimuli/street_plate1.png,TISZTÁS UTCA,stimuli/objects/021a.jpg,object,2,stimuli/scenes/029a.jpg,stimuli/objects/018b.jpg,stimuli/scenes/029b.jpg,stimuli/scenes/029a.jpg,stimuli/objects/018a.jpg,dist2,lure,target,dist1,0,0,0,0,0,57,57,67,,,,,,,,,,,560.3672371981665,None,561.3911965233274,None,561.3911965233274,None,561.3911965233274,None,561.3911965233274,None,564.3965564109385,None,564.3965564109385,None,564.3965564109385,None,564.3965564109385,None,None,None,None,None,None,,,,,,,,,,pilot1,2022_Jun_16_1001,Hippopolis_Updating,2021.1.2,60.00059718860514,
Hippopolis,stimuli/subj_files/pilot1_cityA.csv,./stimuli/frankfurt.jpg,./stimuli/street_plate1.png,EGÉR UTCA,stimuli/objects/013a.jpg,object,1,stimuli/objects/080a.jpg,stimuli/scenes/070a.jpg,stimuli/objects/080a.jpg,stimuli/objects/080b.jpg,stimuli/scenes/070b.jpg,dist1,target,lure,dist2,0,0,0,0,0,58,58,34,,,,,,,,,,,567.3847303856164,None,568.4195217592642,None,568.4195217592642,None,568.4195217592642,None,568.4195217592642,None,571.4559403192252,None,571.4559403192252,None,571.4559403192252,None,571.4559403192252,None,None,None,None,None,None,,,,,,,,,,pilot1,2022_Jun_16_1001,Hippopolis_Updating,2021.1.2,60.00059718860514,
Hippopolis,stimuli/subj_files/pilot1_cityA.csv,./stimuli/frankfurt.jpg,./stimuli/street_plate1.png,TRIATLON UTCA,stimuli/objects/119a.jpg,object,2,stimuli/scenes/018a.jpg,stimuli/objects/017a.jpg,stimuli/objects/017b.jpg,stimuli/scenes/018b.jpg,stimuli/scenes/018a.jpg,dist1,dist2,lure,target,0,0,0,0,0,59,59,75,,,,,,,,,,,574.400385835208,None,575.42958904244,None,575.42958904244,None,575.42958904244,None,575.42958904244,None,578.4530663075857,None,578.4530663075857,None,578.4530663075857,None,578.4530663075857,None,None,None,None,None,None,,,,,,,,,,pilot1,2022_Jun_16_1001,Hippopolis_Updating,2021.1.2,60.00059718860514,
Hippopolis,stimuli/subj_files/pilot1_cityA.csv,./stimuli/frankfurt.jpg,./stimuli/street_plate1.png,ÁLLOMÁS UTCA,stimuli/objects/041a.jpg,object,1,stimuli/objects/022a.jpg,stimuli/objects/022b.jpg,stimuli/objects/022a.jpg,stimuli/objects/062b.jpg,stimuli/objects/062a.jpg,lure,target,dist2,dist1,0,0,0,0,0,60,60,24,,,,,,,,,,,581.4177648830228,None,582.4526803484187,None,582.4526803484187,None,582.4526803484187,None,582.4526803484187,None,585.4586143540218,None,585.4586143540218,None,585.4586143540218,None,585.4586143540218,None,None,None,None,None,None,,,,,,,,,,pilot1,2022_Jun_16_1001,Hippopolis_Updating,2021.1.2,60.00059718860514,
Hippopolis,stimuli/subj_files/pilot1_cityA.csv,./stimuli/frankfurt.jpg,./stimuli/street_plate1.png,FECSKE UTCA,stimuli/objects/106a.jpg,object,2,stimuli/scenes/051a.jpg,stimuli/scenes/116b.jpg,stimuli/scenes/051b.jpg,stimuli/scenes/116a.jpg,stimuli/scenes/051a.jpg,dist2,lure,dist1,target,0,0,0,0,0,61,61,49,,,,,,,,,,,588.4297958617099,None,589.4506224174984,None,589.4506224174984,None,589.4506224174984,None,589.4506224174984,None,592.4459905964322,None,592.4459905964322,None,592.4459905964322,None,592.4459905964322,None,None,None,None,None,None,,,,,,,,,,pilot1,2022_Jun_16_1001,Hippopolis_Updating,2021.1.2,60.00059718860514,
Hippopolis,stimuli/subj_files/pilot1_cityA.csv,./stimuli/frankfurt.jpg,./stimuli/street_plate1.png,RIBIZLI UTCA,stimuli/scenes/017a.jpg,scene,0,stimuli/scenes/017a.jpg,stimuli/scenes/068b.jpg,stimuli/scenes/017a.jpg,stimuli/scenes/068a.jpg,stimuli/scenes/017b.jpg,dist2,target,dist1,lure,0,0,0,0,0,62,62,37,,,,,,,,,,,595.4463830869645,None,596.467215240933,None,596.467215240933,None,596.467215240933,None,596.467215240933,None,599.4847905342467,None,599.4847905342467,None,599.4847905342467,None,599.4847905342467,None,None,None,None,None,None,,,,,,,,,,pilot1,2022_Jun_16_1001,Hippopolis_Updating,2021.1.2,60.00059718860514,
Hippopolis,stimuli/subj_files/pilot1_cityA.csv,./stimuli/frankfurt.jpg,./stimuli/street_plate1.png,KOCKA UTCA,stimuli/scenes/002a.jpg,scene,0,stimuli/scenes/002a.jpg,stimuli/scenes/072a.jpg,stimuli/scenes/002b.jpg,stimuli/scenes/072b.jpg,stimuli/scenes/002a.jpg,dist1,lure,dist2,target,0,0,0,0,0,63,63,73,,,,,,,,,,,602.4633693336509,None,603.4821734139696,None,603.4821734139696,None,603.4821734139696,None,603.4821734139696,None,606.4771279538982,None,606.4771279538982,None,606.4771279538982,None,606.4771279538982,None,None,None,None,None,None,,,,,,,,,,pilot1,2022_Jun_16_1001,Hippopolis_Updating,2021.1.2,60.00059718860514,
Hippopolis,stimuli/subj_files/pilot1_cityA.csv,./stimuli/frankfurt.jpg,./stimuli/street_plate1.png,NARANCS UTCA,stimuli/scenes/103a.jpg,scene,2,stimuli/objects/097a.jpg,stimuli/objects/097b.jpg,stimuli/objects/046a.jpg,stimuli/objects/046b.jpg,stimuli/objects/097a.jpg,lure,dist1,dist2,target,0,0,0,0,0,64,64,13,,,,,,,,,,,609.4796250257641,None,610.4995210501365,None,610.4995210501365,None,610.4995210501365,None,610.4995210501365,None,613.5020445575938,None,613.5020445575938,None,613.5020445575938,None,613.5020445575938,None,None,None,None,None,None,,,,,,,,,,pilot1,2022_Jun_16_1001,Hippopolis_Updating,2021.1.2,60.00059718860514,
Hippopolis,stimuli/subj_files/pilot1_cityA.csv,./stimuli/frankfurt.jpg,./stimuli/street_plate1.png,PAPRIKA UTCA,stimuli/scenes/118a.jpg,scene,0,stimuli/scenes/118a.jpg,stimuli/scenes/118a.jpg,stimuli/objects/068b.jpg,stimuli/scenes/118b.jpg,stimuli/objects/068a.jpg,target,dist2,lure,dist1,0,0,0,0,0,65,65,20,,,,,,,,,,,616.4843457946554,None,617.5196313578635,None,617.5196313578635,None,617.5196313578635,None,617.5196313578635,None,620.5122956456617,None,620.5122956456617,None,620.5122956456617,None,620.5122956456617,None,None,None,None,None,None,,,,,,,,,,pilot1,2022_Jun_16_1001,Hippopolis_Updating,2021.1.2,60.00059718860514,
Hippopolis,stimuli/subj_files/pilot1_cityA.csv,./stimuli/frankfurt.jpg,./stimuli/street_plate1.png,TÉRKÉP UTCA,stimuli/scenes/061a.jpg,scene,2,stimuli/objects/065a.jpg,stimuli/objects/065a.jpg,stimuli/scenes/060b.jpg,stimuli/scenes/060a.jpg,stimuli/objects/065b.jpg,target,dist2,dist1,lure,0,0,0,0,0,66,66,72,,,,,,,,,,,623.4959665560164,None,624.5161378211342,None,624.5161378211342,None,624.5161378211342,None,624.5161378211342,None,627.5124374646693,None,627.5124374646693,None,627.5124374646693,None,627.5124374646693,None,None,None,None,None,None,,,,,,,,,,pilot1,2022_Jun_16_1001,Hippopolis_Updating,2021.1.2,60.00059718860514,
Hippopolis,stimuli/subj_files/pilot1_cityA.csv,./stimuli/frankfurt.jpg,./stimuli/street_plate1.png,KENYÉR UTCA,stimuli/scenes/071a.jpg,scene,2,stimuli/objects/055a.jpg,stimuli/objects/033b.jpg,stimuli/objects/055a.jpg,stimuli/objects/055b.jpg,stimuli/objects/033a.jpg,dist2,target,lure,dist1,0,0,0,0,0,67,67,17,,,,,,,,,,,630.5133897666819,None,631.5355284595862,None,631.5355284595862,None,631.5355284595862,None,631.5355284595862,None,634.5374013413675,None,634.5374013413675,None,634.5374013413675,None,634.5374013413675,None,None,None,None,None,None,,,,,,,,,,pilot1,2022_Jun_16_1001,Hippopolis_Updating,2021.1.2,60.00059718860514,
Hippopolis,stimuli/subj_files/pilot1_cityA.csv,./stimuli/frankfurt.jpg,./stimuli/street_plate1.png,BICIKLI UTCA,stimuli/objects/027a.jpg,object,2,stimuli/scenes/026a.jpg,stimuli/scenes/029b.jpg,stimuli/scenes/026b.jpg,stimuli/scenes/029a.jpg,stimuli/scenes/026a.jpg,dist2,lure,dist1,target,0,0,0,0,0,68,68,47,,,,,,,,,,,637.5162077974528,None,638.5350747010671,None,638.5350747010671,None,638.5350747010671,None,638.5350747010671,None,641.5464043598622,None,641.5464043598622,None,641.5464043598622,None,641.5464043598622,None,None,None,None,None,None,,,,,,,,,,pilot1,2022_Jun_16_1001,Hippopolis_Updating,2021.1.2,60.00059718860514,
Hippopolis,stimuli/subj_files/pilot1_cityA.csv,./stimuli/frankfurt.jpg,./stimuli/street_plate1.png,PÉKSÉG UTCA,stimuli/objects/030a.jpg,object,0,stimuli/objects/030a.jpg,stimuli/objects/030a.jpg,stimuli/objects/073a.jpg,stimuli/objects/030b.jpg,stimuli/objects/073b.jpg,target,dist1,lure,dist2,0,0,0,0,0,69,69,48,,,,,,,,,,,644.5290987091139,None,645.5499747153372,None,645.5499747153372,None,645.5499747153372,None,645.5499747153372,None,648.5490457387641,None,648.5490457387641,None,648.5490457387641,None,648.5490457387641,None,None,None,None,None,None,,,,,,,,,,pilot1,2022_Jun_16_1001,Hippopolis_Updating,2021.1.2,60.00059718860514,
Hippopolis,stimuli/subj_files/pilot1_cityA.csv,./stimuli/frankfurt.jpg,./stimuli/street_plate1.png,TELEFON UTCA,stimuli/objects/102a.jpg,object,2,stimuli/scenes/004a.jpg,stimuli/objects/057a.jpg,stimuli/scenes/004b.jpg,stimuli/scenes/004a.jpg,stimuli/objects/057b.jpg,dist1,lure,target,dist2,0,0,0,0,0,70,70,66,,,,,,,,,,,651.5457786144689,None,652.5765971899964,None,652.5765971899964,None,652.5765971899964,None,652.5765971899964,None,655.5822528447025,None,655.5822528447025,None,655.5822528447025,None,655.5822528447025,None,None,None,None,None,None,,,,,,,,,,pilot1,2022_Jun_16_1001,Hippopolis_Updating,2021.1.2,60.00059718860514,
Hippopolis,stimuli/subj_files/pilot1_cityA.csv,./stimuli/frankfurt.jpg,./stimuli/street_plate1.png,SZÖCSKE UTCA,stimuli/objects/057a.jpg,object,0,stimuli/objects/057a.jpg,stimuli/objects/057b.jpg,stimuli/objects/057a.jpg,stimuli/scenes/045b.jpg,stimuli/scenes/045a.jpg,lure,target,dist2,dist1,0,0,0,0,0,71,71,14,,,,,,,,,,,658.5673640267923,None,659.589721668046,None,659.589721668046,None,659.589721668046,None,659.589721668046,None,662.599859549664,None,662.599859549664,None,662.599859549664,None,662.599859549664,None,None,None,None,None,None,,,,,,,,,,pilot1,2022_Jun_16_1001,Hippopolis_Updating,2021.1.2,60.00059718860514,
Hippopolis,stimuli/subj_files/pilot1_cityA.csv,./stimuli/frankfurt.jpg,./stimuli/street_plate1.png,MARTINI UTCA,stimuli/scenes/069a.jpg,scene,0,stimuli/scenes/069a.jpg,stimuli/objects/065a.jpg,stimuli/scenes/069b.jpg,stimuli/scenes/069a.jpg,stimuli/objects/065b.jpg,dist1,lure,target,dist2,0,0,0,0,0,72,72,54,,,,,,,,,,,665.5789424907416,None,666.6104993959889,None,666.6104993959889,None,666.6104993959889,None,666.6104993959889,None,669.6055469270796,None,669.6055469270796,None,669.6055469270796,None,669.6055469270796,None,None,None,None,None,None,,,,,,,,,,pilot1,2022_Jun_16_1001,Hippopolis_Updating,2021.1.2,60.00059718860514,
Hippopolis,stimuli/subj_files/pilot1_cityA.csv,./stimuli/frankfurt.jpg,./stimuli/street_plate1.png,KIRAKÓ UTCA,stimuli/scenes/021a.jpg,scene,1,stimuli/scenes/020a.jpg,stimuli/objects/022b.jpg,stimuli/objects/022a.jpg,stimuli/scenes/020a.jpg,stimuli/scenes/020b.jpg,dist2,dist1,target,lure,0,0,0,0,0,73,73,59,,,,,,,,,,,672.5934294885956,None,673.6112520317547,None,673.6112520317547,None,673.6112520317547,None,673.6112520317547,None,676.6475934623741,None,676.6475934623741,None,676.6475934623741,None,676.6475934623741,None,None,None,None,None,None,,,,,,,,,,pilot1,2022_Jun_16_1001,Hippopolis_Updating,2021.1.2,60.00059718860514,
Hippopolis,stimuli/subj_files/pilot1_cityA.csv,./stimuli/frankfurt.jpg,./stimuli/street_plate1.png,TETŐ UTCA,stimuli/scenes/067a.jpg,scene,2,stimuli/objects/047a.jpg,stimuli/objects/047a.jpg,stimuli/objects/047b.jpg,stimuli/objects/097b.jpg,stimuli/objects/097a.jpg,target,lure,dist2,dist1,0,0,0,0,0,74,74,8,,,,,,,,,,,679.5988693046384,None,680.6287654344924,None,680.6287654344924,None,680.6287654344924,None,680.6287654344924,None,683.6386321187019,None,683.6386321187019,None,683.6386321187019,None,683.6386321187019,None,None,None,None,None,None,,,,,,,,,,pilot1,2022_Jun_16_1001,Hippopolis_Updating,2021.1.2,60.00059718860514,
Hippopolis,stimuli/subj_files/pilot1_cityA.csv,./stimuli/frankfurt.jpg,./stimuli/street_plate1.png,TORONY UTCA,stimuli/scenes/059a.jpg,scene,2,stimuli/objects/120a.jpg,stimuli/scenes/104b.jpg,stimuli/objects/120b.jpg,stimuli/scenes/104a.jpg,stimuli/objects/120a.jpg,dist2,lure,dist1,target,0,0,0,0,0,75,75,6,,,,,,,,,,,686.6202758881263,None,687.6424366622232,None,687.6424366622232,None,687.6424366622232,None,687.6424366622232,None,690.6474308059551,None,690.6474308059551,None,690.6474308059551,None,690.6474308059551,None,None,None,None,None,None,,,,,,,,,,pilot1,2022_Jun_16_1001,Hippopolis_Updating,2021.1.2,60.00059718860514,
Hippopolis,stimuli/subj_files/pilot1_cityA.csv,./stimuli/frankfurt.jpg,./stimuli/street_plate1.png,MUNKA UTCA,stimuli/objects/061a.jpg,object,2,stimuli/scenes/077a.jpg,stimuli/scenes/020a.jpg,stimuli/scenes/020b.jpg,stimuli/scenes/077b.jpg,stimuli/scenes/077a.jpg,dist1,dist2,lure,target,0,0,0,0,0,76,76,25,,,,,,,,,,,693.6365744988434,None,694.6648294473998,None,694.6648294473998,None,694.6648294473998,None,694.6648294473998,None,697.6660342868418,None,697.6660342868418,None,697.6660342868418,None,697.6660342868418,None,None,None,None,None,None,,,,,,,,,,pilot1,2022_Jun_16_1001,Hippopolis_Updating,2021.1.2,60.00059718860514,
Hippopolis,stimuli/subj_files/pilot1_cityA.csv,./stimuli/frankfurt.jpg,./stimuli/street_plate1.png,SÜTEMÉNY UTCA,stimuli/scenes/043a.jpg,scene,2,stimuli/objects/033a.jpg,stimuli/objects/033b.jpg,stimuli/scenes/026a.jpg,stimuli/scenes/026b.jpg,stimuli/objects/033a.jpg,lure,dist1,dist2,target,0,0,0,0,0,77,77,2,,,,,,,,,,,700.6608575819992,None,701.680922483094,None,701.680922483094,None,701.680922483094,None,701.680922483094,None,704.7080043144524,None,704.7080043144524,None,704.7080043144524,None,704.7080043144524,None,None,None,None,None,None,,,,,,,,,,pilot1,2022_Jun_16_1001,Hippopolis_Updating,2021.1.2,60.00059718860514,
Hippopolis,stimuli/subj_files/pilot1_cityA.csv,./stimuli/frankfurt.jpg,./stimuli/street_plate1.png,TENISZ UTCA,stimuli/objects/089a.jpg,object,2,stimuli/scenes/120a.jpg,stimuli/objects/040a.jpg,stimuli/objects/040b.jpg,stimuli/scenes/120b.jpg,stimuli/scenes/120a.jpg,dist1,dist2,lure,target,0,0,0,0,0,78,78,0,,,,,,,,,,,707.6620347420685,None,708.6926337471232,None,708.6926337471232,None,708.6926337471232,None,708.6926337471232,None,711.6788518014364,None,711.6788518014364,None,711.6788518014364,None,711.6788518014364,None,None,None,None,None,None,,,,,,,,,,pilot1,2022_Jun_16_1001,Hippopolis_Updating,2021.1.2,60.00059718860514,
Hippopolis,stimuli/subj_files/pilot1_cityA.csv,./stimuli/frankfurt.jpg,./stimuli/street_plate1.png,BÚJÓCSKA UTCA,stimuli/objects/025a.jpg,object,2,stimuli/scenes/001a.jpg,stimuli/scenes/096b.jpg,stimuli/scenes/001a.jpg,stimuli/scenes/096a.jpg,stimuli/scenes/001b.jpg,dist2,target,dist1,lure,0,0,0,0,0,79,79,7,,,,,,,,,,,714.6703566564247,None,715.7022024868056,None,715.7022024868056,None,715.7022024868056,None,715.7022024868056,None,718.7087062564678,None,718.7087062564678,None,718.7087062564678,None,718.7087062564678,None,721.6779570351355,None,space,721.6779570351355,None,22.748495194595307,,,,,,,,,pilot1,2022_Jun_16_1001,Hippopolis_Updating,2021.1.2,60.00059718860514,
Camponello,stimuli/subj_files/pilot1_cityB.csv,./stimuli/leipzig.jpg,./stimuli/street_plate2.png,SIRÁLY UTCA,stimuli/scenes/013a.jpg,scene,0,stimuli/scenes/013a.jpg,stimuli/scenes/013a.jpg,stimuli/scenes/102a.jpg,stimuli/scenes/102b.jpg,stimuli/scenes/013b.jpg,target,dist1,dist2,lure,0,1,1,1,0,0,0,40,,,,,,,749.2652382343076,None,749.2652382343076,None,752.2620382877067,None,753.254688268993,None,753.254688268993,None,753.254688268993,None,753.254688268993,None,756.2472950206138,None,756.2472950206138,None,756.2472950206138,None,756.2472950206138,None,None,None,None,None,None,,744.4581671264023,None,space,4.736163783352822,744.4581671264023,None,,,pilot1,2022_Jun_16_1001,Hippopolis_Updating,2021.1.2,60.00059718860514,
Camponello,stimuli/subj_files/pilot1_cityB.csv,./stimuli/leipzig.jpg,./stimuli/street_plate2.png,PALACK UTCA,stimuli/scenes/010a.jpg,scene,0,stimuli/scenes/010a.jpg,stimuli/scenes/010b.jpg,stimuli/scenes/010a.jpg,stimuli/scenes/033a.jpg,stimuli/scenes/033b.jpg,lure,target,dist1,dist2,0,1,1,1,0,1,1,46,,,,,,,,,,,759.2324509872124,None,760.2488397900015,None,760.2488397900015,None,760.2488397900015,None,760.2488397900015,None,763.2696215612814,None,763.2696215612814,None,763.2696215612814,None,763.2696215612814,None,None,None,None,None,None,,,,,,,,,,pilot1,2022_Jun_16_1001,Hippopolis_Updating,2021.1.2,60.00059718860514,
Camponello,stimuli/subj_files/pilot1_cityB.csv,./stimuli/leipzig.jpg,./stimuli/street_plate2.png,PIZSAMA UTCA,stimuli/objects/087a.jpg,object,0,stimuli/objects/087a.jpg,stimuli/objects/087a.jpg,stimuli/objects/051b.jpg,stimuli/objects/087b.jpg,stimuli/objects/051a.jpg,target,dist2,lure,dist1,0,1,1,1,0,2,2,4,,,,,,,,,,,766.2557739927433,None,767.2728802883066,None,767.2728802883066,None,767.2728802883066,None,767.2728802883066,None,770.2771028247662,None,770.2771028247662,None,770.2771028247662,None,770.2771028247662,None,None,None,None,None,None,,,,,,,,,,pilot1,2022_Jun_16_1001,Hippopolis_Updating,2021.1.2,60.00059718860514,
Camponello,stimuli/subj_files/pilot1_cityB.csv,./stimuli/leipzig.jpg,./stimuli/street_plate2.png,MOSODA UTCA,stimuli/objects/002a.jpg,object,0,stimuli/objects/002a.jpg,stimuli/objects/002b.jpg,stimuli/objects/092a.jpg,stimuli/objects/002a.jpg,stimuli/objects/092b.jpg,lure,dist1,target,dist2,0,1,1,1,0,3,3,2,,,,,,,,,,,773.2618184061721,None,774.281270312611,None,774.281270312611,None,774.281270312611,None,774.281270312611,None,777.2825945788063,None,777.2825945788063,None,777.2825945788063,None,777.2825945788063,None,None,None,None,None,None,,,,,,,,,,pilot1,2022_Jun_16_1001,Hippopolis_Updating,2021.1.2,60.00059718860514,
Camponello,stimuli/subj_files/pilot1_cityB.csv,./stimuli/leipzig.jpg,./stimuli/street_plate2.png,TÁSKA UTCA,stimuli/scenes/055a.jpg,scene,0,stimuli/scenes/055a.jpg,stimuli/scenes/055a.jpg,stimuli/scenes/055b.jpg,stimuli/objects/074a.jpg,stimuli/objects/074b.jpg,target,lure,dist1,dist2,0,1,1,1,0,4,4,67,,,,,,,,,,,780.2719174115919,None,781.2887136335485,None,781.2887136335485,None,781.2887136335485,None,781.2887136335485,None,784.2938813189976,None,784.2938813189976,None,784.2938813189976,None,784.2938813189976,None,None,None,None,None,None,,,,,,,,,,pilot1,2022_Jun_16_1001,Hippopolis_Updating,2021.1.2,60.00059718860514,
Camponello,stimuli/subj_files/pilot1_cityB.csv,./stimuli/leipzig.jpg,./stimuli/street_plate2.png,BAGOLY UTCA,stimuli/objects/056a.jpg,object,0,stimuli/objects/056a.jpg,stimuli/scenes/073a.jpg,stimuli/objects/056b.jpg,stimuli/objects/056a.jpg,stimuli/scenes/073b.jpg,dist1,lure,target,dist2,0,1,1,1,0,5,5,61,,,,,,,,,,,787.2774393334985,None,788.3097177743912,None,788.3097177743912,None,788.3097177743912,None,788.3097177743912,None,791.3013793765567,None,791.3013793765567,None,791.3013793765567,None,791.3013793765567,None,None,None,None,None,None,,,,,,,,,,pilot1,2022_Jun_16_1001,Hippopolis_Updating,2021.1.2,60.00059718860514,
Camponello,stimuli/subj_files/pilot1_cityB.csv,./stimuli/leipzig.jpg,./stimuli/street_plate2.png,ORVOS UTCA,stimuli/scenes/058a.jpg,scene,0,stimuli/scenes/058a.jpg,stimuli/scenes/058b.jpg,stimuli/objects/056b.jpg,stimuli/objects/056a.jpg,stimuli/scenes/058a.jpg,lure,dist2,dist1,target,0,1,1,1,0,6,6,0,,,,,,,,,,,794.2855833522044,None,795.3182614361867,None,795.3182614361867,None,795.3182614361867,None,795.3182614361867,None,798.3103040214628,None,798.3103040214628,None,798.3103040214628,None,798.3103040214628,None,None,None,None,None,None,,,,,,,,,,pilot1,2022_Jun_16_1001,Hippopolis_Updating,2021.1.2,60.00059718860514,
Camponello,stimuli/subj_files/pilot1_cityB.csv,./stimuli/leipzig.jpg,./stimuli/street_plate2.png,FÉNYKÉP UTCA,stimuli/scenes/011a.jpg,scene,0,stimuli/scenes/011a.jpg,stimuli/scenes/011a.jpg,stimuli/scenes/011b.jpg,stimuli/scenes/065b.jpg,stimuli/scenes/065a.jpg,target,lure,dist2,dist1,0,1,1,1,0,7,7,29,,,,,,,,,,,801.2941117747687,None,802.3169343709014,None,802.3169343709014,None,802.3169343709014,None,802.3169343709014,None,805.312811978627,None,805.312811978627,None,805.312811978627,None,805.312811978627,None,None,None,None,None,None,,,,,,,,,,pilot1,2022_Jun_16_1001,Hippopolis_Updating,2021.1.2,60.00059718860514,
Camponello,stimuli/subj_files/pilot1_cityB.csv,./stimuli/leipzig.jpg,./stimuli/street_plate2.png,PETÁRDA UTCA,stimuli/scenes/112a.jpg,scene,0,stimuli/scenes/112a.jpg,stimuli/scenes/058a.jpg,stimuli/scenes/112a.jpg,stimuli/scenes/058b.jpg,stimuli/scenes/112b.jpg,dist1,target,dist2,lure,0,1,1,1,0,8,8,26,,,,,,,,,,,808.3184623462148,None,809.3455790104344,None,809.3455790104344,None,809.3455790104344,None,809.3455790104344,None,812.340728551615,None,812.340728551615,None,812.340728551615,None,812.340728551615,None,None,None,None,None,None,,,,,,,,,,pilot1,2022_Jun_16_1001,Hippopolis_Updating,2021.1.2,60.00059718860514,
Camponello,stimuli/subj_files/pilot1_cityB.csv,./stimuli/leipzig.jpg,./stimuli/street_plate2.png,TENGER UTCA,stimuli/scenes/037a.jpg,scene,1,stimuli/scenes/119a.jpg,stimuli/objects/081a.jpg,stimuli/objects/081b.jpg,stimuli/scenes/119a.jpg,stimuli/scenes/119b.jpg,dist1,dist2,target,lure,0,1,1,1,0,9,9,59,,,,,,,,,,,815.3272062963806,None,816.3582435096614,None,816.3582435096614,None,816.3582435096614,None,816.3582435096614,None,819.347283326555,None,819.347283326555,None,819.347283326555,None,819.347283326555,None,None,None,None,None,None,,,,,,,,,,pilot1,2022_Jun_16_1001,Hippopolis_Updating,2021.1.2,60.00059718860514,
Camponello,stimuli/subj_files/pilot1_cityB.csv,./stimuli/leipzig.jpg,./stimuli/street_plate2.png,DOMINÓ UTCA,stimuli/scenes/052a.jpg,scene,0,stimuli/scenes/052a.jpg,stimuli/scenes/052a.jpg,stimuli/scenes/052b.jpg,stimuli/scenes/090a.jpg,stimuli/scenes/090b.jpg,target,lure,dist1,dist2,0,1,1,1,0,10,10,31,,,,,,,,,,,822.3305984451436,None,823.3524314183742,None,823.3524314183742,None,823.3524314183742,None,823.3524314183742,None,826.3642185679637,None,826.3642185679637,None,826.3642185679637,None,826.3642185679637,None,None,None,None,None,None,,,,,,,,,,pilot1,2022_Jun_16_1001,Hippopolis_Updating,2021.1.2,60.00059718860514,
Camponello,stimuli/subj_files/pilot1_cityB.csv,./stimuli/leipzig.jpg,./stimuli/street_plate2.png,KARTON UTCA,stimuli/objects/095a.jpg,object,0,stimuli/objects/095a.jpg,stimuli/scenes/005b.jpg,stimuli/scenes/005a.jpg,stimuli/objects/095a.jpg,stimuli/objects/095b.jpg,dist2,dist1,target,lure,0,1,1,1,0,11,11,77,,,,,,,,,,,829.3440637863241,None,830.3719828478061,None,830.3719828478061,None,830.3719828478061,None,830.3719828478061,None,833.3620303259231,None,833.3620303259231,None,833.3620303259231,None,833.3620303259231,None,None,None,None,None,None,,,,,,,,,,pilot1,2022_Jun_16_1001,Hippopolis_Updating,2021.1.2,60.00059718860514,
Camponello,stimuli/subj_files/pilot1_cityB.csv,./stimuli/leipzig.jpg,./stimuli/street_plate2.png,RÁDIÓ UTCA,stimuli/scenes/115a.jpg,scene,0,stimuli/scenes/115a.jpg,stimuli/objects/095b.jpg,stimuli/scenes/115a.jpg,stimuli/scenes/115b.jpg,stimuli/objects/095a.jpg,dist2,target,lure,dist1,0,1,1,1,0,12,12,72,,,,,,,,,,,836.3473772504367,None,837.378928557504,None,837.378928557504,None,837.378928557504,None,837.378928557504,None,840.3809031383134,None,840.3809031383134,None,840.3809031383134,None,840.3809031383134,None,None,None,None,None,None,,,,,,,,,,pilot1,2022_Jun_16_1001,Hippopolis_Updating,2021.1.2,60.00059718860514,
Camponello,stimuli/subj_files/pilot1_cityB.csv,./stimuli/leipzig.jpg,./stimuli/street_plate2.png,FOLYÓ UTCA,stimuli/scenes/089a.jpg,scene,2,stimuli/objects/114a.jpg,stimuli/objects/008b.jpg,stimuli/objects/114a.jpg,stimuli/objects/008a.jpg,stimuli/objects/114b.jpg,dist2,target,dist1,lure,0,1,1,1,0,13,13,12,,,,,,,,,,,843.3739571175538,None,844.3923481809907,None,844.3923481809907,None,844.3923481809907,None,844.3923481809907,None,847.3952265465632,None,847.3952265465632,None,847.3952265465632,None,847.3952265465632,None,None,None,None,None,None,,,,,,,,,,pilot1,2022_Jun_16_1001,Hippopolis_Updating,2021.1.2,60.00059718860514,
Camponello,stimuli/subj_files/pilot1_cityB.csv,./stimuli/leipzig.jpg,./stimuli/street_plate2.png,KÖMÉNYMAG UTCA,stimuli/scenes/093a.jpg,scene,0,stimuli/scenes/093a.jpg,stimuli/scenes/093b.jpg,stimuli/objects/007b.jpg,stimuli/scenes/093a.jpg,stimuli/objects/007a.jpg,lure,dist2,target,dist1,0,1,1,1,0,14,14,15,,,,,,,,,,,850.3905399884097,None,851.4175394033082,None,851.4175394033082,None,851.4175394033082,None,851.4175394033082,None,854.4115096074529,None,854.4115096074529,None,854.4115096074529,None,854.4115096074529,None,None,None,None,None,None,,,,,,,,,,pilot1,2022_Jun_16_1001,Hippopolis_Updating,2021.1.2,60.00059718860514,
Camponello,stimuli/subj_files/pilot1_cityB.csv,./stimuli/leipzig.jpg,./stimuli/street_plate2.png,KOCSI UTCA,stimuli/scenes/066a.jpg,scene,0,stimuli/scenes/066a.jpg,stimuli/scenes/066a.jpg,stimuli/objects/058b.jpg,stimuli/objects/058a.jpg,stimuli/scenes/066b.jpg,target,dist2,dist1,lure,0,1,1,1,0,15,15,73,,,,,,,,,,,857.3935160106048,None,858.4095623954199,None,858.4095623954199,None,858.4095623954199,None,858.4095623954199,None,861.4096532091498,None,861.4096532091498,None,861.4096532091498,None,861.4096532091498,None,None,None,None,None,None,,,,,,,,,,pilot1,2022_Jun_16_1001,Hippopolis_Updating,2021.1.2,60.00059718860514,
Camponello,stimuli/subj_files/pilot1_cityB.csv,./stimuli/leipzig.jpg,./stimuli/street_plate2.png,HARCSA UTCA,stimuli/objects/020a.jpg,object,0,stimuli/objects/020a.jpg,stimuli/objects/020a.jpg,stimuli/scenes/056a.jpg,stimuli/objects/020b.jpg,stimuli/scenes/056b.jpg,target,dist1,lure,dist2,0,1,1,1,0,16,16,19,,,,,,,,,,,864.4002259774134,None,865.4340970828198,None,865.4340970828198,None,865.4340970828198,None,865.4340970828198,None,868.4223848856054,None,868.4223848856054,None,868.4223848856054,None,868.4223848856054,None,None,None,None,None,None,,,,,,,,,,pilot1,2022_Jun_16_1001,Hippopolis_Updating,2021.1.2,60.00059718860514,
Camponello,stimuli/subj_files/pilot1_cityB.csv,./stimuli/leipzig.jpg,./stimuli/street_plate2.png,CSILLAG UTCA,stimuli/scenes/109a.jpg,scene,1,stimuli/scenes/049a.jpg,stimuli/objects/050a.jpg,stimuli/scenes/049a.jpg,stimuli/scenes/049b.jpg,stimuli/objects/050b.jpg,dist1,target,lure,dist2,0,1,1,1,0,17,17,68,,,,,,,,,,,871.4102655812167,None,872.4368830798194,None,872.4368830798194,None,872.4368830798194,None,872.4368830798194,None,875.4282084843144,None,875.4282084843144,None,875.4282084843144,None,875.4282084843144,None,None,None,None,None,None,,,,,,,,,,pilot1,2022_Jun_16_1001,Hippopolis_Updating,2021.1.2,60.00059718860514,
Camponello,stimuli/subj_files/pilot1_cityB.csv,./stimuli/leipzig.jpg,./stimuli/street_plate2.png,SZÁMOLÓGÉP UTCA,stimuli/objects/051a.jpg,object,0,stimuli/objects/051a.jpg,stimuli/objects/051b.jpg,stimuli/objects/051a.jpg,stimuli/scenes/039b.jpg,stimuli/scenes/039a.jpg,lure,target,dist2,dist1,0,1,1,1,0,18,18,5,,,,,,,,,,,878.4211501898244,None,879.4380764118396,None,879.4380764118396,None,879.4380764118396,None,879.4380764118396,None,882.4447770491242,None,882.4447770491242,None,882.4447770491242,None,882.4447770491242,None,None,None,None,None,None,,,,,,,,,,pilot1,2022_Jun_16_1001,Hippopolis_Updating,2021.1.2,60.00059718860514,
Camponello,stimuli/subj_files/pilot1_cityB.csv,./stimuli/leipzig.jpg,./stimuli/street_plate2.png,ÁLLOMÁS UTCA,stimuli/objects/001a.jpg,object,0,stimuli/objects/001a.jpg,stimuli/objects/001b.jpg,stimuli/objects/001a.jpg,stimuli/objects/107b.jpg,stimuli/objects/107a.jpg,lure,target,dist2,dist1,0,1,1,1,0,19,19,76,,,,,,,,,,,885.4264261052012,None,886.4422939722426,None,886.4422939722426,None,886.4422939722426,None,886.4422939722426,None,889.4467466534115,None,889.4467466534115,None,889.4467466534115,None,889.4467466534115,None,None,None,None,None,None,,,,,,,,,,pilot1,2022_Jun_16_1001,Hippopolis_Updating,2021.1.2,60.00059718860514,
Camponello,stimuli/subj_files/pilot1_cityB.csv,./stimuli/leipzig.jpg,./stimuli/street_plate2.png,KERÉK UTCA,stimuli/objects/085a.jpg,object,2,stimuli/scenes/053a.jpg,stimuli/scenes/052b.jpg,stimuli/scenes/053b.jpg,stimuli/scenes/052a.jpg,stimuli/scenes/053a.jpg,dist2,lure,dist1,target,0,1,1,1,0,20,20,43,,,,,,,,,,,892.4390436424874,None,893.4673853614368,None,893.4673853614368,None,893.4673853614368,None,893.4673853614368,None,896.4591038781218,None,896.4591038781218,None,896.4591038781218,None,896.4591038781218,None,None,None,None,None,None,,,,,,,,,,pilot1,2022_Jun_16_1001,Hippopolis_Updating,2021.1.2,60.00059718860514,
Camponello,stimuli/subj_files/pilot1_cityB.csv,./stimuli/leipzig.jpg,./stimuli/street_plate2.png,FOGAS UTCA,stimuli/objects/094a.jpg,object,1,stimuli/objects/007a.jpg,stimuli/scenes/015a.jpg,stimuli/objects/007b.jpg,stimuli/objects/007a.jpg,stimuli/scenes/015b.jpg,dist1,lure,target,dist2,0,1,1,1,0,21,21,60,,,,,,,,,,,899.4430186175741,None,900.4631099542603,None,900.4631099542603,None,900.4631099542603,None,900.4631099542603,None,903.4846866577864,None,903.4846866577864,None,903.4846866577864,None,903.4846866577864,None,None,None,None,None,None,,,,,,,,,,pilot1,2022_Jun_16_1001,Hippopolis_Updating,2021.1.2,60.00059718860514,
Camponello,stimuli/subj_files/pilot1_cityB.csv,./stimuli/leipzig.jpg,./stimuli/street_plate2.png,KATONA UTCA,stimuli/objects/004a.jpg,object,0,stimuli/objects/004a.jpg,stimuli/objects/004b.jpg,stimuli/scenes/083b.jpg,stimuli/objects/004a.jpg,stimuli/scenes/083a.jpg,lure,dist2,target,dist1,0,1,1,1,0,22,22,32,,,,,,,,,,,906.4686875459738,None,907.5030910945497,None,907.5030910945497,None,907.5030910945497,None,907.5030910945497,None,910.4924089512788,None,910.4924089512788,None,910.4924089512788,None,910.4924089512788,None,None,None,None,None,None,,,,,,,,,,pilot1,2022_Jun_16_1001,Hippopolis_Updating,2021.1.2,60.00059718860514,
Camponello,stimuli/subj_files/pilot1_cityB.csv,./stimuli/leipzig.jpg,./stimuli/street_plate2.png,SÜTŐ UTCA,stimuli/scenes/073a.jpg,scene,0,stimuli/scenes/073a.jpg,stimuli/objects/019a.jpg,stimuli/objects/019b.jpg,stimuli/scenes/073b.jpg,stimuli/scenes/073a.jpg,dist1,dist2,lure,target,0,1,1,1,0,23,23,38,,,,,,,,,,,913.4766891235486,None,914.4985852311365,None,914.4985852311365,None,914.4985852311365,None,914.4985852311365,None,917.4943742020987,None,917.4943742020987,None,917.4943742020987,None,917.4943742020987,None,None,None,None,None,None,,,,,,,,,,pilot1,2022_Jun_16_1001,Hippopolis_Updating,2021.1.2,60.00059718860514,
Camponello,stimuli/subj_files/pilot1_cityB.csv,./stimuli/leipzig.jpg,./stimuli/street_plate2.png,FŰRÉSZ UTCA,stimuli/objects/044a.jpg,object,0,stimuli/objects/044a.jpg,stimuli/scenes/038b.jpg,stimuli/scenes/038a.jpg,stimuli/objects/044a.jpg,stimuli/objects/044b.jpg,dist2,dist1,target,lure,0,1,1,1,0,24,24,42,,,,,,,,,,,920.4923022761941,None,921.5215530674905,None,921.5215530674905,None,921.5215530674905,None,921.5215530674905,None,924.5125540918671,None,924.5125540918671,None,924.5125540918671,None,924.5125540918671,None,None,None,None,None,None,,,,,,,,,,pilot1,2022_Jun_16_1001,Hippopolis_Updating,2021.1.2,60.00059718860514,
Camponello,stimuli/subj_files/pilot1_cityB.csv,./stimuli/leipzig.jpg,./stimuli/street_plate2.png,FEJSZE UTCA,stimuli/objects/079a.jpg,object,2,stimuli/scenes/101a.jpg,stimuli/objects/083b.jpg,stimuli/scenes/101b.jpg,stimuli/scenes/101a.jpg,stimuli/objects/083a.jpg,dist2,lure,target,dist1,0,1,1,1,0,25,25,48,,,,,,,,,,,927.5094188344665,None,928.5405561919324,None,928.5405561919324,None,928.5405561919324,None,928.5405561919324,None,931.5261687161401,None,931.5261687161401,None,931.5261687161401,None,931.5261687161401,None,None,None,None,None,None,,,,,,,,,,pilot1,2022_Jun_16_1001,Hippopolis_Updating,2021.1.2,60.00059718860514,
Camponello,stimuli/subj_files/pilot1_cityB.csv,./stimuli/leipzig.jpg,./stimuli/street_plate2.png,SZŐLŐ UTCA,stimuli/objects/071a.jpg,object,0,stimuli/objects/071a.jpg,stimuli/objects/096b.jpg,stimuli/objects/071b.jpg,stimuli/objects/096a.jpg,stimuli/objects/071a.jpg,dist2,lure,dist1,target,0,1,1,1,0,26,26,9,,,,,,,,,,,934.5131624210626,None,935.5295845014043,None,935.5295845014043,None,935.5295845014043,None,935.5295845014043,None,938.5484087970108,None,938.5484087970108,None,938.5484087970108,None,938.5484087970108,None,None,None,None,None,None,,,,,,,,,,pilot1,2022_Jun_16_1001,Hippopolis_Updating,2021.1.2,60.00059718860514,
Camponello,stimuli/subj_files/pilot1_cityB.csv,./stimuli/leipzig.jpg,./stimuli/street_plate2.png,KÍGYÓ UTCA,stimuli/objects/023a.jpg,object,0,stimuli/objects/023a.jpg,stimuli/scenes/107b.jpg,stimuli/objects/023a.jpg,stimuli/objects/023b.jpg,stimuli/scenes/107a.jpg,dist2,target,lure,dist1,0,1,1,1,0,27,27,45,,,,,,,,,,,941.5362447076477,None,942.559487784747,None,942.559487784747,None,942.559487784747,None,942.559487784747,None,945.5436252048239,None,945.5436252048239,None,945.5436252048239,None,945.5436252048239,None,None,None,None,None,None,,,,,,,,,,pilot1,2022_Jun_16_1001,Hippopolis_Updating,2021.1.2,60.00059718860514,
Camponello,stimuli/subj_files/pilot1_cityB.csv,./stimuli/leipzig.jpg,./stimuli/street_plate2.png,PÁLMAFA UTCA,stimuli/scenes/074a.jpg,scene,2,stimuli/objects/067a.jpg,stimuli/objects/067a.jpg,stimuli/scenes/053a.jpg,stimuli/objects/067b.jpg,stimuli/scenes/053b.jpg,target,dist1,lure,dist2,0,1,1,1,0,28,28,25,,,,,,,,,,,948.5380525891669,None,949.5551010370255,None,949.5551010370255,None,949.5551010370255,None,949.5551010370255,None,952.5669799335301,None,952.5669799335301,None,952.5669799335301,None,952.5669799335301,None,None,None,None,None,None,,,,,,,,,,pilot1,2022_Jun_16_1001,Hippopolis_Updating,2021.1.2,60.00059718860514,
Camponello,stimuli/subj_files/pilot1_cityB.csv,./stimuli/leipzig.jpg,./stimuli/street_plate2.png,BÖGRE UTCA,stimuli/scenes/081a.jpg,scene,1,stimuli/scenes/083a.jpg,stimuli/scenes/040b.jpg,stimuli/scenes/083a.jpg,stimuli/scenes/040a.jpg,stimuli/scenes/083b.jpg,dist2,target,dist1,lure,0,1,1,1,0,29,29,24,,,,,,,,,,,955.553867273964,None,956.5795651259832,None,956.5795651259832,None,956.5795651259832,None,956.5795651259832,None,959.590636338573,None,959.590636338573,None,959.590636338573,None,959.590636338573,None,None,None,None,None,None,,,,,,,,,,pilot1,2022_Jun_16_1001,Hippopolis_Updating,2021.1.2,60.00059718860514,
Camponello,stimuli/subj_files/pilot1_cityB.csv,./stimuli/leipzig.jpg,./stimuli/street_plate2.png,AKÁC UTCA,stimuli/scenes/015a.jpg,scene,0,stimuli/scenes/015a.jpg,stimuli/scenes/015b.jpg,stimuli/objects/075b.jpg,stimuli/scenes/015a.jpg,stimuli/objects/075a.jpg,lure,dist2,target,dist1,0,1,1,1,0,30,30,75,,,,,,,,,,,962.5589099344797,None,963.5791489989497,None,963.5791489989497,None,963.5791489989497,None,963.5791489989497,None,966.5757235726342,None,966.5757235726342,None,966.5757235726342,None,966.5757235726342,None,None,None,None,None,None,,,,,,,,,,pilot1,2022_Jun_16_1001,Hippopolis_Updating,2021.1.2,60.00059718860514,
Camponello,stimuli/subj_files/pilot1_cityB.csv,./stimuli/leipzig.jpg,./stimuli/street_plate2.png,TÁNYÉR UTCA,stimuli/scenes/040a.jpg,scene,0,stimuli/scenes/040a.jpg,stimuli/scenes/040a.jpg,stimuli/objects/044b.jpg,stimuli/scenes/040b.jpg,stimuli/objects/044a.jpg,target,dist2,lure,dist1,0,1,1,1,0,31,31,35,,,,,,,,,,,969.5642041997053,None,970.59846530715,None,970.59846530715,None,970.59846530715,None,970.59846530715,None,973.5881983577274,None,973.5881983577274,None,973.5881983577274,None,973.5881983577274,None,None,None,None,None,None,,,,,,,,,,pilot1,2022_Jun_16_1001,Hippopolis_Updating,2021.1.2,60.00059718860514,
Camponello,stimuli/subj_files/pilot1_cityB.csv,./stimuli/leipzig.jpg,./stimuli/street_plate2.png,ZONGORA UTCA,stimuli/scenes/110a.jpg,scene,2,stimuli/objects/074a.jpg,stimuli/scenes/048a.jpg,stimuli/objects/074a.jpg,stimuli/objects/074b.jpg,stimuli/scenes/048b.jpg,dist1,target,lure,dist2,0,1,1,1,0,32,32,21,,,,,,,,,,,976.5870737577789,None,977.6101977196522,None,977.6101977196522,None,977.6101977196522,None,977.6101977196522,None,980.6131423297338,None,980.6131423297338,None,980.6131423297338,None,980.6131423297338,None,None,None,None,None,None,,,,,,,,,,pilot1,2022_Jun_16_1001,Hippopolis_Updating,2021.1.2,60.00059718860514,
Camponello,stimuli/subj_files/pilot1_cityB.csv,./stimuli/leipzig.jpg,./stimuli/street_plate2.png,LÁMPA UTCA,stimuli/objects/009a.jpg,object,2,stimuli/scenes/039a.jpg,stimuli/objects/005b.jpg,stimuli/scenes/039a.jpg,stimuli/scenes/039b.jpg,stimuli/objects/005a.jpg,dist2,target,lure,dist1,0,1,1,1,0,33,33,55,,,,,,,,,,,983.5836794320494,None,984.6108530103229,None,984.6108530103229,None,984.6108530103229,None,984.6108530103229,None,987.6119412225671,None,987.6119412225671,None,987.6119412225671,None,987.6119412225671,None,None,None,None,None,None,,,,,,,,,,pilot1,2022_Jun_16_1001,Hippopolis_Updating,2021.1.2,60.00059718860514,
Camponello,stimuli/subj_files/pilot1_cityB.csv,./stimuli/leipzig.jpg,./stimuli/street_plate2.png,FÉNYMÁSOLÓ UTCA,stimuli/objects/075a.jpg,object,0,stimuli/objects/075a.jpg,stimuli/objects/075b.jpg,stimuli/objects/029a.jpg,stimuli/objects/075a.jpg,stimuli/objects/029b.jpg,lure,dist1,target,dist2,0,1,1,1,0,34,34,39,,,,,,,,,,,990.5871356483549,None,991.6195963383652,None,991.6195963383652,None,991.6195963383652,None,991.6195963383652,None,994.6107475790195,None,994.6107475790195,None,994.6107475790195,None,994.6107475790195,None,None,None,None,None,None,,,,,,,,,,pilot1,2022_Jun_16_1001,Hippopolis_Updating,2021.1.2,60.00059718860514,
Camponello,stimuli/subj_files/pilot1_cityB.csv,./stimuli/leipzig.jpg,./stimuli/street_plate2.png,MAJOM UTCA,stimuli/objects/048a.jpg,object,1,stimuli/objects/107a.jpg,stimuli/scenes/087a.jpg,stimuli/objects/107b.jpg,stimuli/scenes/087b.jpg,stimuli/objects/107a.jpg,dist1,lure,dist2,target,0,1,1,1,0,35,35,8,,,,,,,,,,,997.5972626446746,None,998.6192822218873,None,998.6192822218873,None,998.6192822218873,None,998.6192822218873,None,1001.6083441204391,None,1001.6083441204391,None,1001.6083441204391,None,1001.6083441204391,None,None,None,None,None,None,,,,,,,,,,pilot1,2022_Jun_16_1001,Hippopolis_Updating,2021.1.2,60.00059718860514,
Camponello,stimuli/subj_files/pilot1_cityB.csv,./stimuli/leipzig.jpg,./stimuli/street_plate2.png,BETON UTCA,stimuli/objects/116a.jpg,object,0,stimuli/objects/116a.jpg,stimuli/objects/116b.jpg,stimuli/objects/116a.jpg,stimuli/objects/001b.jpg,stimuli/objects/001a.jpg,lure,target,dist2,dist1,0,1,1,1,0,36,36,52,,,,,,,,,,,1004.6084131635725,None,1005.6246368223801,None,1005.6246368223801,None,1005.6246368223801,None,1005.6246368223801,None,1008.6409096196294,None,1008.6409096196294,None,1008.6409096196294,None,1008.6409096196294,None,None,None,None,None,None,,,,,,,,,,pilot1,2022_Jun_16_1001,Hippopolis_Updating,2021.1.2,60.00059718860514,
Camponello,stimuli/subj_files/pilot1_cityB.csv,./stimuli/leipzig.jpg,./stimuli/street_plate2.png,REPÜLŐ UTCA,stimuli/scenes/056a.jpg,scene,0,stimuli/scenes/056a.jpg,stimuli/scenes/055b.jpg,stimuli/scenes/056a.jpg,stimuli/scenes/055a.jpg,stimuli/scenes/056b.jpg,dist2,target,dist1,lure,0,1,1,1,0,37,37,22,,,,,,,,,,,1011.6263610427268,None,1012.6601176974364,None,1012.6601176974364,None,1012.6601176974364,None,1012.6601176974364,None,1015.6411239034496,None,1015.6411239034496,None,1015.6411239034496,None,1015.6411239034496,None,None,None,None,None,None,,,,,,,,,,pilot1,2022_Jun_16_1001,Hippopolis_Updating,2021.1.2,60.00059718860514,
Camponello,stimuli/subj_files/pilot1_cityB.csv,./stimuli/leipzig.jpg,./stimuli/street_plate2.png,HAJÓ UTCA,stimuli/objects/078a.jpg,object,1,stimuli/objects/083a.jpg,stimuli/scenes/066b.jpg,stimuli/objects/083a.jpg,stimuli/objects/083b.jpg,stimuli/scenes/066a.jpg,dist2,target,lure,dist1,0,1,1,1,0,38,38,78,,,,,,,,,,,1018.641759600956,None,1019.6579757952131,None,1019.6579757952131,None,1019.6579757952131,None,1019.6579757952131,None,1022.6619190475903,None,1022.6619190475903,None,1022.6619190475903,None,1022.6619190475903,None,None,None,None,None,None,,,,,,,,,,pilot1,2022_Jun_16_1001,Hippopolis_Updating,2021.1.2,60.00059718860514,
Camponello,stimuli/subj_files/pilot1_cityB.csv,./stimuli/leipzig.jpg,./stimuli/street_plate2.png,FÓKA UTCA,stimuli/scenes/034a.jpg,scene,0,stimuli/scenes/034a.jpg,stimuli/scenes/034a.jpg,stimuli/objects/004a.jpg,stimuli/scenes/034b.jpg,stimuli/objects/004b.jpg,target,dist1,lure,dist2,0,1,1,1,0,39,39,70,,,,,,,,,,,1025.663300849963,None,1026.6982010761276,None,1026.6982010761276,None,1026.6982010761276,None,1026.6982010761276,None,1029.6976680108346,None,1029.6976680108346,None,1029.6976680108346,None,1029.6976680108346,None,1032.677776651457,None,space,1032.677776651457,None,6.273216485977173,,,,,,,,,pilot1,2022_Jun_16_1001,Hippopolis_Updating,2021.1.2,60.00059718860514,
Camponello,stimuli/subj_files/pilot1_cityB.csv,./stimuli/leipzig.jpg,./stimuli/street_plate2.png,ZEBRA UTCA,stimuli/objects/036a.jpg,object,1,stimuli/objects/026a.jpg,stimuli/objects/026b.jpg,stimuli/objects/071b.jpg,stimuli/objects/071a.jpg,stimuli/objects/026a.jpg,lure,dist2,dist1,target,0,1,1,1,0,40,40,28,,,,,,,,,,,1038.9856610414572,None,1040.0127248344943,None,1040.0127248344943,None,1040.0127248344943,None,1040.0127248344943,None,1043.011810164433,None,1043.011810164433,None,1043.011810164433,None,1043.011810164433,None,None,None,None,None,None,,,,,,,,,,pilot1,2022_Jun_16_1001,Hippopolis_Updating,2021.1.2,60.00059718860514,
Camponello,stimuli/subj_files/pilot1_cityB.csv,./stimuli/leipzig.jpg,./stimuli/street_plate2.png,HERING UTCA,stimuli/objects/032a.jpg,object,0,stimuli/objects/032a.jpg,stimuli/objects/032a.jpg,stimuli/scenes/082b.jpg,stimuli/scenes/082a.jpg,stimuli/objects/032b.jpg,target,dist2,dist1,lure,0,1,1,1,0,41,41,57,,,,,,,,,,,1046.0074902828783,None,1047.032061980106,None,1047.032061980106,None,1047.032061980106,None,1047.032061980106,None,1050.0282844942994,None,1050.0282844942994,None,1050.0282844942994,None,1050.0282844942994,None,None,None,None,None,None,,,,,,,,,,pilot1,2022_Jun_16_1001,Hippopolis_Updating,2021.1.2,60.00059718860514,
Camponello,stimuli/subj_files/pilot1_cityB.csv,./stimuli/leipzig.jpg,./stimuli/street_plate2.png,CSAVARHÚZÓ UTCA,stimuli/objects/105a.jpg,object,2,stimuli/scenes/102a.jpg,stimuli/scenes/102b.jpg,stimuli/scenes/102a.jpg,stimuli/objects/082b.jpg,stimuli/objects/082a.jpg,lure,target,dist2,dist1,0,1,1,1,0,42,42,10,,,,,,,,,,,1053.0152424331754,None,1054.0395821193233,None,1054.0395821193233,None,1054.0395821193233,None,1054.0395821193233,None,1057.039561281912,None,1057.039561281912,None,1057.039561281912,None,1057.039561281912,None,None,None,None,None,None,,,,,,,,,,pilot1,2022_Jun_16_1001,Hippopolis_Updating,2021.1.2,60.00059718860514,
Camponello,stimuli/subj_files/pilot1_cityB.csv,./stimuli/leipzig.jpg,./stimuli/street_plate2.png,ANANÁSZ UTCA,stimuli/scenes/092a.jpg,scene,1,stimuli/scenes/087a.jpg,stimuli/scenes/087b.jpg,stimuli/scenes/119a.jpg,stimuli/scenes/087a.jpg,stimuli/scenes/119b.jpg,lure,dist1,target,dist2,0,1,1,1,0,43,43,69,,,,,,,,,,,1060.0278948028572,None,1061.057837894652,None,1061.057837894652,None,1061.057837894652,None,1061.057837894652,None,1064.0474132653326,None,1064.0474132653326,None,1064.0474132653326,None,1064.0474132653326,None,None,None,None,None,None,,,,,,,,,,pilot1,2022_Jun_16_1001,Hippopolis_Updating,2021.1.2,60.00059718860514,
Camponello,stimuli/subj_files/pilot1_cityB.csv,./stimuli/leipzig.jpg,./stimuli/street_plate2.png,LÉPCSŐ UTCA,stimuli/objects/003a.jpg,object,0,stimuli/objects/003a.jpg,stimuli/scenes/010a.jpg,stimuli/scenes/010b.jpg,stimuli/objects/003b.jpg,stimuli/objects/003a.jpg,dist1,dist2,lure,target,0,1,1,1,0,44,44,34,,,,,,,,,,,1067.0427204868756,None,1068.0764370216057,None,1068.0764370216057,None,1068.0764370216057,None,1068.0764370216057,None,1071.0699388501234,None,1071.0699388501234,None,1071.0699388501234,None,1071.0699388501234,None,None,None,None,None,None,,,,,,,,,,pilot1,2022_Jun_16_1001,Hippopolis_Updating,2021.1.2,60.00059718860514,
Camponello,stimuli/subj_files/pilot1_cityB.csv,./stimuli/leipzig.jpg,./stimuli/street_plate2.png,LEVÉL UTCA,stimuli/objects/008a.jpg,object,0,stimuli/objects/008a.jpg,stimuli/objects/008b.jpg,stimuli/objects/008a.jpg,stimuli/objects/103a.jpg,stimuli/objects/103b.jpg,lure,target,dist1,dist2,0,1,1,1,0,45,45,41,,,,,,,,,,,1074.0509668262675,None,1075.0806116629392,None,1075.0806116629392,None,1075.0806116629392,None,1075.0806116629392,None,1078.072956547141,None,1078.072956547141,None,1078.072956547141,None,1078.072956547141,None,None,None,None,None,None,,,,,,,,,,pilot1,2022_Jun_16_1001,Hippopolis_Updating,2021.1.2,60.00059718860514,
Camponello,stimuli/subj_files/pilot1_cityB.csv,./stimuli/leipzig.jpg,./stimuli/street_plate2.png,BOLYGÓ UTCA,stimuli/objects/113a.jpg,object,0,stimuli/objects/113a.jpg,stimuli/objects/113a.jpg,stimuli/scenes/112a.jpg,stimuli/objects/113b.jpg,stimuli/scenes/112b.jpg,target,dist1,lure,dist2,0,1,1,1,0,46,46,64,,,,,,,,,,,1081.0575346634723,None,1082.089683725033,None,1082.089683725033,None,1082.089683725033,None,1082.089683725033,None,1085.0739359068684,None,1085.0739359068684,None,1085.0739359068684,None,1085.0739359068684,None,None,None,None,None,None,,,,,,,,,,pilot1,2022_Jun_16_1001,Hippopolis_Updating,2021.1.2,60.00059718860514,
Camponello,stimuli/subj_files/pilot1_cityB.csv,./stimuli/leipzig.jpg,./stimuli/street_plate2.png,HENTES UTCA,stimuli/objects/063a.jpg,object,2,stimuli/scenes/090a.jpg,stimuli/scenes/090a.jpg,stimuli/scenes/019b.jpg,stimuli/scenes/019a.jpg,stimuli/scenes/090b.jpg,target,dist2,dist1,lure,0,1,1,1,0,47,47,56,,,,,,,,,,,1088.0609588460065,None,1089.077869829256,None,1089.077869829256,None,1089.077869829256,None,1089.077869829256,None,1092.0894333650358,None,1092.0894333650358,None,1092.0894333650358,None,1092.0894333650358,None,None,None,None,None,None,,,,,,,,,,pilot1,2022_Jun_16_1001,Hippopolis_Updating,2021.1.2,60.00059718860514,
Camponello,stimuli/subj_files/pilot1_cityB.csv,./stimuli/leipzig.jpg,./stimuli/street_plate2.png,KESZTYŰ UTCA,stimuli/objects/082a.jpg,object,0,stimuli/objects/082a.jpg,stimuli/scenes/078a.jpg,stimuli/objects/082b.jpg,stimuli/scenes/078b.jpg,stimuli/objects/082a.jpg,dist1,lure,dist2,target,0,1,1,1,0,48,48,16,,,,,,,,,,,1095.0740618645214,None,1096.0935290106572,None,1096.0935290106572,None,1096.0935290106572,None,1096.0935290106572,None,1099.0978967868723,None,1099.0978967868723,None,1099.0978967868723,None,1099.0978967868723,None,None,None,None,None,None,,,,,,,,,,pilot1,2022_Jun_16_1001,Hippopolis_Updating,2021.1.2,60.00059718860514,
Camponello,stimuli/subj_files/pilot1_cityB.csv,./stimuli/leipzig.jpg,./stimuli/street_plate2.png,SZALVÉTA UTCA,stimuli/scenes/098a.jpg,scene,2,stimuli/objects/043a.jpg,stimuli/objects/003a.jpg,stimuli/objects/043b.jpg,stimuli/objects/043a.jpg,stimuli/objects/003b.jpg,dist1,lure,target,dist2,0,1,1,1,0,49,49,23,,,,,,,,,,,1102.0816749944352,None,1103.1114899520762,None,1103.1114899520762,None,1103.1114899520762,None,1103.1114899520762,None,1106.1061319303699,None,1106.1061319303699,None,1106.1061319303699,None,1106.1061319303699,None,None,None,None,None,None,,,,,,,,,,pilot1,2022_Jun_16_1001,Hippopolis_Updating,2021.1.2,60.00059718860514,
Camponello,stimuli/subj_files/pilot1_cityB.csv,./stimuli/leipzig.jpg,./stimuli/street_plate2.png,ÜVEG UTCA,stimuli/objects/103a.jpg,object,0,stimuli/objects/103a.jpg,stimuli/objects/103b.jpg,stimuli/objects/103a.jpg,stimuli/scenes/025a.jpg,stimuli/scenes/025b.jpg,lure,target,dist1,dist2,0,1,1,1,0,50,50,79,,,,,,,,,,,1109.1054054191336,None,1110.1248069428839,None,1110.1248069428839,None,1110.1248069428839,None,1110.1248069428839,None,1113.1226781029254,None,1113.1226781029254,None,1113.1226781029254,None,1113.1226781029254,None,None,None,None,None,None,,,,,,,,,,pilot1,2022_Jun_16_1001,Hippopolis_Updating,2021.1.2,60.00059718860514,
Camponello,stimuli/subj_files/pilot1_cityB.csv,./stimuli/leipzig.jpg,./stimuli/street_plate2.png,SUGÁR UTCA,stimuli/objects/098a.jpg,object,1,stimuli/objects/019a.jpg,stimuli/objects/019b.jpg,stimuli/scenes/042a.jpg,stimuli/scenes/042b.jpg,stimuli/objects/019a.jpg,lure,dist1,dist2,target,0,1,1,1,0,51,51,3,,,,,,,,,,,1116.1109590637498,None,1117.1419881908223,None,1117.1419881908223,None,1117.1419881908223,None,1117.1419881908223,None,1120.1407037335448,None,1120.1407037335448,None,1120.1407037335448,None,1120.1407037335448,None,None,None,None,None,None,,,,,,,,,,pilot1,2022_Jun_16_1001,Hippopolis_Updating,2021.1.2,60.00059718860514,
Camponello,stimuli/subj_files/pilot1_cityB.csv,./stimuli/leipzig.jpg,./stimuli/street_plate2.png,CUKOR UTCA,stimuli/scenes/065a.jpg,scene,0,stimuli/scenes/065a.jpg,stimuli/objects/052b.jpg,stimuli/scenes/065a.jpg,stimuli/objects/052a.jpg,stimuli/scenes/065b.jpg,dist2,target,dist1,lure,0,1,1,1,0,52,52,49,,,,,,,,,,,1123.1313023152761,None,1124.1641225293279,None,1124.1641225293279,None,1124.1641225293279,None,1124.1641225293279,None,1127.1681485096924,None,1127.1681485096924,None,1127.1681485096924,None,1127.1681485096924,None,None,None,None,None,None,,,,,,,,,,pilot1,2022_Jun_16_1001,Hippopolis_Updating,2021.1.2,60.00059718860514,
Camponello,stimuli/subj_files/pilot1_cityB.csv,./stimuli/leipzig.jpg,./stimuli/street_plate2.png,ELEFÁNT UTCA,stimuli/scenes/099a.jpg,scene,0,stimuli/scenes/099a.jpg,stimuli/scenes/099b.jpg,stimuli/scenes/099a.jpg,stimuli/objects/116b.jpg,stimuli/objects/116a.jpg,lure,target,dist2,dist1,0,1,1,1,0,53,53,51,,,,,,,,,,,1130.1403939709999,None,1131.172354251612,None,1131.172354251612,None,1131.172354251612,None,1131.172354251612,None,1134.1604252830148,None,1134.1604252830148,None,1134.1604252830148,None,1134.1604252830148,None,None,None,None,None,None,,,,,,,,,,pilot1,2022_Jun_16_1001,Hippopolis_Updating,2021.1.2,60.00059718860514,
Camponello,stimuli/subj_files/pilot1_cityB.csv,./stimuli/leipzig.jpg,./stimuli/street_plate2.png,PULYKA UTCA,stimuli/scenes/009a.jpg,scene,2,stimuli/objects/081a.jpg,stimuli/objects/081a.jpg,stimuli/objects/043b.jpg,stimuli/objects/043a.jpg,stimuli/objects/081b.jpg,target,dist2,dist1,lure,0,1,1,1,0,54,54,50,,,,,,,,,,,1137.143682865426,None,1138.1648017675616,None,1138.1648017675616,None,1138.1648017675616,None,1138.1648017675616,None,1141.1674462566152,None,1141.1674462566152,None,1141.1674462566152,None,1141.1674462566152,None,None,None,None,None,None,,,,,,,,,,pilot1,2022_Jun_16_1001,Hippopolis_Updating,2021.1.2,60.00059718860514,
Camponello,stimuli/subj_files/pilot1_cityB.csv,./stimuli/leipzig.jpg,./stimuli/street_plate2.png,SZAXOFON UTCA,stimuli/scenes/107a.jpg,scene,0,stimuli/scenes/107a.jpg,stimuli/scenes/063a.jpg,stimuli/scenes/063b.jpg,stimuli/scenes/107b.jpg,stimuli/scenes/107a.jpg,dist1,dist2,lure,target,0,1,1,1,0,55,55,37,,,,,,,,,,,1144.1676645833068,None,1145.2020152607001,None,1145.2020152607001,None,1145.2020152607001,None,1145.2020152607001,None,1148.1904302653857,None,1148.1904302653857,None,1148.1904302653857,None,1148.1904302653857,None,None,None,None,None,None,,,,,,,,,,pilot1,2022_Jun_16_1001,Hippopolis_Updating,2021.1.2,60.00059718860514,
Camponello,stimuli/subj_files/pilot1_cityB.csv,./stimuli/leipzig.jpg,./stimuli/street_plate2.png,KÓKUSZ UTCA,stimuli/objects/091a.jpg,object,2,stimuli/scenes/078a.jpg,stimuli/objects/032b.jpg,stimuli/scenes/078a.jpg,stimuli/scenes/078b.jpg,stimuli/objects/032a.jpg,dist2,target,lure,dist1,0,1,1,1,0,56,56,13,,,,,,,,,,,1151.1735687325709,None,1152.1915856548585,None,1152.1915856548585,None,1152.1915856548585,None,1152.1915856548585,None,1155.1927768099122,None,1155.1927768099122,None,1155.1927768099122,None,1155.1927768099122,None,None,None,None,None,None,,,,,,,,,,pilot1,2022_Jun_16_1001,Hippopolis_Updating,2021.1.2,60.00059718860514,
Camponello,stimuli/subj_files/pilot1_cityB.csv,./stimuli/leipzig.jpg,./stimuli/street_plate2.png,PISZTRÁNG UTCA,stimuli/scenes/025a.jpg,scene,0,stimuli/scenes/025a.jpg,stimuli/scenes/025a.jpg,stimuli/scenes/095b.jpg,stimuli/scenes/025b.jpg,stimuli/scenes/095a.jpg,target,dist2,lure,dist1,0,1,1,1,0,57,57,27,,,,,,,,,,,1158.19781884877,None,1159.220954939723,None,1159.220954939723,None,1159.220954939723,None,1159.220954939723,None,1162.2392374617048,None,1162.2392374617048,None,1162.2392374617048,None,1162.2392374617048,None,None,None,None,None,None,,,,,,,,,,pilot1,2022_Jun_16_1001,Hippopolis_Updating,2021.1.2,60.00059718860514,
Camponello,stimuli/subj_files/pilot1_cityB.csv,./stimuli/leipzig.jpg,./stimuli/street_plate2.png,SZÚNYOG UTCA,stimuli/objects/084a.jpg,object,0,stimuli/objects/084a.jpg,stimuli/objects/084b.jpg,stimuli/objects/023b.jpg,stimuli/objects/084a.jpg,stimuli/objects/023a.jpg,lure,dist2,target,dist1,0,1,1,1,0,58,58,63,,,,,,,,,,,1165.2065960764885,None,1166.2387382960878,None,1166.2387382960878,None,1166.2387382960878,None,1166.2387382960878,None,1169.2259596576914,None,1169.2259596576914,None,1169.2259596576914,None,1169.2259596576914,None,None,None,None,None,None,,,,,,,,,,pilot1,2022_Jun_16_1001,Hippopolis_Updating,2021.1.2,60.00059718860514,
Camponello,stimuli/subj_files/pilot1_cityB.csv,./stimuli/leipzig.jpg,./stimuli/street_plate2.png,PELIKÁN UTCA,stimuli/objects/058a.jpg,object,0,stimuli/objects/058a.jpg,stimuli/objects/112b.jpg,stimuli/objects/112a.jpg,stimuli/objects/058a.jpg,stimuli/objects/058b.jpg,dist2,dist1,target,lure,0,1,1,1,0,59,59,65,,,,,,,,,,,1172.222081716638,None,1173.2431906666607,None,1173.2431906666607,None,1173.2431906666607,None,1173.2431906666607,None,1176.239597607404,None,1176.239597607404,None,1176.239597607404,None,1176.239597607404,None,None,None,None,None,None,,,,,,,,,,pilot1,2022_Jun_16_1001,Hippopolis_Updating,2021.1.2,60.00059718860514,
Camponello,stimuli/subj_files/pilot1_cityB.csv,./stimuli/leipzig.jpg,./stimuli/street_plate2.png,HEGESZTŐ UTCA,stimuli/objects/052a.jpg,object,0,stimuli/objects/052a.jpg,stimuli/objects/052a.jpg,stimuli/objects/067a.jpg,stimuli/objects/067b.jpg,stimuli/objects/052b.jpg,target,dist1,dist2,lure,0,1,1,1,0,60,60,66,,,,,,,,,,,1179.2232675845735,None,1180.2392051173374,None,1180.2392051173374,None,1180.2392051173374,None,1180.2392051173374,None,1183.2431182018481,None,1183.2431182018481,None,1183.2431182018481,None,1183.2431182018481,None,None,None,None,None,None,,,,,,,,,,pilot1,2022_Jun_16_1001,Hippopolis_Updating,2021.1.2,60.00059718860514,
Camponello,stimuli/subj_files/pilot1_cityB.csv,./stimuli/leipzig.jpg,./stimuli/street_plate2.png,SZOMSZÉD UTCA,stimuli/scenes/038a.jpg,scene,0,stimuli/scenes/038a.jpg,stimuli/scenes/038b.jpg,stimuli/scenes/016b.jpg,stimuli/scenes/038a.jpg,stimuli/scenes/016a.jpg,lure,dist2,target,dist1,0,1,1,1,0,61,61,1,,,,,,,,,,,1186.2393211224116,None,1187.2793178134598,None,1187.2793178134598,None,1187.2793178134598,None,1187.2793178134598,None,1190.2557074376382,None,1190.2557074376382,None,1190.2557074376382,None,1190.2557074376382,None,None,None,None,None,None,,,,,,,,,,pilot1,2022_Jun_16_1001,Hippopolis_Updating,2021.1.2,60.00059718860514,
Camponello,stimuli/subj_files/pilot1_cityB.csv,./stimuli/leipzig.jpg,./stimuli/street_plate2.png,MÁRVÁNY UTCA,stimuli/scenes/036a.jpg,scene,2,stimuli/objects/029a.jpg,stimuli/objects/029a.jpg,stimuli/objects/108b.jpg,stimuli/objects/108a.jpg,stimuli/objects/029b.jpg,target,dist2,dist1,lure,0,1,1,1,0,62,62,71,,,,,,,,,,,1193.2473534895107,None,1194.2809888520278,None,1194.2809888520278,None,1194.2809888520278,None,1194.2809888520278,None,1197.2979635912925,None,1197.2979635912925,None,1197.2979635912925,None,1197.2979635912925,None,None,None,None,None,None,,,,,,,,,,pilot1,2022_Jun_16_1001,Hippopolis_Updating,2021.1.2,60.00059718860514,
Camponello,stimuli/subj_files/pilot1_cityB.csv,./stimuli/leipzig.jpg,./stimuli/street_plate2.png,SZEKRÉNY UTCA,stimuli/objects/112a.jpg,object,0,stimuli/objects/112a.jpg,stimuli/objects/112a.jpg,stimuli/objects/020a.jpg,stimuli/objects/020b.jpg,stimuli/objects/112b.jpg,target,dist1,dist2,lure,0,1,1,1,0,63,63,33,,,,,,,,,,,1200.2601112909615,None,1201.285383374896,None,1201.285383374896,None,1201.285383374896,None,1201.285383374896,None,1204.2885021488182,None,1204.2885021488182,None,1204.2885021488182,None,1204.2885021488182,None,None,None,None,None,None,,,,,,,,,,pilot1,2022_Jun_16_1001,Hippopolis_Updating,2021.1.2,60.00059718860514,
Camponello,stimuli/subj_files/pilot1_cityB.csv,./stimuli/leipzig.jpg,./stimuli/street_plate2.png,SALÁTA UTCA,stimuli/objects/108a.jpg,object,0,stimuli/objects/108a.jpg,stimuli/objects/108b.jpg,stimuli/objects/026b.jpg,stimuli/objects/108a.jpg,stimuli/objects/026a.jpg,lure,dist2,target,dist1,0,1,1,1,0,64,64,30,,,,,,,,,,,1207.2730479207821,None,1208.2908474495634,None,1208.2908474495634,None,1208.2908474495634,None,1208.2908474495634,None,1211.2905028541572,None,1211.2905028541572,None,1211.2905028541572,None,1211.2905028541572,None,None,None,None,None,None,,,,,,,,,,pilot1,2022_Jun_16_1001,Hippopolis_Updating,2021.1.2,60.00059718860514,
Camponello,stimuli/subj_files/pilot1_cityB.csv,./stimuli/leipzig.jpg,./stimuli/street_plate2.png,TERASZ UTCA,stimuli/objects/050a.jpg,object,0,stimuli/objects/050a.jpg,stimuli/scenes/049a.jpg,stimuli/objects/050a.jpg,stimuli/objects/050b.jpg,stimuli/scenes/049b.jpg,dist1,target,lure,dist2,0,1,1,1,0,65,65,62,,,,,,,,,,,1214.2822422082536,None,1215.3036774042994,None,1215.3036774042994,None,1215.3036774042994,None,1215.3036774042994,None,1218.3081058268435,None,1218.3081058268435,None,1218.3081058268435,None,1218.3081058268435,None,None,None,None,None,None,,,,,,,,,,pilot1,2022_Jun_16_1001,Hippopolis_Updating,2021.1.2,60.00059718860514,
Camponello,stimuli/subj_files/pilot1_cityB.csv,./stimuli/leipzig.jpg,./stimuli/street_plate2.png,SAPKA UTCA,stimuli/objects/092a.jpg,object,0,stimuli/objects/092a.jpg,stimuli/scenes/093a.jpg,stimuli/scenes/093b.jpg,stimuli/objects/092a.jpg,stimuli/objects/092b.jpg,dist1,dist2,target,lure,0,1,1,1,0,66,66,53,,,,,,,,,,,1221.3058348568156,None,1222.3260002131574,None,1222.3260002131574,None,1222.3260002131574,None,1222.3260002131574,None,1225.3408299400471,None,1225.3408299400471,None,1225.3408299400471,None,1225.3408299400471,None,None,None,None,None,None,,,,,,,,,,pilot1,2022_Jun_16_1001,Hippopolis_Updating,2021.1.2,60.00059718860514,
Camponello,stimuli/subj_files/pilot1_cityB.csv,./stimuli/leipzig.jpg,./stimuli/street_plate2.png,PULÓVER UTCA,stimuli/scenes/091a.jpg,scene,1,stimuli/scenes/042a.jpg,stimuli/scenes/099b.jpg,stimuli/scenes/099a.jpg,stimuli/scenes/042a.jpg,stimuli/scenes/042b.jpg,dist2,dist1,target,lure,0,1,1,1,0,67,67,7,,,,,,,,,,,1228.3094695908949,None,1229.332413168624,None,1229.332413168624,None,1229.332413168624,None,1229.332413168624,None,1232.3509581806138,None,1232.3509581806138,None,1232.3509581806138,None,1232.3509581806138,None,None,None,None,None,None,,,,,,,,,,pilot1,2022_Jun_16_1001,Hippopolis_Updating,2021.1.2,60.00059718860514,
Camponello,stimuli/subj_files/pilot1_cityB.csv,./stimuli/leipzig.jpg,./stimuli/street_plate2.png,MOCSÁR UTCA,stimuli/objects/031a.jpg,object,0,stimuli/objects/031a.jpg,stimuli/scenes/013a.jpg,stimuli/scenes/013b.jpg,stimuli/objects/031a.jpg,stimuli/objects/031b.jpg,dist1,dist2,target,lure,0,1,1,1,0,68,68,58,,,,,,,,,,,1235.3225337336771,None,1236.354836743325,None,1236.354836743325,None,1236.354836743325,None,1236.354836743325,None,1239.342415140476,None,1239.342415140476,None,1239.342415140476,None,1239.342415140476,None,None,None,None,None,None,,,,,,,,,,pilot1,2022_Jun_16_1001,Hippopolis_Updating,2021.1.2,60.00059718860514,
Camponello,stimuli/subj_files/pilot1_cityB.csv,./stimuli/leipzig.jpg,./stimuli/street_plate2.png,MEDVE UTCA,stimuli/scenes/063a.jpg,scene,0,stimuli/scenes/063a.jpg,stimuli/scenes/063b.jpg,stimuli/scenes/063a.jpg,stimuli/scenes/101b.jpg,stimuli/scenes/101a.jpg,lure,target,dist2,dist1,0,1,1,1,0,69,69,74,,,,,,,,,,,1242.325958848931,None,1243.3488573310897,None,1243.3488573310897,None,1243.3488573310897,None,1243.3488573310897,None,1246.3638761499897,None,1246.3638761499897,None,1246.3638761499897,None,1246.3638761499897,None,None,None,None,None,None,,,,,,,,,,pilot1,2022_Jun_16_1001,Hippopolis_Updating,2021.1.2,60.00059718860514,
Camponello,stimuli/subj_files/pilot1_cityB.csv,./stimuli/leipzig.jpg,./stimuli/street_plate2.png,KÖRTE UTCA,stimuli/scenes/050a.jpg,scene,1,stimuli/scenes/019a.jpg,stimuli/scenes/019a.jpg,stimuli/objects/114b.jpg,stimuli/scenes/019b.jpg,stimuli/objects/114a.jpg,target,dist2,lure,dist1,0,1,1,1,0,70,70,20,,,,,,,,,,,1249.352444480639,None,1250.3829937246628,None,1250.3829937246628,None,1250.3829937246628,None,1250.3829937246628,None,1253.3756166487,None,1253.3756166487,None,1253.3756166487,None,1253.3756166487,None,None,None,None,None,None,,,,,,,,,,pilot1,2022_Jun_16_1001,Hippopolis_Updating,2021.1.2,60.00059718860514,
Camponello,stimuli/subj_files/pilot1_cityB.csv,./stimuli/leipzig.jpg,./stimuli/street_plate2.png,KAKAÓ UTCA,stimuli/scenes/016a.jpg,scene,0,stimuli/scenes/016a.jpg,stimuli/scenes/075b.jpg,stimuli/scenes/075a.jpg,stimuli/scenes/016a.jpg,stimuli/scenes/016b.jpg,dist2,dist1,target,lure,0,1,1,1,0,71,71,18,,,,,,,,,,,1256.358453439083,None,1257.3751613348722,None,1257.3751613348722,None,1257.3751613348722,None,1257.3751613348722,None,1260.3932625399902,None,1260.3932625399902,None,1260.3932625399902,None,1260.3932625399902,None,None,None,None,None,None,,,,,,,,,,pilot1,2022_Jun_16_1001,Hippopolis_Updating,2021.1.2,60.00059718860514,
Camponello,stimuli/subj_files/pilot1_cityB.csv,./stimuli/leipzig.jpg,./stimuli/street_plate2.png,KÁRÁSZ UTCA,stimuli/objects/005a.jpg,object,0,stimuli/objects/005a.jpg,stimuli/objects/087a.jpg,stimuli/objects/087b.jpg,stimuli/objects/005a.jpg,stimuli/objects/005b.jpg,dist1,dist2,target,lure,0,1,1,1,0,72,72,47,,,,,,,,,,,1263.3720008861274,None,1264.3962426050566,None,1264.3962426050566,None,1264.3962426050566,None,1264.3962426050566,None,1267.3983198180795,None,1267.3983198180795,None,1267.3983198180795,None,1267.3983198180795,None,None,None,None,None,None,,,,,,,,,,pilot1,2022_Jun_16_1001,Hippopolis_Updating,2021.1.2,60.00059718860514,
Camponello,stimuli/subj_files/pilot1_cityB.csv,./stimuli/leipzig.jpg,./stimuli/street_plate2.png,LIGET UTCA,stimuli/scenes/095a.jpg,scene,0,stimuli/scenes/095a.jpg,stimuli/scenes/115b.jpg,stimuli/scenes/115a.jpg,stimuli/scenes/095b.jpg,stimuli/scenes/095a.jpg,dist2,dist1,lure,target,0,1,1,1,0,73,73,54,,,,,,,,,,,1270.3873294675723,None,1271.4777142014354,None,1271.4777142014354,None,1271.4777142014354,None,1271.4777142014354,None,1274.4154995111749,None,1274.4154995111749,None,1274.4154995111749,None,1274.4154995111749,None,None,None,None,None,None,,,,,,,,,,pilot1,2022_Jun_16_1001,Hippopolis_Updating,2021.1.2,60.00059718860514,
