CityName,StimuliFile,CityImage,StreetSign,Cue,Image,Category,Novelty,UpdateImage,TestImage1,TestImage2,TestImage3,TestImage4,TestImage1Type,TestImage2Type,TestImage3Type,TestImage4Type,CityBlock.thisRepN,CityBlock.thisTrialN,CityBlock.thisN,CityBlock.thisIndex,LearningTrials.thisRepN,LearningTrials.thisTrialN,LearningTrials.thisN,LearningTrials.thisIndex,trials.thisRepN,trials.thisTrialN,trials.thisN,trials.thisIndex,cityname_text.started,cityname_text.stopped,city_image.started,city_image.stopped,plate.started,plate.stopped,city_text.started,city_text.stopped,street_text.started,street_text.stopped,learning_image.started,learning_image.stopped,fx_cross.started,fx_cross.stopped,test_text.started,test_text.stopped,key_resp.keys,key_resp.rt,key_resp.started,key_resp.stopped,plate_test.started,plate_test.stopped,city_text_test.started,city_text_test.stopped,street_text_test.started,street_text_test.stopped,test_question.started,test_question.stopped,test_key_resp.keys,test_key_resp.rt,test_key_resp.started,test_key_resp.stopped,button_image.started,button_image.stopped,plate_verbal.started,plate_verbal.stopped,street_text_verbal.started,street_text_verbal.stopped,city_text_verbal.started,city_text_verbal.stopped,question_verbal.started,question_verbal.stopped,verbal_test_key_resp.keys,verbal_test_key_resp.started,verbal_test_key_resp.stopped,verbal_test_key_resp.rt,break_text.started,break_text.stopped,break_key_resp.keys,break_key_resp.rt,break_key_resp.started,break_key_resp.stopped,participant,date,expName,psychopyVersion,frameRate,
Camponello,stimuli/subj_files/pilot_cityB.csv,./stimuli/leipzig.jpg,./stimuli/street_plate2.png,TELEFON,stimuli/objects/044a.jpg,object,0,stimuli/objects/044a.jpg,stimuli/scenes/039a.jpg,stimuli/objects/044a.jpg,stimuli/scenes/039b.jpg,stimuli/objects/044b.jpg,dist1,target,dist2,lure,0,0,0,0,0,0,0,35,,,,,14.082878590095788,None,14.082878590095788,None,17.1199036128819,None,17.1199036128819,None,17.1199036128819,None,17.1199036128819,None,20.036697844043374,None,,,,,,,,,,,,,,,,,,,,,,,,,,,,,,,,,,,,,,,pilot,2022_Jun_14_1511,Hippopolis_Learning,2021.1.2,59.529814339496184,
Camponello,stimuli/subj_files/pilot_cityB.csv,./stimuli/leipzig.jpg,./stimuli/street_plate2.png,KÍGYÓ,stimuli/scenes/006a.jpg,scene,0,stimuli/scenes/006a.jpg,stimuli/scenes/006b.jpg,stimuli/scenes/006a.jpg,stimuli/objects/099b.jpg,stimuli/objects/099a.jpg,lure,target,dist2,dist1,0,0,0,0,0,1,1,6,,,,,,,,,21.0869552642107,None,21.0869552642107,None,21.0869552642107,None,21.0869552642107,None,24.039197403937578,None,,,,,,,,,,,,,,,,,,,,,,,,,,,,,,,,,,,,,,,pilot,2022_Jun_14_1511,Hippopolis_Learning,2021.1.2,59.529814339496184,
Camponello,stimuli/subj_files/pilot_cityB.csv,./stimuli/leipzig.jpg,./stimuli/street_plate2.png,ORVOS,stimuli/objects/006a.jpg,object,2,stimuli/scenes/019a.jpg,stimuli/scenes/019b.jpg,stimuli/objects/061b.jpg,stimuli/objects/061a.jpg,stimuli/scenes/019a.jpg,lure,dist2,dist1,target,0,0,0,0,0,2,2,33,,,,,,,,,25.07364698126912,None,25.07364698126912,None,25.07364698126912,None,25.07364698126912,None,28.036022959742695,None,,,,,,,,,,,,,,,,,,,,,,,,,,,,,,,,,,,,,,,pilot,2022_Jun_14_1511,Hippopolis_Learning,2021.1.2,59.529814339496184,
Camponello,stimuli/subj_files/pilot_cityB.csv,./stimuli/leipzig.jpg,./stimuli/street_plate2.png,SZEKRÉNY,stimuli/objects/012a.jpg,object,0,stimuli/objects/012a.jpg,stimuli/objects/012a.jpg,stimuli/scenes/048a.jpg,stimuli/scenes/048b.jpg,stimuli/objects/012b.jpg,target,dist1,dist2,lure,0,0,0,0,0,3,3,53,,,,,,,,,29.070569571107626,None,29.070569571107626,None,29.070569571107626,None,29.070569571107626,None,32.03851256752387,None,,,,,,,,,,,,,,,,,,,,,,,,,,,,,,,,,,,,,,,pilot,2022_Jun_14_1511,Hippopolis_Learning,2021.1.2,59.529814339496184,
Camponello,stimuli/subj_files/pilot_cityB.csv,./stimuli/leipzig.jpg,./stimuli/street_plate2.png,TISZTÁS,stimuli/objects/053a.jpg,object,1,stimuli/objects/025a.jpg,stimuli/scenes/025b.jpg,stimuli/objects/025b.jpg,stimuli/scenes/025a.jpg,stimuli/objects/025a.jpg,dist2,lure,dist1,target,0,0,0,0,0,4,4,11,,,,,,,,,33.07417911384255,None,33.07417911384255,None,33.07417911384255,None,33.07417911384255,None,36.028588036540896,None,,,,,,,,,,,,,,,,,,,,,,,,,,,,,,,,,,,,,,,pilot,2022_Jun_14_1511,Hippopolis_Learning,2021.1.2,59.529814339496184,
Camponello,stimuli/subj_files/pilot_cityB.csv,./stimuli/leipzig.jpg,./stimuli/street_plate2.png,KABÁT,stimuli/objects/016a.jpg,object,0,stimuli/objects/016a.jpg,stimuli/objects/016a.jpg,stimuli/objects/016b.jpg,stimuli/scenes/029b.jpg,stimuli/scenes/029a.jpg,target,lure,dist2,dist1,0,0,0,0,0,5,5,28,,,,,,,,,37.060188482515514,None,37.060188482515514,None,37.060188482515514,None,37.060188482515514,None,40.03605841472745,None,,,,,,,,,,,,,,,,,,,,,,,,,,,,,,,,,,,,,,,pilot,2022_Jun_14_1511,Hippopolis_Learning,2021.1.2,59.529814339496184,
Camponello,stimuli/subj_files/pilot_cityB.csv,./stimuli/leipzig.jpg,./stimuli/street_plate2.png,TENISZ,stimuli/scenes/041a.jpg,scene,0,stimuli/scenes/041a.jpg,stimuli/scenes/037a.jpg,stimuli/scenes/037b.jpg,stimuli/scenes/041b.jpg,stimuli/scenes/041a.jpg,dist1,dist2,lure,target,0,0,0,0,0,6,6,10,,,,,,,,,41.08056998811662,None,41.08056998811662,None,41.08056998811662,None,41.08056998811662,None,44.03603197913617,None,,,,,,,,,,,,,,,,,,,,,,,,,,,,,,,,,,,,,,,pilot,2022_Jun_14_1511,Hippopolis_Learning,2021.1.2,59.529814339496184,
Camponello,stimuli/subj_files/pilot_cityB.csv,./stimuli/leipzig.jpg,./stimuli/street_plate2.png,TRIATLON,stimuli/objects/039a.jpg,object,2,stimuli/scenes/045a.jpg,stimuli/scenes/006b.jpg,stimuli/scenes/045b.jpg,stimuli/scenes/045a.jpg,stimuli/scenes/006a.jpg,dist2,lure,target,dist1,0,0,0,0,0,7,7,43,,,,,,,,,45.10023897746578,None,45.10023897746578,None,45.10023897746578,None,45.10023897746578,None,48.03737179515883,None,,,,,,,,,,,,,,,,,,,,,,,,,,,,,,,,,,,,,,,pilot,2022_Jun_14_1511,Hippopolis_Learning,2021.1.2,59.529814339496184,
Camponello,stimuli/subj_files/pilot_cityB.csv,./stimuli/leipzig.jpg,./stimuli/street_plate2.png,TOLMÁCS,stimuli/scenes/025a.jpg,scene,0,stimuli/scenes/025a.jpg,stimuli/scenes/025a.jpg,stimuli/scenes/025b.jpg,stimuli/objects/021a.jpg,stimuli/objects/021b.jpg,target,lure,dist1,dist2,0,0,0,0,0,8,8,8,,,,,,,,,49.06012970209122,None,49.06012970209122,None,49.06012970209122,None,49.06012970209122,None,52.03775837644935,None,,,,,,,,,,,,,,,,,,,,,,,,,,,,,,,,,,,,,,,pilot,2022_Jun_14_1511,Hippopolis_Learning,2021.1.2,59.529814339496184,
Camponello,stimuli/subj_files/pilot_cityB.csv,./stimuli/leipzig.jpg,./stimuli/street_plate2.png,KARTON,stimuli/objects/047a.jpg,object,0,stimuli/objects/047a.jpg,stimuli/objects/047a.jpg,stimuli/objects/004b.jpg,stimuli/objects/047b.jpg,stimuli/objects/004a.jpg,target,dist2,lure,dist1,0,0,0,0,0,9,9,44,,,,,,,,,53.06190865999088,None,53.06190865999088,None,53.06190865999088,None,53.06190865999088,None,56.03176838951185,None,,,,,,,,,,,,,,,,,,,,,,,,,,,,,,,,,,,,,,,pilot,2022_Jun_14_1511,Hippopolis_Learning,2021.1.2,59.529814339496184,
Camponello,stimuli/subj_files/pilot_cityB.csv,./stimuli/leipzig.jpg,./stimuli/street_plate2.png,SZÚNYOG,stimuli/scenes/051a.jpg,scene,1,stimuli/scenes/005a.jpg,stimuli/objects/071b.jpg,stimuli/scenes/005a.jpg,stimuli/scenes/005b.jpg,stimuli/objects/071a.jpg,dist2,target,lure,dist1,0,0,0,0,0,10,10,25,,,,,,,,,57.06253627128899,None,57.06253627128899,None,57.06253627128899,None,57.06253627128899,None,60.036481072660536,None,,,,,,,,,,,,,,,,,,,,,,,,,,,,,,,,,,,,,,,pilot,2022_Jun_14_1511,Hippopolis_Learning,2021.1.2,59.529814339496184,
Camponello,stimuli/subj_files/pilot_cityB.csv,./stimuli/leipzig.jpg,./stimuli/street_plate2.png,PAPRIKA,stimuli/scenes/007a.jpg,scene,0,stimuli/scenes/007a.jpg,stimuli/scenes/007a.jpg,stimuli/objects/084b.jpg,stimuli/scenes/007b.jpg,stimuli/objects/084a.jpg,target,dist2,lure,dist1,0,0,0,0,0,11,11,52,,,,,,,,,61.06322141876444,None,61.06322141876444,None,61.06322141876444,None,61.06322141876444,None,64.0358279584907,None,,,,,,,,,,,,,,,,,,,,,,,,,,,,,,,,,,,,,,,pilot,2022_Jun_14_1511,Hippopolis_Learning,2021.1.2,59.529814339496184,
Camponello,stimuli/subj_files/pilot_cityB.csv,./stimuli/leipzig.jpg,./stimuli/street_plate2.png,FÉNYMÁSOLÓ,stimuli/objects/050a.jpg,object,0,stimuli/objects/050a.jpg,stimuli/objects/015b.jpg,stimuli/objects/015a.jpg,stimuli/objects/050b.jpg,stimuli/objects/050a.jpg,dist2,dist1,lure,target,0,0,0,0,0,12,12,14,,,,,,,,,65.06234997836873,None,65.06234997836873,None,65.06234997836873,None,65.06234997836873,None,68.03862670715898,None,,,,,,,,,,,,,,,,,,,,,,,,,,,,,,,,,,,,,,,pilot,2022_Jun_14_1511,Hippopolis_Learning,2021.1.2,59.529814339496184,
Camponello,stimuli/subj_files/pilot_cityB.csv,./stimuli/leipzig.jpg,./stimuli/street_plate2.png,TIGRIS,stimuli/scenes/003a.jpg,scene,2,stimuli/objects/084a.jpg,stimuli/objects/084b.jpg,stimuli/scenes/076b.jpg,stimuli/objects/084a.jpg,stimuli/scenes/076a.jpg,lure,dist2,target,dist1,0,0,0,0,0,13,13,45,,,,,,,,,69.06110533000901,None,69.06110533000901,None,69.06110533000901,None,69.06110533000901,None,72.0402171947062,None,,,,,,,,,,,,,,,,,,,,,,,,,,,,,,,,,,,,,,,pilot,2022_Jun_14_1511,Hippopolis_Learning,2021.1.2,59.529814339496184,
Camponello,stimuli/subj_files/pilot_cityB.csv,./stimuli/leipzig.jpg,./stimuli/street_plate2.png,LIMONÁDÉ,stimuli/scenes/049a.jpg,scene,0,stimuli/scenes/049a.jpg,stimuli/objects/067a.jpg,stimuli/objects/067b.jpg,stimuli/scenes/049a.jpg,stimuli/scenes/049b.jpg,dist1,dist2,target,lure,0,0,0,0,0,14,14,34,,,,,,,,,73.07446679472923,None,73.07446679472923,None,73.07446679472923,None,73.07446679472923,None,76.035362070892,None,,,,,,,,,,,,,,,,,,,,,,,,,,,,,,,,,,,,,,,pilot,2022_Jun_14_1511,Hippopolis_Learning,2021.1.2,59.529814339496184,
Camponello,stimuli/subj_files/pilot_cityB.csv,./stimuli/leipzig.jpg,./stimuli/street_plate2.png,ZEBRA,stimuli/scenes/052a.jpg,scene,0,stimuli/scenes/052a.jpg,stimuli/scenes/004b.jpg,stimuli/scenes/052b.jpg,stimuli/scenes/004a.jpg,stimuli/scenes/052a.jpg,dist2,lure,dist1,target,0,0,0,0,0,15,15,4,,,,,,,,,77.0795816089958,None,77.0795816089958,None,77.0795816089958,None,77.0795816089958,None,80.0392829310149,None,,,,,,,,,,,,,,,,,,,,,,,,,,,,,,,,,,,,,,,pilot,2022_Jun_14_1511,Hippopolis_Learning,2021.1.2,59.529814339496184,
Camponello,stimuli/subj_files/pilot_cityB.csv,./stimuli/leipzig.jpg,./stimuli/street_plate2.png,KECSKE,stimuli/scenes/054a.jpg,scene,1,stimuli/scenes/064a.jpg,stimuli/objects/047b.jpg,stimuli/objects/047a.jpg,stimuli/scenes/064a.jpg,stimuli/scenes/064b.jpg,dist2,dist1,target,lure,0,0,0,0,0,16,16,39,,,,,,,,,81.06991490256041,None,81.06991490256041,None,81.06991490256041,None,81.06991490256041,None,84.03597817476839,None,,,,,,,,,,,,,,,,,,,,,,,,,,,,,,,,,,,,,,,pilot,2022_Jun_14_1511,Hippopolis_Learning,2021.1.2,59.529814339496184,
Camponello,stimuli/subj_files/pilot_cityB.csv,./stimuli/leipzig.jpg,./stimuli/street_plate2.png,MOCSÁR,stimuli/objects/036a.jpg,object,2,stimuli/scenes/079a.jpg,stimuli/scenes/079a.jpg,stimuli/scenes/079b.jpg,stimuli/scenes/049a.jpg,stimuli/scenes/049b.jpg,target,lure,dist1,dist2,0,0,0,0,0,17,17,50,,,,,,,,,85.08514240663499,None,85.08514240663499,None,85.08514240663499,None,85.08514240663499,None,88.04043427715078,None,,,,,,,,,,,,,,,,,,,,,,,,,,,,,,,,,,,,,,,pilot,2022_Jun_14_1511,Hippopolis_Learning,2021.1.2,59.529814339496184,
Camponello,stimuli/subj_files/pilot_cityB.csv,./stimuli/leipzig.jpg,./stimuli/street_plate2.png,KIRAKÓ,stimuli/scenes/032a.jpg,scene,0,stimuli/scenes/032a.jpg,stimuli/scenes/032a.jpg,stimuli/scenes/064a.jpg,stimuli/scenes/032b.jpg,stimuli/scenes/064b.jpg,target,dist1,lure,dist2,0,0,0,0,0,18,18,46,,,,,,,,,89.04693835787475,None,89.04693835787475,None,89.04693835787475,None,89.04693835787475,None,92.02822073781863,None,,,,,,,,,,,,,,,,,,,,,,,,,,,,,,,,,,,,,,,pilot,2022_Jun_14_1511,Hippopolis_Learning,2021.1.2,59.529814339496184,
Camponello,stimuli/subj_files/pilot_cityB.csv,./stimuli/leipzig.jpg,./stimuli/street_plate2.png,SZŐLŐ,stimuli/objects/068a.jpg,object,0,stimuli/objects/068a.jpg,stimuli/objects/068a.jpg,stimuli/objects/068b.jpg,stimuli/scenes/005a.jpg,stimuli/scenes/005b.jpg,target,lure,dist1,dist2,0,0,0,0,0,19,19,2,,,,,,,,,93.07598419580609,None,93.07598419580609,None,93.07598419580609,None,93.07598419580609,None,96.03547341097146,None,,,,,,,,,,,,,,,,,,,,,,,,,,,,,,,,,,,,,,,pilot,2022_Jun_14_1511,Hippopolis_Learning,2021.1.2,59.529814339496184,
Camponello,stimuli/subj_files/pilot_cityB.csv,./stimuli/leipzig.jpg,./stimuli/street_plate2.png,PELIKÁN,stimuli/objects/055a.jpg,object,2,stimuli/scenes/036a.jpg,stimuli/scenes/036b.jpg,stimuli/scenes/036a.jpg,stimuli/scenes/010a.jpg,stimuli/scenes/010b.jpg,lure,target,dist1,dist2,0,0,0,0,0,20,20,5,,,,,,,,,97.06272754026577,None,97.06272754026577,None,97.06272754026577,None,97.06272754026577,None,100.03535522846505,None,,,,,,,,,,,,,,,,,,,,,,,,,,,,,,,,,,,,,,,pilot,2022_Jun_14_1511,Hippopolis_Learning,2021.1.2,59.529814339496184,
Camponello,stimuli/subj_files/pilot_cityB.csv,./stimuli/leipzig.jpg,./stimuli/street_plate2.png,PETÁRDA,stimuli/scenes/023a.jpg,scene,0,stimuli/scenes/023a.jpg,stimuli/scenes/023a.jpg,stimuli/scenes/019b.jpg,stimuli/scenes/019a.jpg,stimuli/scenes/023b.jpg,target,dist2,dist1,lure,0,0,0,0,0,21,21,51,,,,,,,,,101.05396555177867,None,101.05396555177867,None,101.05396555177867,None,101.05396555177867,None,104.03523113718256,None,,,,,,,,,,,,,,,,,,,,,,,,,,,,,,,,,,,,,,,pilot,2022_Jun_14_1511,Hippopolis_Learning,2021.1.2,59.529814339496184,
Camponello,stimuli/subj_files/pilot_cityB.csv,./stimuli/leipzig.jpg,./stimuli/street_plate2.png,SAPKA,stimuli/objects/029a.jpg,object,0,stimuli/objects/029a.jpg,stimuli/objects/029b.jpg,stimuli/objects/029a.jpg,stimuli/scenes/045a.jpg,stimuli/scenes/045b.jpg,lure,target,dist1,dist2,0,0,0,0,0,22,22,13,,,,,,,,,105.07532144105062,None,105.07532144105062,None,105.07532144105062,None,105.07532144105062,None,108.03691088361666,None,,,,,,,,,,,,,,,,,,,,,,,,,,,,,,,,,,,,,,,pilot,2022_Jun_14_1511,Hippopolis_Learning,2021.1.2,59.529814339496184,
Camponello,stimuli/subj_files/pilot_cityB.csv,./stimuli/leipzig.jpg,./stimuli/street_plate2.png,PÁLMAFA,stimuli/scenes/046a.jpg,scene,2,stimuli/objects/052a.jpg,stimuli/scenes/075b.jpg,stimuli/objects/052a.jpg,stimuli/scenes/075a.jpg,stimuli/objects/052b.jpg,dist2,target,dist1,lure,0,0,0,0,0,23,23,12,,,,,,,,,109.07946373755112,None,109.07946373755112,None,109.07946373755112,None,109.07946373755112,None,112.03886773716658,None,,,,,,,,,,,,,,,,,,,,,,,,,,,,,,,,,,,,,,,pilot,2022_Jun_14_1511,Hippopolis_Learning,2021.1.2,59.529814339496184,
Camponello,stimuli/subj_files/pilot_cityB.csv,./stimuli/leipzig.jpg,./stimuli/street_plate2.png,MAJORÁNNA,stimuli/scenes/031a.jpg,scene,0,stimuli/scenes/031a.jpg,stimuli/objects/044b.jpg,stimuli/objects/044a.jpg,stimuli/scenes/031b.jpg,stimuli/scenes/031a.jpg,dist2,dist1,lure,target,0,0,0,0,0,24,24,3,,,,,,,,,113.05905361939222,None,113.05905361939222,None,113.05905361939222,None,113.05905361939222,None,116.04389204829931,None,,,,,,,,,,,,,,,,,,,,,,,,,,,,,,,,,,,,,,,pilot,2022_Jun_14_1511,Hippopolis_Learning,2021.1.2,59.529814339496184,
Camponello,stimuli/subj_files/pilot_cityB.csv,./stimuli/leipzig.jpg,./stimuli/street_plate2.png,MENTA,stimuli/scenes/042a.jpg,scene,0,stimuli/scenes/042a.jpg,stimuli/objects/028a.jpg,stimuli/objects/028b.jpg,stimuli/scenes/042a.jpg,stimuli/scenes/042b.jpg,dist1,dist2,target,lure,0,0,0,0,0,25,25,54,,,,,,,,,117.05920818960294,None,117.05920818960294,None,117.05920818960294,None,117.05920818960294,None,120.03517328994349,None,,,,,,,,,,,,,,,,,,,,,,,,,,,,,,,,,,,,,,,pilot,2022_Jun_14_1511,Hippopolis_Learning,2021.1.2,59.529814339496184,
Camponello,stimuli/subj_files/pilot_cityB.csv,./stimuli/leipzig.jpg,./stimuli/street_plate2.png,TÁNYÉR,stimuli/scenes/039a.jpg,scene,0,stimuli/scenes/039a.jpg,stimuli/scenes/041a.jpg,stimuli/scenes/041b.jpg,stimuli/scenes/039b.jpg,stimuli/scenes/039a.jpg,dist1,dist2,lure,target,0,0,0,0,0,26,26,15,,,,,,,,,121.04405563790351,None,121.04405563790351,None,121.04405563790351,None,121.04405563790351,None,124.0277906153351,None,,,,,,,,,,,,,,,,,,,,,,,,,,,,,,,,,,,,,,,pilot,2022_Jun_14_1511,Hippopolis_Learning,2021.1.2,59.529814339496184,
Camponello,stimuli/subj_files/pilot_cityB.csv,./stimuli/leipzig.jpg,./stimuli/street_plate2.png,MARTINI,stimuli/objects/067a.jpg,object,0,stimuli/objects/067a.jpg,stimuli/objects/067b.jpg,stimuli/scenes/009b.jpg,stimuli/objects/067a.jpg,stimuli/scenes/009a.jpg,lure,dist2,target,dist1,0,0,0,0,0,27,27,23,,,,,,,,,125.04698127694428,None,125.04698127694428,None,125.04698127694428,None,125.04698127694428,None,128.03493225993589,None,,,,,,,,,,,,,,,,,,,,,,,,,,,,,,,,,,,,,,,pilot,2022_Jun_14_1511,Hippopolis_Learning,2021.1.2,59.529814339496184,
Camponello,stimuli/subj_files/pilot_cityB.csv,./stimuli/leipzig.jpg,./stimuli/street_plate2.png,MÁLNA,stimuli/objects/082a.jpg,object,1,stimuli/objects/083a.jpg,stimuli/objects/083b.jpg,stimuli/objects/083a.jpg,stimuli/objects/089b.jpg,stimuli/objects/089a.jpg,lure,target,dist2,dist1,0,0,0,0,0,28,28,27,,,,,,,,,129.0646150391549,None,129.0646150391549,None,129.0646150391549,None,129.0646150391549,None,132.03488778555766,None,,,,,,,,,,,,,,,,,,,,,,,,,,,,,,,,,,,,,,,pilot,2022_Jun_14_1511,Hippopolis_Learning,2021.1.2,59.529814339496184,
Camponello,stimuli/subj_files/pilot_cityB.csv,./stimuli/leipzig.jpg,./stimuli/street_plate2.png,KALAPÁCS,stimuli/objects/049a.jpg,object,1,stimuli/objects/048a.jpg,stimuli/objects/022a.jpg,stimuli/objects/048b.jpg,stimuli/objects/048a.jpg,stimuli/objects/022b.jpg,dist1,lure,target,dist2,0,0,0,0,0,29,29,32,,,,,,,,,133.056381450966,None,133.056381450966,None,133.056381450966,None,133.056381450966,None,136.03239164687693,None,,,,,,,,,,,,,,,,,,,,,,,,,,,,,,,,,,,,,,,pilot,2022_Jun_14_1511,Hippopolis_Learning,2021.1.2,59.529814339496184,
Camponello,stimuli/subj_files/pilot_cityB.csv,./stimuli/leipzig.jpg,./stimuli/street_plate2.png,PIZSAMA,stimuli/objects/071a.jpg,object,0,stimuli/objects/071a.jpg,stimuli/scenes/036b.jpg,stimuli/objects/071a.jpg,stimuli/scenes/036a.jpg,stimuli/objects/071b.jpg,dist2,target,dist1,lure,0,0,0,0,0,30,30,9,,,,,,,,,137.05912110768259,None,137.05912110768259,None,137.05912110768259,None,137.05912110768259,None,140.03560714423656,None,,,,,,,,,,,,,,,,,,,,,,,,,,,,,,,,,,,,,,,pilot,2022_Jun_14_1511,Hippopolis_Learning,2021.1.2,59.529814339496184,
Camponello,stimuli/subj_files/pilot_cityB.csv,./stimuli/leipzig.jpg,./stimuli/street_plate2.png,LOVAGLÁS,stimuli/objects/021a.jpg,object,0,stimuli/objects/021a.jpg,stimuli/objects/021b.jpg,stimuli/scenes/042b.jpg,stimuli/objects/021a.jpg,stimuli/scenes/042a.jpg,lure,dist2,target,dist1,0,0,0,0,0,31,31,38,,,,,,,,,141.06341113289818,None,141.06341113289818,None,141.06341113289818,None,141.06341113289818,None,144.03477333532646,None,,,,,,,,,,,,,,,,,,,,,,,,,,,,,,,,,,,,,,,pilot,2022_Jun_14_1511,Hippopolis_Learning,2021.1.2,59.529814339496184,
Camponello,stimuli/subj_files/pilot_cityB.csv,./stimuli/leipzig.jpg,./stimuli/street_plate2.png,KAKAS,stimuli/scenes/083a.jpg,scene,0,stimuli/scenes/083a.jpg,stimuli/scenes/083b.jpg,stimuli/scenes/052a.jpg,stimuli/scenes/052b.jpg,stimuli/scenes/083a.jpg,lure,dist1,dist2,target,0,0,0,0,0,32,32,22,,,,,,,,,145.05674315150827,None,145.05674315150827,None,145.05674315150827,None,145.05674315150827,None,148.0365911689587,None,,,,,,,,,,,,,,,,,,,,,,,,,,,,,,,,,,,,,,,pilot,2022_Jun_14_1511,Hippopolis_Learning,2021.1.2,59.529814339496184,
Camponello,stimuli/subj_files/pilot_cityB.csv,./stimuli/leipzig.jpg,./stimuli/street_plate2.png,LÁNDZSA,stimuli/scenes/047a.jpg,scene,0,stimuli/scenes/047a.jpg,stimuli/scenes/047b.jpg,stimuli/scenes/007a.jpg,stimuli/scenes/007b.jpg,stimuli/scenes/047a.jpg,lure,dist1,dist2,target,0,0,0,0,0,33,33,47,,,,,,,,,149.05391112575307,None,149.05391112575307,None,149.05391112575307,None,149.05391112575307,None,152.03825038904324,None,,,,,,,,,,,,,,,,,,,,,,,,,,,,,,,,,,,,,,,pilot,2022_Jun_14_1511,Hippopolis_Learning,2021.1.2,59.529814339496184,
Camponello,stimuli/subj_files/pilot_cityB.csv,./stimuli/leipzig.jpg,./stimuli/street_plate2.png,CSAVARHÚZÓ,stimuli/scenes/037a.jpg,scene,0,stimuli/scenes/037a.jpg,stimuli/objects/072a.jpg,stimuli/objects/072b.jpg,stimuli/scenes/037b.jpg,stimuli/scenes/037a.jpg,dist1,dist2,lure,target,0,0,0,0,0,34,34,57,,,,,,,,,153.07188295200467,None,153.07188295200467,None,153.07188295200467,None,153.07188295200467,None,156.0385511321947,None,,,,,,,,,,,,,,,,,,,,,,,,,,,,,,,,,,,,,,,pilot,2022_Jun_14_1511,Hippopolis_Learning,2021.1.2,59.529814339496184,
Camponello,stimuli/subj_files/pilot_cityB.csv,./stimuli/leipzig.jpg,./stimuli/street_plate2.png,SZIKLA,stimuli/objects/087a.jpg,object,0,stimuli/objects/087a.jpg,stimuli/scenes/031a.jpg,stimuli/objects/087a.jpg,stimuli/scenes/031b.jpg,stimuli/objects/087b.jpg,dist1,target,dist2,lure,0,0,0,0,0,35,35,31,,,,,,,,,157.0640779309906,None,157.0640779309906,None,157.0640779309906,None,157.0640779309906,None,160.03525757277384,None,,,,,,,,,,,,,,,,,,,,,,,,,,,,,,,,,,,,,,,pilot,2022_Jun_14_1511,Hippopolis_Learning,2021.1.2,59.529814339496184,
Camponello,stimuli/subj_files/pilot_cityB.csv,./stimuli/leipzig.jpg,./stimuli/street_plate2.png,BICIKLI,stimuli/scenes/010a.jpg,scene,0,stimuli/scenes/010a.jpg,stimuli/objects/052a.jpg,stimuli/objects/052b.jpg,stimuli/scenes/010a.jpg,stimuli/scenes/010b.jpg,dist1,dist2,target,lure,0,0,0,0,0,36,36,58,,,,,,,,,161.06194940162823,None,161.06194940162823,None,161.06194940162823,None,161.06194940162823,None,164.03461410012096,None,,,,,,,,,,,,,,,,,,,,,,,,,,,,,,,,,,,,,,,pilot,2022_Jun_14_1511,Hippopolis_Learning,2021.1.2,59.529814339496184,
Camponello,stimuli/subj_files/pilot_cityB.csv,./stimuli/leipzig.jpg,./stimuli/street_plate2.png,HERING,stimuli/objects/004a.jpg,object,0,stimuli/objects/004a.jpg,stimuli/objects/012a.jpg,stimuli/objects/012b.jpg,stimuli/objects/004b.jpg,stimuli/objects/004a.jpg,dist1,dist2,lure,target,0,0,0,0,0,37,37,21,,,,,,,,,165.07979247160256,None,165.07979247160256,None,165.07979247160256,None,165.07979247160256,None,168.03470677975565,None,,,,,,,,,,,,,,,,,,,,,,,,,,,,,,,,,,,,,,,pilot,2022_Jun_14_1511,Hippopolis_Learning,2021.1.2,59.529814339496184,
Camponello,stimuli/subj_files/pilot_cityB.csv,./stimuli/leipzig.jpg,./stimuli/street_plate2.png,PISZTRÁNG,stimuli/objects/072a.jpg,object,0,stimuli/objects/072a.jpg,stimuli/objects/046b.jpg,stimuli/objects/072b.jpg,stimuli/objects/072a.jpg,stimuli/objects/046a.jpg,dist2,lure,target,dist1,0,0,0,0,0,38,38,49,,,,,,,,,169.06926085567102,None,169.06926085567102,None,169.06926085567102,None,169.06926085567102,None,172.03624439658597,None,,,,,,,,,,,,,,,,,,,,,,,,,,,,,,,,,,,,,,,pilot,2022_Jun_14_1511,Hippopolis_Learning,2021.1.2,59.529814339496184,
Camponello,stimuli/subj_files/pilot_cityB.csv,./stimuli/leipzig.jpg,./stimuli/street_plate2.png,BONBON,stimuli/objects/091a.jpg,object,0,stimuli/objects/091a.jpg,stimuli/objects/091a.jpg,stimuli/objects/091b.jpg,stimuli/scenes/069a.jpg,stimuli/scenes/069b.jpg,target,lure,dist1,dist2,0,0,0,0,0,39,39,24,,,,,,,,,173.04783685598522,None,173.04783685598522,None,173.04783685598522,None,173.04783685598522,None,176.03277760604396,None,,,,,,,,,,,,,,,,,,,,,,,,,,,,,,,,,,,,,,,pilot,2022_Jun_14_1511,Hippopolis_Learning,2021.1.2,59.529814339496184,
Camponello,stimuli/subj_files/pilot_cityB.csv,./stimuli/leipzig.jpg,./stimuli/street_plate2.png,HEGESZTŐ,stimuli/scenes/082a.jpg,scene,2,stimuli/objects/094a.jpg,stimuli/objects/048b.jpg,stimuli/objects/094b.jpg,stimuli/objects/094a.jpg,stimuli/objects/048a.jpg,dist2,lure,target,dist1,0,0,0,0,0,40,40,59,,,,,,,,,177.05920570157468,None,177.05920570157468,None,177.05920570157468,None,177.05920570157468,None,180.0364589910023,None,,,,,,,,,,,,,,,,,,,,,,,,,,,,,,,,,,,,,,,pilot,2022_Jun_14_1511,Hippopolis_Learning,2021.1.2,59.529814339496184,
Camponello,stimuli/subj_files/pilot_cityB.csv,./stimuli/leipzig.jpg,./stimuli/street_plate2.png,TENGER,stimuli/objects/061a.jpg,object,0,stimuli/objects/061a.jpg,stimuli/objects/016a.jpg,stimuli/objects/061a.jpg,stimuli/objects/016b.jpg,stimuli/objects/061b.jpg,dist1,target,dist2,lure,0,0,0,0,0,41,41,18,,,,,,,,,181.06916817557067,None,181.06916817557067,None,181.06916817557067,None,181.06916817557067,None,184.02959227655083,None,,,,,,,,,,,,,,,,,,,,,,,,,,,,,,,,,,,,,,,pilot,2022_Jun_14_1511,Hippopolis_Learning,2021.1.2,59.529814339496184,
Camponello,stimuli/subj_files/pilot_cityB.csv,./stimuli/leipzig.jpg,./stimuli/street_plate2.png,KANÁL,stimuli/objects/028a.jpg,object,0,stimuli/objects/028a.jpg,stimuli/objects/028b.jpg,stimuli/objects/050b.jpg,stimuli/objects/028a.jpg,stimuli/objects/050a.jpg,lure,dist2,target,dist1,0,0,0,0,0,42,42,26,,,,,,,,,185.05925577366725,None,185.05925577366725,None,185.05925577366725,None,185.05925577366725,None,188.03017261484638,None,,,,,,,,,,,,,,,,,,,,,,,,,,,,,,,,,,,,,,,pilot,2022_Jun_14_1511,Hippopolis_Learning,2021.1.2,59.529814339496184,
Camponello,stimuli/subj_files/pilot_cityB.csv,./stimuli/leipzig.jpg,./stimuli/street_plate2.png,KENYÉR,stimuli/objects/089a.jpg,object,0,stimuli/objects/089a.jpg,stimuli/objects/089b.jpg,stimuli/objects/045b.jpg,stimuli/objects/089a.jpg,stimuli/objects/045a.jpg,lure,dist2,target,dist1,0,0,0,0,0,43,43,17,,,,,,,,,189.06246473966166,None,189.06246473966166,None,189.06246473966166,None,189.06246473966166,None,192.03432859573513,None,,,,,,,,,,,,,,,,,,,,,,,,,,,,,,,,,,,,,,,pilot,2022_Jun_14_1511,Hippopolis_Learning,2021.1.2,59.529814339496184,
Camponello,stimuli/subj_files/pilot_cityB.csv,./stimuli/leipzig.jpg,./stimuli/street_plate2.png,LEGELŐ,stimuli/objects/022a.jpg,object,0,stimuli/objects/022a.jpg,stimuli/objects/022a.jpg,stimuli/objects/022b.jpg,stimuli/objects/025b.jpg,stimuli/objects/025a.jpg,target,lure,dist2,dist1,0,0,0,0,0,44,44,0,,,,,,,,,193.06257359217852,None,193.06257359217852,None,193.06257359217852,None,193.06257359217852,None,196.03851785464212,None,,,,,,,,,,,,,,,,,,,,,,,,,,,,,,,,,,,,,,,pilot,2022_Jun_14_1511,Hippopolis_Learning,2021.1.2,59.529814339496184,
Camponello,stimuli/subj_files/pilot_cityB.csv,./stimuli/leipzig.jpg,./stimuli/street_plate2.png,LÁMPA,stimuli/scenes/008a.jpg,scene,1,stimuli/scenes/076a.jpg,stimuli/scenes/076b.jpg,stimuli/scenes/076a.jpg,stimuli/scenes/032b.jpg,stimuli/scenes/032a.jpg,lure,target,dist2,dist1,0,0,0,0,0,45,45,55,,,,,,,,,197.0539391161874,None,197.0539391161874,None,197.0539391161874,None,197.0539391161874,None,200.03091654274613,None,,,,,,,,,,,,,,,,,,,,,,,,,,,,,,,,,,,,,,,pilot,2022_Jun_14_1511,Hippopolis_Learning,2021.1.2,59.529814339496184,
Camponello,stimuli/subj_files/pilot_cityB.csv,./stimuli/leipzig.jpg,./stimuli/street_plate2.png,ZSÁLYA,stimuli/scenes/069a.jpg,scene,0,stimuli/scenes/069a.jpg,stimuli/scenes/069a.jpg,stimuli/scenes/069b.jpg,stimuli/scenes/047a.jpg,stimuli/scenes/047b.jpg,target,lure,dist1,dist2,0,0,0,0,0,46,46,41,,,,,,,,,201.0541639737785,None,201.0541639737785,None,201.0541639737785,None,201.0541639737785,None,204.0380348614417,None,,,,,,,,,,,,,,,,,,,,,,,,,,,,,,,,,,,,,,,pilot,2022_Jun_14_1511,Hippopolis_Learning,2021.1.2,59.529814339496184,
Camponello,stimuli/subj_files/pilot_cityB.csv,./stimuli/leipzig.jpg,./stimuli/street_plate2.png,KÖMÉNYMAG,stimuli/scenes/078a.jpg,scene,0,stimuli/scenes/078a.jpg,stimuli/scenes/078b.jpg,stimuli/objects/087a.jpg,stimuli/scenes/078a.jpg,stimuli/objects/087b.jpg,lure,dist1,target,dist2,0,0,0,0,0,47,47,1,,,,,,,,,205.0571213355288,None,205.0571213355288,None,205.0571213355288,None,205.0571213355288,None,208.0463797901757,None,,,,,,,,,,,,,,,,,,,,,,,,,,,,,,,,,,,,,,,pilot,2022_Jun_14_1511,Hippopolis_Learning,2021.1.2,59.529814339496184,
Camponello,stimuli/subj_files/pilot_cityB.csv,./stimuli/leipzig.jpg,./stimuli/street_plate2.png,KÖNYVTÁR,stimuli/objects/063a.jpg,object,1,stimuli/objects/045a.jpg,stimuli/objects/077a.jpg,stimuli/objects/045b.jpg,stimuli/objects/045a.jpg,stimuli/objects/077b.jpg,dist1,lure,target,dist2,0,0,0,0,0,48,48,19,,,,,,,,,209.06161693576723,None,209.06161693576723,None,209.06161693576723,None,209.06161693576723,None,212.0340138571337,None,,,,,,,,,,,,,,,,,,,,,,,,,,,,,,,,,,,,,,,pilot,2022_Jun_14_1511,Hippopolis_Learning,2021.1.2,59.529814339496184,
Camponello,stimuli/subj_files/pilot_cityB.csv,./stimuli/leipzig.jpg,./stimuli/street_plate2.png,ANANÁSZ,stimuli/scenes/088a.jpg,scene,1,stimuli/scenes/048a.jpg,stimuli/scenes/078a.jpg,stimuli/scenes/048a.jpg,stimuli/scenes/078b.jpg,stimuli/scenes/048b.jpg,dist1,target,dist2,lure,0,0,0,0,0,49,49,36,,,,,,,,,213.06361204292625,None,213.06361204292625,None,213.06361204292625,None,213.06361204292625,None,216.0340300295502,None,,,,,,,,,,,,,,,,,,,,,,,,,,,,,,,,,,,,,,,pilot,2022_Jun_14_1511,Hippopolis_Learning,2021.1.2,59.529814339496184,
Camponello,stimuli/subj_files/pilot_cityB.csv,./stimuli/leipzig.jpg,./stimuli/street_plate2.png,RIBIZLI,stimuli/scenes/029a.jpg,scene,0,stimuli/scenes/029a.jpg,stimuli/scenes/029b.jpg,stimuli/objects/094a.jpg,stimuli/objects/094b.jpg,stimuli/scenes/029a.jpg,lure,dist1,dist2,target,0,0,0,0,0,50,50,48,,,,,,,,,217.05475302040577,None,217.05475302040577,None,217.05475302040577,None,217.05475302040577,None,220.0375036620535,None,,,,,,,,,,,,,,,,,,,,,,,,,,,,,,,,,,,,,,,pilot,2022_Jun_14_1511,Hippopolis_Learning,2021.1.2,59.529814339496184,
Camponello,stimuli/subj_files/pilot_cityB.csv,./stimuli/leipzig.jpg,./stimuli/street_plate2.png,BÖGRE,stimuli/scenes/002a.jpg,scene,1,stimuli/scenes/075a.jpg,stimuli/scenes/023a.jpg,stimuli/scenes/075a.jpg,stimuli/scenes/023b.jpg,stimuli/scenes/075b.jpg,dist1,target,dist2,lure,0,0,0,0,0,51,51,7,,,,,,,,,221.05440469319,None,221.05440469319,None,221.05440469319,None,221.05440469319,None,224.03407388133928,None,,,,,,,,,,,,,,,,,,,,,,,,,,,,,,,,,,,,,,,pilot,2022_Jun_14_1511,Hippopolis_Learning,2021.1.2,59.529814339496184,
Camponello,stimuli/subj_files/pilot_cityB.csv,./stimuli/leipzig.jpg,./stimuli/street_plate2.png,KÖTÉNY,stimuli/scenes/009a.jpg,scene,0,stimuli/scenes/009a.jpg,stimuli/scenes/009a.jpg,stimuli/scenes/009b.jpg,stimuli/objects/083a.jpg,stimuli/objects/083b.jpg,target,lure,dist1,dist2,0,0,0,0,0,52,52,20,,,,,,,,,225.0536184683442,None,225.0536184683442,None,225.0536184683442,None,225.0536184683442,None,228.03382072225213,None,,,,,,,,,,,,,,,,,,,,,,,,,,,,,,,,,,,,,,,pilot,2022_Jun_14_1511,Hippopolis_Learning,2021.1.2,59.529814339496184,
Camponello,stimuli/subj_files/pilot_cityB.csv,./stimuli/leipzig.jpg,./stimuli/street_plate2.png,KOKTÉL,stimuli/scenes/026a.jpg,scene,2,stimuli/objects/099a.jpg,stimuli/scenes/079b.jpg,stimuli/objects/099a.jpg,stimuli/scenes/079a.jpg,stimuli/objects/099b.jpg,dist2,target,dist1,lure,0,0,0,0,0,53,53,29,,,,,,,,,229.05115654040128,None,229.05115654040128,None,229.05115654040128,None,229.05115654040128,None,232.03118369728327,None,,,,,,,,,,,,,,,,,,,,,,,,,,,,,,,,,,,,,,,pilot,2022_Jun_14_1511,Hippopolis_Learning,2021.1.2,59.529814339496184,
Camponello,stimuli/subj_files/pilot_cityB.csv,./stimuli/leipzig.jpg,./stimuli/street_plate2.png,HENTES,stimuli/objects/033a.jpg,object,1,stimuli/objects/015a.jpg,stimuli/objects/015b.jpg,stimuli/objects/091b.jpg,stimuli/objects/091a.jpg,stimuli/objects/015a.jpg,lure,dist2,dist1,target,0,0,0,0,0,54,54,42,,,,,,,,,233.06212760834023,None,233.06212760834023,None,233.06212760834023,None,233.06212760834023,None,236.03396067535505,None,,,,,,,,,,,,,,,,,,,,,,,,,,,,,,,,,,,,,,,pilot,2022_Jun_14_1511,Hippopolis_Learning,2021.1.2,59.529814339496184,
Camponello,stimuli/subj_files/pilot_cityB.csv,./stimuli/leipzig.jpg,./stimuli/street_plate2.png,DARU,stimuli/objects/002a.jpg,object,0,stimuli/objects/002a.jpg,stimuli/objects/002a.jpg,stimuli/objects/029a.jpg,stimuli/objects/002b.jpg,stimuli/objects/029b.jpg,target,dist1,lure,dist2,0,0,0,0,0,55,55,30,,,,,,,,,237.0783049268648,None,237.0783049268648,None,237.0783049268648,None,237.0783049268648,None,240.03688164893538,None,,,,,,,,,,,,,,,,,,,,,,,,,,,,,,,,,,,,,,,pilot,2022_Jun_14_1511,Hippopolis_Learning,2021.1.2,59.529814339496184,
Camponello,stimuli/subj_files/pilot_cityB.csv,./stimuli/leipzig.jpg,./stimuli/street_plate2.png,VITORLA,stimuli/objects/077a.jpg,object,0,stimuli/objects/077a.jpg,stimuli/scenes/040a.jpg,stimuli/scenes/040b.jpg,stimuli/objects/077a.jpg,stimuli/objects/077b.jpg,dist1,dist2,target,lure,0,0,0,0,0,56,56,16,,,,,,,,,241.07926966948435,None,241.07926966948435,None,241.07926966948435,None,241.07926966948435,None,244.03117467835546,None,,,,,,,,,,,,,,,,,,,,,,,,,,,,,,,,,,,,,,,pilot,2022_Jun_14_1511,Hippopolis_Learning,2021.1.2,59.529814339496184,
Camponello,stimuli/subj_files/pilot_cityB.csv,./stimuli/leipzig.jpg,./stimuli/street_plate2.png,SÜTEMÉNY,stimuli/objects/046a.jpg,object,0,stimuli/objects/046a.jpg,stimuli/objects/068b.jpg,stimuli/objects/046a.jpg,stimuli/objects/068a.jpg,stimuli/objects/046b.jpg,dist2,target,dist1,lure,0,0,0,0,0,57,57,56,,,,,,,,,245.0817997083068,None,245.0817997083068,None,245.0817997083068,None,245.0817997083068,None,248.03683841926977,None,,,,,,,,,,,,,,,,,,,,,,,,,,,,,,,,,,,,,,,pilot,2022_Jun_14_1511,Hippopolis_Learning,2021.1.2,59.529814339496184,
Camponello,stimuli/subj_files/pilot_cityB.csv,./stimuli/leipzig.jpg,./stimuli/street_plate2.png,FECSKE,stimuli/scenes/004a.jpg,scene,0,stimuli/scenes/004a.jpg,stimuli/scenes/083b.jpg,stimuli/scenes/083a.jpg,stimuli/scenes/004b.jpg,stimuli/scenes/004a.jpg,dist2,dist1,lure,target,0,0,0,0,0,58,58,40,,,,,,,,,249.08604930201545,None,249.08604930201545,None,249.08604930201545,None,249.08604930201545,None,252.03386830631644,None,,,,,,,,,,,,,,,,,,,,,,,,,,,,,,,,,,,,,,,pilot,2022_Jun_14_1511,Hippopolis_Learning,2021.1.2,59.529814339496184,
Camponello,stimuli/subj_files/pilot_cityB.csv,./stimuli/leipzig.jpg,./stimuli/street_plate2.png,KÖRTE,stimuli/scenes/040a.jpg,scene,0,stimuli/scenes/040a.jpg,stimuli/scenes/040a.jpg,stimuli/scenes/040b.jpg,stimuli/objects/002a.jpg,stimuli/objects/002b.jpg,target,lure,dist1,dist2,0,0,0,0,0,59,59,37,,,,,,,,,253.07560943299904,None,253.07560943299904,None,253.07560943299904,None,253.07560943299904,None,256.0365877477452,None,,,,,,,,,,,,,,,,,,,,,,,,,,,,,,,,,,,,,,,pilot,2022_Jun_14_1511,Hippopolis_Learning,2021.1.2,59.529814339496184,
Camponello,stimuli/subj_files/pilot_cityB.csv,./stimuli/leipzig.jpg,./stimuli/street_plate2.png,FECSKE,stimuli/scenes/004a.jpg,scene,0,stimuli/scenes/004a.jpg,stimuli/scenes/083b.jpg,stimuli/scenes/083a.jpg,stimuli/scenes/004b.jpg,stimuli/scenes/004a.jpg,dist2,dist1,lure,target,0,0,0,0,,,,,0,0,0,40,,,,,,,,,,,,,344.4280035304837,None,257.0327947116457,None,space,85.42280350066721,257.0327947116457,None,342.54329056153074,None,342.54329056153074,None,342.54329056153074,None,342.54329056153074,None,right,1.8320520902052522,342.54329056153074,None,342.54329056153074,None,None,None,None,None,None,None,None,None,None,None,None,,,,,,,,pilot,2022_Jun_14_1511,Hippopolis_Learning,2021.1.2,59.529814339496184,
Camponello,stimuli/subj_files/pilot_cityB.csv,./stimuli/leipzig.jpg,./stimuli/street_plate2.png,KÖNYVTÁR,stimuli/objects/063a.jpg,object,1,stimuli/objects/045a.jpg,stimuli/objects/077a.jpg,stimuli/objects/045b.jpg,stimuli/objects/045a.jpg,stimuli/objects/077b.jpg,dist1,lure,target,dist2,0,0,0,0,,,,,0,1,1,19,,,,,,,,,,,,,347.29735308513045,None,,,,,,,345.4513451969251,None,345.4513451969251,None,345.4513451969251,None,345.4513451969251,None,left,1.787945135962218,345.4513451969251,None,345.4513451969251,None,None,None,None,None,None,None,None,None,None,None,None,,,,,,,,pilot,2022_Jun_14_1511,Hippopolis_Learning,2021.1.2,59.529814339496184,
Camponello,stimuli/subj_files/pilot_cityB.csv,./stimuli/leipzig.jpg,./stimuli/street_plate2.png,KABÁT,stimuli/objects/016a.jpg,object,0,stimuli/objects/016a.jpg,stimuli/objects/016a.jpg,stimuli/objects/016b.jpg,stimuli/scenes/029b.jpg,stimuli/scenes/029a.jpg,target,lure,dist2,dist1,0,0,0,0,,,,,0,2,2,28,,,,,,,,,,,,,350.3835143498145,None,,,,,,,348.31506522139534,None,348.31506522139534,None,348.31506522139534,None,348.31506522139534,None,right,2.012438708450645,348.31506522139534,None,348.31506522139534,None,None,None,None,None,None,None,None,None,None,None,None,,,,,,,,pilot,2022_Jun_14_1511,Hippopolis_Learning,2021.1.2,59.529814339496184,
Camponello,stimuli/subj_files/pilot_cityB.csv,./stimuli/leipzig.jpg,./stimuli/street_plate2.png,KECSKE,stimuli/scenes/054a.jpg,scene,1,stimuli/scenes/064a.jpg,stimuli/objects/047b.jpg,stimuli/objects/047a.jpg,stimuli/scenes/064a.jpg,stimuli/scenes/064b.jpg,dist2,dist1,target,lure,0,0,0,0,,,,,0,3,3,39,,,,,,,,,,,,,354.46550159482285,None,,,,,,,351.39832168398425,None,351.39832168398425,None,351.39832168398425,None,351.39832168398425,None,left,3.0250158146955073,351.39832168398425,None,351.39832168398425,None,None,None,None,None,None,None,None,None,None,None,None,,,,,,,,pilot,2022_Jun_14_1511,Hippopolis_Learning,2021.1.2,59.529814339496184,
Camponello,stimuli/subj_files/pilot_cityB.csv,./stimuli/leipzig.jpg,./stimuli/street_plate2.png,KÍGYÓ,stimuli/scenes/006a.jpg,scene,0,stimuli/scenes/006a.jpg,stimuli/scenes/006b.jpg,stimuli/scenes/006a.jpg,stimuli/objects/099b.jpg,stimuli/objects/099a.jpg,lure,target,dist2,dist1,0,0,0,0,,,,,0,4,4,6,,,,,,,,,,,,,356.4459566967562,None,,,,,,,355.49351146956906,None,355.49351146956906,None,355.49351146956906,None,355.49351146956906,None,right,0.8976779002696276,355.49351146956906,None,355.49351146956906,None,None,None,None,None,None,None,None,None,None,None,None,,,,,,,,pilot,2022_Jun_14_1511,Hippopolis_Learning,2021.1.2,59.529814339496184,
Camponello,stimuli/subj_files/pilot_cityB.csv,./stimuli/leipzig.jpg,./stimuli/street_plate2.png,LEGELŐ,stimuli/objects/022a.jpg,object,0,stimuli/objects/022a.jpg,stimuli/objects/022a.jpg,stimuli/objects/022b.jpg,stimuli/objects/025b.jpg,stimuli/objects/025a.jpg,target,lure,dist2,dist1,0,0,0,0,,,,,0,5,5,0,,,,,,,,,,,,,359.3944863509387,None,,,,,,,357.4769276655279,None,357.4769276655279,None,357.4769276655279,None,357.4769276655279,None,left,1.8743545836769044,357.4769276655279,None,357.4769276655279,None,None,None,None,None,None,None,None,None,None,None,None,,,,,,,,pilot,2022_Jun_14_1511,Hippopolis_Learning,2021.1.2,59.529814339496184,
Camponello,stimuli/subj_files/pilot_cityB.csv,./stimuli/leipzig.jpg,./stimuli/street_plate2.png,PELIKÁN,stimuli/objects/055a.jpg,object,2,stimuli/scenes/036a.jpg,stimuli/scenes/036b.jpg,stimuli/scenes/036a.jpg,stimuli/scenes/010a.jpg,stimuli/scenes/010b.jpg,lure,target,dist1,dist2,0,0,0,0,,,,,0,6,6,5,,,,,,,,,,,,,363.38315980229527,None,,,,,,,360.41132455831394,None,360.41132455831394,None,360.41132455831394,None,360.41132455831394,None,right,2.923919081222266,360.41132455831394,None,360.41132455831394,None,None,None,None,None,None,None,None,None,None,None,None,,,,,,,,pilot,2022_Jun_14_1511,Hippopolis_Learning,2021.1.2,59.529814339496184,
Camponello,stimuli/subj_files/pilot_cityB.csv,./stimuli/leipzig.jpg,./stimuli/street_plate2.png,ORVOS,stimuli/objects/006a.jpg,object,2,stimuli/scenes/019a.jpg,stimuli/scenes/019b.jpg,stimuli/objects/061b.jpg,stimuli/objects/061a.jpg,stimuli/scenes/019a.jpg,lure,dist2,dist1,target,0,0,0,0,,,,,0,7,7,33,,,,,,,,,,,,,366.1027211211622,None,,,,,,,364.4029074762948,None,364.4029074762948,None,364.4029074762948,None,364.4029074762948,None,right,1.65228126430884,364.4029074762948,None,364.4029074762948,None,None,None,None,None,None,None,None,None,None,None,None,,,,,,,,pilot,2022_Jun_14_1511,Hippopolis_Learning,2021.1.2,59.529814339496184,
Camponello,stimuli/subj_files/pilot_cityB.csv,./stimuli/leipzig.jpg,./stimuli/street_plate2.png,SZÚNYOG,stimuli/scenes/051a.jpg,scene,1,stimuli/scenes/005a.jpg,stimuli/objects/071b.jpg,stimuli/scenes/005a.jpg,stimuli/scenes/005b.jpg,stimuli/objects/071a.jpg,dist2,target,lure,dist1,0,0,0,0,,,,,0,8,8,25,,,,,,,,,,,,,395.0266961832531,None,,,,,,,367.13500671461225,None,367.13500671461225,None,367.13500671461225,None,367.13500671461225,None,right,1.4484469266608357,367.13500671461225,None,367.13500671461225,None,368.63308780407533,None,368.63308780407533,None,368.63308780407533,None,368.63308780407533,None,space,368.63308780407533,None,26.3657916393131,,,,,,,pilot,2022_Jun_14_1511,Hippopolis_Learning,2021.1.2,59.529814339496184,
Camponello,stimuli/subj_files/pilot_cityB.csv,./stimuli/leipzig.jpg,./stimuli/street_plate2.png,HERING,stimuli/objects/004a.jpg,object,0,stimuli/objects/004a.jpg,stimuli/objects/012a.jpg,stimuli/objects/012b.jpg,stimuli/objects/004b.jpg,stimuli/objects/004a.jpg,dist1,dist2,lure,target,0,0,0,0,,,,,0,9,9,21,,,,,,,,,,,,,397.56138368090615,None,,,,,,,396.05334260547534,None,396.05334260547534,None,396.05334260547534,None,396.05334260547534,None,right,1.4574194666929543,396.05334260547534,None,396.05334260547534,None,None,None,None,None,None,None,None,None,None,None,None,,,,,,,,pilot,2022_Jun_14_1511,Hippopolis_Learning,2021.1.2,59.529814339496184,
Camponello,stimuli/subj_files/pilot_cityB.csv,./stimuli/leipzig.jpg,./stimuli/street_plate2.png,VITORLA,stimuli/objects/077a.jpg,object,0,stimuli/objects/077a.jpg,stimuli/scenes/040a.jpg,stimuli/scenes/040b.jpg,stimuli/objects/077a.jpg,stimuli/objects/077b.jpg,dist1,dist2,target,lure,0,0,0,0,,,,,0,10,10,16,,,,,,,,,,,,,399.85124057438225,None,,,,,,,398.5836996473372,None,398.5836996473372,None,398.5836996473372,None,398.5836996473372,None,left,1.2150352401658893,398.5836996473372,None,398.5836996473372,None,None,None,None,None,None,None,None,None,None,None,None,,,,,,,,pilot,2022_Jun_14_1511,Hippopolis_Learning,2021.1.2,59.529814339496184,
Camponello,stimuli/subj_files/pilot_cityB.csv,./stimuli/leipzig.jpg,./stimuli/street_plate2.png,SZŐLŐ,stimuli/objects/068a.jpg,object,0,stimuli/objects/068a.jpg,stimuli/objects/068a.jpg,stimuli/objects/068b.jpg,stimuli/scenes/005a.jpg,stimuli/scenes/005b.jpg,target,lure,dist1,dist2,0,0,0,0,,,,,0,11,11,2,,,,,,,,,,,,,402.6936112404801,None,,,,,,,400.88370250863954,None,400.88370250863954,None,400.88370250863954,None,400.88370250863954,None,right,1.763117169495672,400.88370250863954,None,400.88370250863954,None,None,None,None,None,None,None,None,None,None,None,None,,,,,,,,pilot,2022_Jun_14_1511,Hippopolis_Learning,2021.1.2,59.529814339496184,
Camponello,stimuli/subj_files/pilot_cityB.csv,./stimuli/leipzig.jpg,./stimuli/street_plate2.png,PETÁRDA,stimuli/scenes/023a.jpg,scene,0,stimuli/scenes/023a.jpg,stimuli/scenes/023a.jpg,stimuli/scenes/019b.jpg,stimuli/scenes/019a.jpg,stimuli/scenes/023b.jpg,target,dist2,dist1,lure,0,0,0,0,,,,,0,12,12,51,,,,,,,,,,,,,411.8502702335827,None,,,,,,,403.71542337629944,None,403.71542337629944,None,403.71542337629944,None,403.71542337629944,None,right,1.635246189776808,403.71542337629944,None,403.71542337629944,None,405.4127825573087,None,405.4127825573087,None,405.4127825573087,None,405.4127825573087,None,space,405.4127825573087,None,6.401917542330921,,,,,,,pilot,2022_Jun_14_1511,Hippopolis_Learning,2021.1.2,59.529814339496184,
Camponello,stimuli/subj_files/pilot_cityB.csv,./stimuli/leipzig.jpg,./stimuli/street_plate2.png,PÁLMAFA,stimuli/scenes/046a.jpg,scene,2,stimuli/objects/052a.jpg,stimuli/scenes/075b.jpg,stimuli/objects/052a.jpg,stimuli/scenes/075a.jpg,stimuli/objects/052b.jpg,dist2,target,dist1,lure,0,0,0,0,,,,,0,13,13,12,,,,,,,,,,,,,420.57430569361895,None,,,,,,,412.8679416277446,None,412.8679416277446,None,412.8679416277446,None,412.8679416277446,None,right,1.314593424089253,412.8679416277446,None,412.8679416277446,None,414.2356832786463,None,414.2356832786463,None,414.2356832786463,None,414.2356832786463,None,space,414.2356832786463,None,6.298816060181707,,,,,,,pilot,2022_Jun_14_1511,Hippopolis_Learning,2021.1.2,59.529814339496184,
Camponello,stimuli/subj_files/pilot_cityB.csv,./stimuli/leipzig.jpg,./stimuli/street_plate2.png,MÁLNA,stimuli/objects/082a.jpg,object,1,stimuli/objects/083a.jpg,stimuli/objects/083b.jpg,stimuli/objects/083a.jpg,stimuli/objects/089b.jpg,stimuli/objects/089a.jpg,lure,target,dist2,dist1,0,0,0,0,,,,,0,14,14,27,,,,,,,,,,,,,427.91214374965057,None,,,,,,,421.59837635885924,None,421.59837635885924,None,421.59837635885924,None,421.59837635885924,None,right,1.784054443705827,421.59837635885924,None,421.59837635885924,None,423.4317150833085,None,423.4317150833085,None,423.4317150833085,None,423.4317150833085,None,space,423.4317150833085,None,4.446820984128863,,,,,,,pilot,2022_Jun_14_1511,Hippopolis_Learning,2021.1.2,59.529814339496184,
Camponello,stimuli/subj_files/pilot_cityB.csv,./stimuli/leipzig.jpg,./stimuli/street_plate2.png,TENISZ,stimuli/scenes/041a.jpg,scene,0,stimuli/scenes/041a.jpg,stimuli/scenes/037a.jpg,stimuli/scenes/037b.jpg,stimuli/scenes/041b.jpg,stimuli/scenes/041a.jpg,dist1,dist2,lure,target,0,0,0,0,,,,,0,15,15,10,,,,,,,,,,,,,436.1991303632967,None,,,,,,,428.9332128907554,None,428.9332128907554,None,428.9332128907554,None,428.9332128907554,None,right,1.6332852928899229,428.9332128907554,None,428.9332128907554,None,430.6135746287182,None,430.6135746287182,None,430.6135746287182,None,430.6135746287182,None,space,430.6135746287182,None,5.553125522565097,,,,,,,pilot,2022_Jun_14_1511,Hippopolis_Learning,2021.1.2,59.529814339496184,
Camponello,stimuli/subj_files/pilot_cityB.csv,./stimuli/leipzig.jpg,./stimuli/street_plate2.png,DARU,stimuli/objects/002a.jpg,object,0,stimuli/objects/002a.jpg,stimuli/objects/002a.jpg,stimuli/objects/029a.jpg,stimuli/objects/002b.jpg,stimuli/objects/029b.jpg,target,dist1,lure,dist2,0,0,0,0,,,,,0,16,16,30,,,,,,,,,,,,,439.01618571579456,None,,,,,,,437.2246966599487,None,437.2246966599487,None,437.2246966599487,None,437.2246966599487,None,left,1.7576848175376654,437.2246966599487,None,437.2246966599487,None,None,None,None,None,None,None,None,None,None,None,None,,,,,,,,pilot,2022_Jun_14_1511,Hippopolis_Learning,2021.1.2,59.529814339496184,
Camponello,stimuli/subj_files/pilot_cityB.csv,./stimuli/leipzig.jpg,./stimuli/street_plate2.png,KARTON,stimuli/objects/047a.jpg,object,0,stimuli/objects/047a.jpg,stimuli/objects/047a.jpg,stimuli/objects/004b.jpg,stimuli/objects/047b.jpg,stimuli/objects/004a.jpg,target,dist2,lure,dist1,0,0,0,0,,,,,0,17,17,44,,,,,,,,,,,,,445.85001272009686,None,,,,,,,440.044021116104,None,440.044021116104,None,440.044021116104,None,440.044021116104,None,right,1.9943297281861305,440.044021116104,None,440.044021116104,None,442.08034948445857,None,442.08034948445857,None,442.08034948445857,None,442.08034948445857,None,space,442.08034948445857,None,3.7338200379163027,,,,,,,pilot,2022_Jun_14_1511,Hippopolis_Learning,2021.1.2,59.529814339496184,
Camponello,stimuli/subj_files/pilot_cityB.csv,./stimuli/leipzig.jpg,./stimuli/street_plate2.png,KOKTÉL,stimuli/scenes/026a.jpg,scene,2,stimuli/objects/099a.jpg,stimuli/scenes/079b.jpg,stimuli/objects/099a.jpg,stimuli/scenes/079a.jpg,stimuli/objects/099b.jpg,dist2,target,dist1,lure,0,0,0,0,,,,,0,18,18,29,,,,,,,,,,,,,448.1704502692446,None,,,,,,,446.8693567076698,None,446.8693567076698,None,446.8693567076698,None,446.8693567076698,None,left,1.248849742114544,446.8693567076698,None,446.8693567076698,None,None,None,None,None,None,None,None,None,None,None,None,,,,,,,,pilot,2022_Jun_14_1511,Hippopolis_Learning,2021.1.2,59.529814339496184,
Camponello,stimuli/subj_files/pilot_cityB.csv,./stimuli/leipzig.jpg,./stimuli/street_plate2.png,TOLMÁCS,stimuli/scenes/025a.jpg,scene,0,stimuli/scenes/025a.jpg,stimuli/scenes/025a.jpg,stimuli/scenes/025b.jpg,stimuli/objects/021a.jpg,stimuli/objects/021b.jpg,target,lure,dist1,dist2,0,0,0,0,,,,,0,19,19,8,,,,,,,,,,,,,451.0100610628724,None,,,,,,,449.18695290060714,None,449.18695290060714,None,449.18695290060714,None,449.18695290060714,None,right,1.7632117155008018,449.18695290060714,None,449.18695290060714,None,None,None,None,None,None,None,None,None,None,None,None,,,,,,,,pilot,2022_Jun_14_1511,Hippopolis_Learning,2021.1.2,59.529814339496184,
Camponello,stimuli/subj_files/pilot_cityB.csv,./stimuli/leipzig.jpg,./stimuli/street_plate2.png,SZIKLA,stimuli/objects/087a.jpg,object,0,stimuli/objects/087a.jpg,stimuli/scenes/031a.jpg,stimuli/objects/087a.jpg,stimuli/scenes/031b.jpg,stimuli/objects/087b.jpg,dist1,target,dist2,lure,0,0,0,0,,,,,0,20,20,31,,,,,,,,,,,,,456.04437504149973,None,,,,,,,452.03895823983476,None,452.03895823983476,None,452.03895823983476,None,452.03895823983476,None,None,,452.03895823983476,None,452.03895823983476,None,None,None,None,None,None,None,None,None,None,None,None,,,,,,,,pilot,2022_Jun_14_1511,Hippopolis_Learning,2021.1.2,59.529814339496184,
Camponello,stimuli/subj_files/pilot_cityB.csv,./stimuli/leipzig.jpg,./stimuli/street_plate2.png,MOCSÁR,stimuli/objects/036a.jpg,object,2,stimuli/scenes/079a.jpg,stimuli/scenes/079a.jpg,stimuli/scenes/079b.jpg,stimuli/scenes/049a.jpg,stimuli/scenes/049b.jpg,target,lure,dist1,dist2,0,0,0,0,,,,,0,21,21,50,,,,,,,,,,,,,465.0394191518426,None,,,,,,,457.0625172997825,None,457.0625172997825,None,457.0625172997825,None,457.0625172997825,None,right,1.5356407328508794,457.0625172997825,None,457.0625172997825,None,458.63316057948396,None,458.63316057948396,None,458.63316057948396,None,458.63316057948396,None,space,458.63316057948396,None,6.364796418230981,,,,,,,pilot,2022_Jun_14_1511,Hippopolis_Learning,2021.1.2,59.529814339496184,
Camponello,stimuli/subj_files/pilot_cityB.csv,./stimuli/leipzig.jpg,./stimuli/street_plate2.png,KÖRTE,stimuli/scenes/040a.jpg,scene,0,stimuli/scenes/040a.jpg,stimuli/scenes/040a.jpg,stimuli/scenes/040b.jpg,stimuli/objects/002a.jpg,stimuli/objects/002b.jpg,target,lure,dist1,dist2,0,0,0,0,,,,,0,22,22,37,,,,,,,,,,,,,489.7888647825457,None,,,,,,,466.0622504563071,None,466.0622504563071,None,466.0622504563071,None,466.0622504563071,None,right,1.3359779263846576,466.0622504563071,None,466.0622504563071,None,467.4312563482672,None,467.4312563482672,None,467.4312563482672,None,467.4312563482672,None,space,467.4312563482672,None,22.33470964152366,,,,,,,pilot,2022_Jun_14_1511,Hippopolis_Learning,2021.1.2,59.529814339496184,
Camponello,stimuli/subj_files/pilot_cityB.csv,./stimuli/leipzig.jpg,./stimuli/street_plate2.png,LOVAGLÁS,stimuli/objects/021a.jpg,object,0,stimuli/objects/021a.jpg,stimuli/objects/021b.jpg,stimuli/scenes/042b.jpg,stimuli/objects/021a.jpg,stimuli/scenes/042a.jpg,lure,dist2,target,dist1,0,0,0,0,,,,,0,23,23,38,,,,,,,,,,,,,505.9566369741224,None,,,,,,,490.8211973379366,None,490.8211973379366,None,490.8211973379366,None,490.8211973379366,None,right,1.776592773385346,490.8211973379366,None,490.8211973379366,None,492.6358694471419,None,492.6358694471419,None,492.6358694471419,None,492.6358694471419,None,space,492.6358694471419,None,13.289777586702257,,,,,,,pilot,2022_Jun_14_1511,Hippopolis_Learning,2021.1.2,59.529814339496184,
Camponello,stimuli/subj_files/pilot_cityB.csv,./stimuli/leipzig.jpg,./stimuli/street_plate2.png,PAPRIKA,stimuli/scenes/007a.jpg,scene,0,stimuli/scenes/007a.jpg,stimuli/scenes/007a.jpg,stimuli/objects/084b.jpg,stimuli/scenes/007b.jpg,stimuli/objects/084a.jpg,target,dist2,lure,dist1,0,0,0,0,,,,,0,24,24,52,,,,,,,,,,,,,508.66240670578554,None,,,,,,,506.9794744984247,None,506.9794744984247,None,506.9794744984247,None,506.9794744984247,None,right,1.6341004413552582,506.9794744984247,None,506.9794744984247,None,None,None,None,None,None,None,None,None,None,None,None,,,,,,,,pilot,2022_Jun_14_1511,Hippopolis_Learning,2021.1.2,59.529814339496184,
Camponello,stimuli/subj_files/pilot_cityB.csv,./stimuli/leipzig.jpg,./stimuli/street_plate2.png,TRIATLON,stimuli/objects/039a.jpg,object,2,stimuli/scenes/045a.jpg,stimuli/scenes/006b.jpg,stimuli/scenes/045b.jpg,stimuli/scenes/045a.jpg,stimuli/scenes/006a.jpg,dist2,lure,target,dist1,0,0,0,0,,,,,0,25,25,43,,,,,,,,,,,,,511.3654666375369,None,,,,,,,509.693177386187,None,509.693177386187,None,509.693177386187,None,509.693177386187,None,right,1.6405550721101463,509.693177386187,None,509.693177386187,None,None,None,None,None,None,None,None,None,None,None,None,,,,,,,,pilot,2022_Jun_14_1511,Hippopolis_Learning,2021.1.2,59.529814339496184,
Camponello,stimuli/subj_files/pilot_cityB.csv,./stimuli/leipzig.jpg,./stimuli/street_plate2.png,FÉNYMÁSOLÓ,stimuli/objects/050a.jpg,object,0,stimuli/objects/050a.jpg,stimuli/objects/015b.jpg,stimuli/objects/015a.jpg,stimuli/objects/050b.jpg,stimuli/objects/050a.jpg,dist2,dist1,lure,target,0,0,0,0,,,,,0,26,26,14,,,,,,,,,,,,,513.7490351023152,None,,,,,,,512.3980324477889,None,512.3980324477889,None,512.3980324477889,None,512.3980324477889,None,right,1.3194780936464667,512.3980324477889,None,512.3980324477889,None,None,None,None,None,None,None,None,None,None,None,None,,,,,,,,pilot,2022_Jun_14_1511,Hippopolis_Learning,2021.1.2,59.529814339496184,
Camponello,stimuli/subj_files/pilot_cityB.csv,./stimuli/leipzig.jpg,./stimuli/street_plate2.png,SZEKRÉNY,stimuli/objects/012a.jpg,object,0,stimuli/objects/012a.jpg,stimuli/objects/012a.jpg,stimuli/scenes/048a.jpg,stimuli/scenes/048b.jpg,stimuli/objects/012b.jpg,target,dist1,dist2,lure,0,0,0,0,,,,,0,27,27,53,,,,,,,,,,,,,516.7029109597206,None,,,,,,,514.76929002814,None,514.76929002814,None,514.76929002814,None,514.76929002814,None,right,1.8922004522755742,514.76929002814,None,514.76929002814,None,None,None,None,None,None,None,None,None,None,None,None,,,,,,,,pilot,2022_Jun_14_1511,Hippopolis_Learning,2021.1.2,59.529814339496184,
Camponello,stimuli/subj_files/pilot_cityB.csv,./stimuli/leipzig.jpg,./stimuli/street_plate2.png,KÖMÉNYMAG,stimuli/scenes/078a.jpg,scene,0,stimuli/scenes/078a.jpg,stimuli/scenes/078b.jpg,stimuli/objects/087a.jpg,stimuli/scenes/078a.jpg,stimuli/objects/087b.jpg,lure,dist1,target,dist2,0,0,0,0,,,,,0,28,28,1,,,,,,,,,,,,,520.8760887561366,None,,,,,,,517.7378037213348,None,517.7378037213348,None,517.7378037213348,None,517.7378037213348,None,right,3.0996150984428823,517.7378037213348,None,517.7378037213348,None,None,None,None,None,None,None,None,None,None,None,None,,,,,,,,pilot,2022_Jun_14_1511,Hippopolis_Learning,2021.1.2,59.529814339496184,
Camponello,stimuli/subj_files/pilot_cityB.csv,./stimuli/leipzig.jpg,./stimuli/street_plate2.png,SÜTEMÉNY,stimuli/objects/046a.jpg,object,0,stimuli/objects/046a.jpg,stimuli/objects/068b.jpg,stimuli/objects/046a.jpg,stimuli/objects/068a.jpg,stimuli/objects/046b.jpg,dist2,target,dist1,lure,0,0,0,0,,,,,0,29,29,56,,,,,,,,,,,,,525.8970272745937,None,,,,,,,521.8986193174496,None,521.8986193174496,None,521.8986193174496,None,521.8986193174496,None,None,,521.8986193174496,None,521.8986193174496,None,None,None,None,None,None,None,None,None,None,None,None,,,,,,,,pilot,2022_Jun_14_1511,Hippopolis_Learning,2021.1.2,59.529814339496184,
Camponello,stimuli/subj_files/pilot_cityB.csv,./stimuli/leipzig.jpg,./stimuli/street_plate2.png,TELEFON,stimuli/objects/044a.jpg,object,0,stimuli/objects/044a.jpg,stimuli/scenes/039a.jpg,stimuli/objects/044a.jpg,stimuli/scenes/039b.jpg,stimuli/objects/044b.jpg,dist1,target,dist2,lure,0,0,0,0,,,,,0,30,30,35,,,,,,,,,,,,,529.0491766724735,None,,,,,,,526.9142868961208,None,526.9142868961208,None,526.9142868961208,None,526.9142868961208,None,right,2.0990484445355833,526.9142868961208,None,526.9142868961208,None,None,None,None,None,None,None,None,None,None,None,None,,,,,,,,pilot,2022_Jun_14_1511,Hippopolis_Learning,2021.1.2,59.529814339496184,
Camponello,stimuli/subj_files/pilot_cityB.csv,./stimuli/leipzig.jpg,./stimuli/street_plate2.png,SAPKA,stimuli/objects/029a.jpg,object,0,stimuli/objects/029a.jpg,stimuli/objects/029b.jpg,stimuli/objects/029a.jpg,stimuli/scenes/045a.jpg,stimuli/scenes/045b.jpg,lure,target,dist1,dist2,0,0,0,0,,,,,0,31,31,13,,,,,,,,,,,,,532.2274030391127,None,,,,,,,530.0678603928536,None,530.0678603928536,None,530.0678603928536,None,530.0678603928536,None,right,2.1296909898519516,530.0678603928536,None,530.0678603928536,None,None,None,None,None,None,None,None,None,None,None,None,,,,,,,,pilot,2022_Jun_14_1511,Hippopolis_Learning,2021.1.2,59.529814339496184,
Camponello,stimuli/subj_files/pilot_cityB.csv,./stimuli/leipzig.jpg,./stimuli/street_plate2.png,PISZTRÁNG,stimuli/objects/072a.jpg,object,0,stimuli/objects/072a.jpg,stimuli/objects/046b.jpg,stimuli/objects/072b.jpg,stimuli/objects/072a.jpg,stimuli/objects/046a.jpg,dist2,lure,target,dist1,0,0,0,0,,,,,0,32,32,49,,,,,,,,,,,,,536.6508798687719,None,,,,,,,533.2563204313628,None,533.2563204313628,None,533.2563204313628,None,533.2563204313628,None,left,3.3569786455482244,533.2563204313628,None,533.2563204313628,None,None,None,None,None,None,None,None,None,None,None,None,,,,,,,,pilot,2022_Jun_14_1511,Hippopolis_Learning,2021.1.2,59.529814339496184,
Camponello,stimuli/subj_files/pilot_cityB.csv,./stimuli/leipzig.jpg,./stimuli/street_plate2.png,MARTINI,stimuli/objects/067a.jpg,object,0,stimuli/objects/067a.jpg,stimuli/objects/067b.jpg,stimuli/scenes/009b.jpg,stimuli/objects/067a.jpg,stimuli/scenes/009a.jpg,lure,dist2,target,dist1,0,0,0,0,,,,,0,33,33,23,,,,,,,,,,,,,539.6033745459281,None,,,,,,,537.6824000752531,None,537.6824000752531,None,537.6824000752531,None,537.6824000752531,None,right,1.890813363250345,537.6824000752531,None,537.6824000752531,None,None,None,None,None,None,None,None,None,None,None,None,,,,,,,,pilot,2022_Jun_14_1511,Hippopolis_Learning,2021.1.2,59.529814339496184,
Camponello,stimuli/subj_files/pilot_cityB.csv,./stimuli/leipzig.jpg,./stimuli/street_plate2.png,BÖGRE,stimuli/scenes/002a.jpg,scene,1,stimuli/scenes/075a.jpg,stimuli/scenes/023a.jpg,stimuli/scenes/075a.jpg,stimuli/scenes/023b.jpg,stimuli/scenes/075b.jpg,dist1,target,dist2,lure,0,0,0,0,,,,,0,34,34,7,,,,,,,,,,,,,542.6736583020538,None,,,,,,,540.6336746732704,None,540.6336746732704,None,540.6336746732704,None,540.6336746732704,None,right,1.9953939928673208,540.6336746732704,None,540.6336746732704,None,None,None,None,None,None,None,None,None,None,None,None,,,,,,,,pilot,2022_Jun_14_1511,Hippopolis_Learning,2021.1.2,59.529814339496184,
Camponello,stimuli/subj_files/pilot_cityB.csv,./stimuli/leipzig.jpg,./stimuli/street_plate2.png,KALAPÁCS,stimuli/objects/049a.jpg,object,1,stimuli/objects/048a.jpg,stimuli/objects/022a.jpg,stimuli/objects/048b.jpg,stimuli/objects/048a.jpg,stimuli/objects/022b.jpg,dist1,lure,target,dist2,0,0,0,0,,,,,0,35,35,32,,,,,,,,,,,,,546.1075750007294,None,,,,,,,543.7017188714817,None,543.7017188714817,None,543.7017188714817,None,543.7017188714817,None,left,2.3676922004669905,543.7017188714817,None,543.7017188714817,None,None,None,None,None,None,None,None,None,None,None,None,,,,,,,,pilot,2022_Jun_14_1511,Hippopolis_Learning,2021.1.2,59.529814339496184,
Camponello,stimuli/subj_files/pilot_cityB.csv,./stimuli/leipzig.jpg,./stimuli/street_plate2.png,CSAVARHÚZÓ,stimuli/scenes/037a.jpg,scene,0,stimuli/scenes/037a.jpg,stimuli/objects/072a.jpg,stimuli/objects/072b.jpg,stimuli/scenes/037b.jpg,stimuli/scenes/037a.jpg,dist1,dist2,lure,target,0,0,0,0,,,,,0,36,36,57,,,,,,,,,,,,,549.8418683907948,None,,,,,,,547.1394892525859,None,547.1394892525859,None,547.1394892525859,None,547.1394892525859,None,right,2.6415496710687876,547.1394892525859,None,547.1394892525859,None,None,None,None,None,None,None,None,None,None,None,None,,,,,,,,pilot,2022_Jun_14_1511,Hippopolis_Learning,2021.1.2,59.529814339496184,
Camponello,stimuli/subj_files/pilot_cityB.csv,./stimuli/leipzig.jpg,./stimuli/street_plate2.png,MENTA,stimuli/scenes/042a.jpg,scene,0,stimuli/scenes/042a.jpg,stimuli/objects/028a.jpg,stimuli/objects/028b.jpg,stimuli/scenes/042a.jpg,stimuli/scenes/042b.jpg,dist1,dist2,target,lure,0,0,0,0,,,,,0,37,37,54,,,,,,,,,,,,,552.8991548707709,None,,,,,,,550.8644014396705,None,550.8644014396705,None,550.8644014396705,None,550.8644014396705,None,right,1.9887185473926365,550.8644014396705,None,550.8644014396705,None,None,None,None,None,None,None,None,None,None,None,None,,,,,,,,pilot,2022_Jun_14_1511,Hippopolis_Learning,2021.1.2,59.529814339496184,
Camponello,stimuli/subj_files/pilot_cityB.csv,./stimuli/leipzig.jpg,./stimuli/street_plate2.png,KANÁL,stimuli/objects/028a.jpg,object,0,stimuli/objects/028a.jpg,stimuli/objects/028b.jpg,stimuli/objects/050b.jpg,stimuli/objects/028a.jpg,stimuli/objects/050a.jpg,lure,dist2,target,dist1,0,0,0,0,,,,,0,38,38,26,,,,,,,,,,,,,561.8709627459757,None,,,,,,,553.9256868427619,None,553.9256868427619,None,553.9256868427619,None,553.9256868427619,None,right,3.087362371850759,553.9256868427619,None,553.9256868427619,None,557.0499566770159,None,557.0499566770159,None,557.0499566770159,None,557.0499566770159,None,space,557.0499566770159,None,4.778975706081837,,,,,,,pilot,2022_Jun_14_1511,Hippopolis_Learning,2021.1.2,59.529814339496184,
Camponello,stimuli/subj_files/pilot_cityB.csv,./stimuli/leipzig.jpg,./stimuli/street_plate2.png,MAJORÁNNA,stimuli/scenes/031a.jpg,scene,0,stimuli/scenes/031a.jpg,stimuli/objects/044b.jpg,stimuli/objects/044a.jpg,stimuli/scenes/031b.jpg,stimuli/scenes/031a.jpg,dist2,dist1,lure,target,0,0,0,0,,,,,0,39,39,3,,,,,,,,,,,,,564.5284950453788,None,,,,,,,562.8889750032686,None,562.8889750032686,None,562.8889750032686,None,562.8889750032686,None,right,1.5960917044430971,562.8889750032686,None,562.8889750032686,None,None,None,None,None,None,None,None,None,None,None,None,,,,,,,,pilot,2022_Jun_14_1511,Hippopolis_Learning,2021.1.2,59.529814339496184,
Camponello,stimuli/subj_files/pilot_cityB.csv,./stimuli/leipzig.jpg,./stimuli/street_plate2.png,HENTES,stimuli/objects/033a.jpg,object,1,stimuli/objects/015a.jpg,stimuli/objects/015b.jpg,stimuli/objects/091b.jpg,stimuli/objects/091a.jpg,stimuli/objects/015a.jpg,lure,dist2,dist1,target,0,0,0,0,,,,,0,40,40,42,,,,,,,,,,,,,567.8137692566961,None,,,,,,,565.5503258416429,None,565.5503258416429,None,565.5503258416429,None,565.5503258416429,None,right,2.2145917448215187,565.5503258416429,None,565.5503258416429,None,None,None,None,None,None,None,None,None,None,None,None,,,,,,,,pilot,2022_Jun_14_1511,Hippopolis_Learning,2021.1.2,59.529814339496184,
Camponello,stimuli/subj_files/pilot_cityB.csv,./stimuli/leipzig.jpg,./stimuli/street_plate2.png,BONBON,stimuli/objects/091a.jpg,object,0,stimuli/objects/091a.jpg,stimuli/objects/091a.jpg,stimuli/objects/091b.jpg,stimuli/scenes/069a.jpg,stimuli/scenes/069b.jpg,target,lure,dist1,dist2,0,0,0,0,,,,,0,41,41,24,,,,,,,,,,,,,570.0691964770667,None,,,,,,,568.8304357887246,None,568.8304357887246,None,568.8304357887246,None,568.8304357887246,None,left,1.2064707409590483,568.8304357887246,None,568.8304357887246,None,None,None,None,None,None,None,None,None,None,None,None,,,,,,,,pilot,2022_Jun_14_1511,Hippopolis_Learning,2021.1.2,59.529814339496184,
Camponello,stimuli/subj_files/pilot_cityB.csv,./stimuli/leipzig.jpg,./stimuli/street_plate2.png,KIRAKÓ,stimuli/scenes/032a.jpg,scene,0,stimuli/scenes/032a.jpg,stimuli/scenes/032a.jpg,stimuli/scenes/064a.jpg,stimuli/scenes/032b.jpg,stimuli/scenes/064b.jpg,target,dist1,lure,dist2,0,0,0,0,,,,,0,42,42,46,,,,,,,,,,,,,573.7360714147799,None,,,,,,,571.1001186179928,None,571.1001186179928,None,571.1001186179928,None,571.1001186179928,None,right,2.5847601797431707,571.1001186179928,None,571.1001186179928,None,None,None,None,None,None,None,None,None,None,None,None,,,,,,,,pilot,2022_Jun_14_1511,Hippopolis_Learning,2021.1.2,59.529814339496184,
Camponello,stimuli/subj_files/pilot_cityB.csv,./stimuli/leipzig.jpg,./stimuli/street_plate2.png,TENGER,stimuli/objects/061a.jpg,object,0,stimuli/objects/061a.jpg,stimuli/objects/016a.jpg,stimuli/objects/061a.jpg,stimuli/objects/016b.jpg,stimuli/objects/061b.jpg,dist1,target,dist2,lure,0,0,0,0,,,,,0,43,43,18,,,,,,,,,,,,,581.3817226407118,None,,,,,,,574.7707007536665,None,574.7707007536665,None,574.7707007536665,None,574.7707007536665,None,right,1.7141109285876155,574.7707007536665,None,574.7707007536665,None,576.5296914875507,None,576.5296914875507,None,576.5296914875507,None,576.5296914875507,None,space,576.5296914875507,None,4.819098043721169,,,,,,,pilot,2022_Jun_14_1511,Hippopolis_Learning,2021.1.2,59.529814339496184,
Camponello,stimuli/subj_files/pilot_cityB.csv,./stimuli/leipzig.jpg,./stimuli/street_plate2.png,BICIKLI,stimuli/scenes/010a.jpg,scene,0,stimuli/scenes/010a.jpg,stimuli/objects/052a.jpg,stimuli/objects/052b.jpg,stimuli/scenes/010a.jpg,stimuli/scenes/010b.jpg,dist1,dist2,target,lure,0,0,0,0,,,,,0,44,44,58,,,,,,,,,,,,,584.2276698825881,None,,,,,,,582.4146311804652,None,582.4146311804652,None,582.4146311804652,None,582.4146311804652,None,right,1.7821112740784883,582.4146311804652,None,582.4146311804652,None,None,None,None,None,None,None,None,None,None,None,None,,,,,,,,pilot,2022_Jun_14_1511,Hippopolis_Learning,2021.1.2,59.529814339496184,
Camponello,stimuli/subj_files/pilot_cityB.csv,./stimuli/leipzig.jpg,./stimuli/street_plate2.png,KÖTÉNY,stimuli/scenes/009a.jpg,scene,0,stimuli/scenes/009a.jpg,stimuli/scenes/009a.jpg,stimuli/scenes/009b.jpg,stimuli/objects/083a.jpg,stimuli/objects/083b.jpg,target,lure,dist1,dist2,0,0,0,0,,,,,0,45,45,20,,,,,,,,,,,,,587.8811192880385,None,,,,,,,585.2466549687088,None,585.2466549687088,None,585.2466549687088,None,585.2466549687088,None,left,2.581911359447986,585.2466549687088,None,585.2466549687088,None,None,None,None,None,None,None,None,None,None,None,None,,,,,,,,pilot,2022_Jun_14_1511,Hippopolis_Learning,2021.1.2,59.529814339496184,
Camponello,stimuli/subj_files/pilot_cityB.csv,./stimuli/leipzig.jpg,./stimuli/street_plate2.png,ZEBRA,stimuli/scenes/052a.jpg,scene,0,stimuli/scenes/052a.jpg,stimuli/scenes/004b.jpg,stimuli/scenes/052b.jpg,stimuli/scenes/004a.jpg,stimuli/scenes/052a.jpg,dist2,lure,dist1,target,0,0,0,0,,,,,0,46,46,4,,,,,,,,,,,,,590.8864804194309,None,,,,,,,588.898504245095,None,588.898504245095,None,588.898504245095,None,588.898504245095,None,right,1.9383398345671594,588.898504245095,None,588.898504245095,None,None,None,None,None,None,None,None,None,None,None,None,,,,,,,,pilot,2022_Jun_14_1511,Hippopolis_Learning,2021.1.2,59.529814339496184,
Camponello,stimuli/subj_files/pilot_cityB.csv,./stimuli/leipzig.jpg,./stimuli/street_plate2.png,PIZSAMA,stimuli/objects/071a.jpg,object,0,stimuli/objects/071a.jpg,stimuli/scenes/036b.jpg,stimuli/objects/071a.jpg,stimuli/scenes/036a.jpg,stimuli/objects/071b.jpg,dist2,target,dist1,lure,0,0,0,0,,,,,0,47,47,9,,,,,,,,,,,,,593.9526299652644,None,,,,,,,591.9209694946185,None,591.9209694946185,None,591.9209694946185,None,591.9209694946185,None,right,1.9877594029530883,591.9209694946185,None,591.9209694946185,None,None,None,None,None,None,None,None,None,None,None,None,,,,,,,,pilot,2022_Jun_14_1511,Hippopolis_Learning,2021.1.2,59.529814339496184,
Camponello,stimuli/subj_files/pilot_cityB.csv,./stimuli/leipzig.jpg,./stimuli/street_plate2.png,LÁMPA,stimuli/scenes/008a.jpg,scene,1,stimuli/scenes/076a.jpg,stimuli/scenes/076b.jpg,stimuli/scenes/076a.jpg,stimuli/scenes/032b.jpg,stimuli/scenes/032a.jpg,lure,target,dist2,dist1,0,0,0,0,,,,,0,48,48,55,,,,,,,,,,,,,597.523205134552,None,,,,,,,594.9876751201227,None,594.9876751201227,None,594.9876751201227,None,594.9876751201227,None,right,2.4889468257315457,594.9876751201227,None,594.9876751201227,None,None,None,None,None,None,None,None,None,None,None,None,,,,,,,,pilot,2022_Jun_14_1511,Hippopolis_Learning,2021.1.2,59.529814339496184,
Camponello,stimuli/subj_files/pilot_cityB.csv,./stimuli/leipzig.jpg,./stimuli/street_plate2.png,HEGESZTŐ,stimuli/scenes/082a.jpg,scene,2,stimuli/objects/094a.jpg,stimuli/objects/048b.jpg,stimuli/objects/094b.jpg,stimuli/objects/094a.jpg,stimuli/objects/048a.jpg,dist2,lure,target,dist1,0,0,0,0,,,,,0,49,49,59,,,,,,,,,,,,,600.895458557643,None,,,,,,,598.5444048983045,None,598.5444048983045,None,598.5444048983045,None,598.5444048983045,None,right,2.2920525996014476,598.5444048983045,None,598.5444048983045,None,None,None,None,None,None,None,None,None,None,None,None,,,,,,,,pilot,2022_Jun_14_1511,Hippopolis_Learning,2021.1.2,59.529814339496184,
Camponello,stimuli/subj_files/pilot_cityB.csv,./stimuli/leipzig.jpg,./stimuli/street_plate2.png,KENYÉR,stimuli/objects/089a.jpg,object,0,stimuli/objects/089a.jpg,stimuli/objects/089b.jpg,stimuli/objects/045b.jpg,stimuli/objects/089a.jpg,stimuli/objects/045a.jpg,lure,dist2,target,dist1,0,0,0,0,,,,,0,50,50,17,,,,,,,,,,,,,610.9664526525885,None,,,,,,,601.9247161909007,None,601.9247161909007,None,601.9247161909007,None,601.9247161909007,None,right,1.7277939743362367,601.9247161909007,None,601.9247161909007,None,603.6929988684133,None,603.6929988684133,None,603.6929988684133,None,603.6929988684133,None,space,603.6929988684133,None,7.239498395938426,,,,,,,pilot,2022_Jun_14_1511,Hippopolis_Learning,2021.1.2,59.529814339496184,
Camponello,stimuli/subj_files/pilot_cityB.csv,./stimuli/leipzig.jpg,./stimuli/street_plate2.png,RIBIZLI,stimuli/scenes/029a.jpg,scene,0,stimuli/scenes/029a.jpg,stimuli/scenes/029b.jpg,stimuli/objects/094a.jpg,stimuli/objects/094b.jpg,stimuli/scenes/029a.jpg,lure,dist1,dist2,target,0,0,0,0,,,,,0,51,51,48,,,,,,,,,,,,,619.1013181703165,None,,,,,,,611.9975716606714,None,611.9975716606714,None,611.9975716606714,None,611.9975716606714,None,right,1.1589483125135303,611.9975716606714,None,611.9975716606714,None,613.1961614945903,None,613.1961614945903,None,613.1961614945903,None,613.1961614945903,None,space,613.1961614945903,None,5.864032586105168,,,,,,,pilot,2022_Jun_14_1511,Hippopolis_Learning,2021.1.2,59.529814339496184,
Camponello,stimuli/subj_files/pilot_cityB.csv,./stimuli/leipzig.jpg,./stimuli/street_plate2.png,KAKAS,stimuli/scenes/083a.jpg,scene,0,stimuli/scenes/083a.jpg,stimuli/scenes/083b.jpg,stimuli/scenes/052a.jpg,stimuli/scenes/052b.jpg,stimuli/scenes/083a.jpg,lure,dist1,dist2,target,0,0,0,0,,,,,0,52,52,22,,,,,,,,,,,,,621.204236780759,None,,,,,,,620.123967224732,None,620.123967224732,None,620.123967224732,None,620.123967224732,None,left,1.032492102123797,620.123967224732,None,620.123967224732,None,None,None,None,None,None,None,None,None,None,None,None,,,,,,,,pilot,2022_Jun_14_1511,Hippopolis_Learning,2021.1.2,59.529814339496184,
Camponello,stimuli/subj_files/pilot_cityB.csv,./stimuli/leipzig.jpg,./stimuli/street_plate2.png,LIMONÁDÉ,stimuli/scenes/049a.jpg,scene,0,stimuli/scenes/049a.jpg,stimuli/objects/067a.jpg,stimuli/objects/067b.jpg,stimuli/scenes/049a.jpg,stimuli/scenes/049b.jpg,dist1,dist2,target,lure,0,0,0,0,,,,,0,53,53,34,,,,,,,,,,,,,626.2281976607628,None,,,,,,,622.2376740314066,None,622.2376740314066,None,622.2376740314066,None,622.2376740314066,None,None,,622.2376740314066,None,622.2376740314066,None,None,None,None,None,None,None,None,None,None,None,None,,,,,,,,pilot,2022_Jun_14_1511,Hippopolis_Learning,2021.1.2,59.529814339496184,
Camponello,stimuli/subj_files/pilot_cityB.csv,./stimuli/leipzig.jpg,./stimuli/street_plate2.png,LÁNDZSA,stimuli/scenes/047a.jpg,scene,0,stimuli/scenes/047a.jpg,stimuli/scenes/047b.jpg,stimuli/scenes/007a.jpg,stimuli/scenes/007b.jpg,stimuli/scenes/047a.jpg,lure,dist1,dist2,target,0,0,0,0,,,,,0,54,54,47,,,,,,,,,,,,,628.9458186100237,None,,,,,,,627.2454790528864,None,627.2454790528864,None,627.2454790528864,None,627.2454790528864,None,right,1.6546032396145165,627.2454790528864,None,627.2454790528864,None,None,None,None,None,None,None,None,None,None,None,None,,,,,,,,pilot,2022_Jun_14_1511,Hippopolis_Learning,2021.1.2,59.529814339496184,
Camponello,stimuli/subj_files/pilot_cityB.csv,./stimuli/leipzig.jpg,./stimuli/street_plate2.png,TISZTÁS,stimuli/objects/053a.jpg,object,1,stimuli/objects/025a.jpg,stimuli/scenes/025b.jpg,stimuli/objects/025b.jpg,stimuli/scenes/025a.jpg,stimuli/objects/025a.jpg,dist2,lure,dist1,target,0,0,0,0,,,,,0,55,55,11,,,,,,,,,,,,,635.0808694874868,None,,,,,,,629.9630670351908,None,629.9630670351908,None,629.9630670351908,None,629.9630670351908,None,right,1.4650565441697836,629.9630670351908,None,629.9630670351908,None,631.4881932572462,None,631.4881932572462,None,631.4881932572462,None,631.4881932572462,None,space,631.4881932572462,None,3.5563316899351776,,,,,,,pilot,2022_Jun_14_1511,Hippopolis_Learning,2021.1.2,59.529814339496184,
Camponello,stimuli/subj_files/pilot_cityB.csv,./stimuli/leipzig.jpg,./stimuli/street_plate2.png,ZSÁLYA,stimuli/scenes/069a.jpg,scene,0,stimuli/scenes/069a.jpg,stimuli/scenes/069a.jpg,stimuli/scenes/069b.jpg,stimuli/scenes/047a.jpg,stimuli/scenes/047b.jpg,target,lure,dist1,dist2,0,0,0,0,,,,,0,56,56,41,,,,,,,,,,,,,639.5771573130041,None,,,,,,,636.1141014741734,None,636.1141014741734,None,636.1141014741734,None,636.1141014741734,None,left,3.409875578712672,636.1141014741734,None,636.1141014741734,None,None,None,None,None,None,None,None,None,None,None,None,,,,,,,,pilot,2022_Jun_14_1511,Hippopolis_Learning,2021.1.2,59.529814339496184,
Camponello,stimuli/subj_files/pilot_cityB.csv,./stimuli/leipzig.jpg,./stimuli/street_plate2.png,ANANÁSZ,stimuli/scenes/088a.jpg,scene,1,stimuli/scenes/048a.jpg,stimuli/scenes/078a.jpg,stimuli/scenes/048a.jpg,stimuli/scenes/078b.jpg,stimuli/scenes/048b.jpg,dist1,target,dist2,lure,0,0,0,0,,,,,0,57,57,36,,,,,,,,,,,,,651.2954459926113,None,,,,,,,640.5959452204406,None,640.5959452204406,None,640.5959452204406,None,640.5959452204406,None,right,2.2401630175299942,640.5959452204406,None,640.5959452204406,None,642.8842980861664,None,642.8842980861664,None,642.8842980861664,None,642.8842980861664,None,space,642.8842980861664,None,8.383703130297363,,,,,,,pilot,2022_Jun_14_1511,Hippopolis_Learning,2021.1.2,59.529814339496184,
Camponello,stimuli/subj_files/pilot_cityB.csv,./stimuli/leipzig.jpg,./stimuli/street_plate2.png,TIGRIS,stimuli/scenes/003a.jpg,scene,2,stimuli/objects/084a.jpg,stimuli/objects/084b.jpg,stimuli/scenes/076b.jpg,stimuli/objects/084a.jpg,stimuli/scenes/076a.jpg,lure,dist2,target,dist1,0,0,0,0,,,,,0,58,58,45,,,,,,,,,,,,,661.5564999445342,None,,,,,,,652.3141539720818,None,652.3141539720818,None,652.3141539720818,None,652.3141539720818,None,right,1.6098304204642773,652.3141539720818,None,652.3141539720818,None,653.9734412818216,None,653.9734412818216,None,653.9734412818216,None,653.9734412818216,None,space,653.9734412818216,None,7.550417277496308,,,,,,,pilot,2022_Jun_14_1511,Hippopolis_Learning,2021.1.2,59.529814339496184,
Camponello,stimuli/subj_files/pilot_cityB.csv,./stimuli/leipzig.jpg,./stimuli/street_plate2.png,TÁNYÉR,stimuli/scenes/039a.jpg,scene,0,stimuli/scenes/039a.jpg,stimuli/scenes/041a.jpg,stimuli/scenes/041b.jpg,stimuli/scenes/039b.jpg,stimuli/scenes/039a.jpg,dist1,dist2,lure,target,0,0,0,0,,,,,0,59,59,15,,,,,,,,,,,,,664.2750756833702,None,,,,,,,662.5819496130571,None,662.5819496130571,None,662.5819496130571,None,662.5819496130571,None,right,1.6457560351118445,662.5819496130571,None,662.5819496130571,None,None,None,None,None,None,None,None,None,None,None,None,,,,,,,,pilot,2022_Jun_14_1511,Hippopolis_Learning,2021.1.2,59.529814339496184,
Hippopolis,stimuli/subj_files/pilot_cityA.csv,./stimuli/frankfurt.jpg,./stimuli/street_plate1.png,TÖLCSÉR,stimuli/scenes/027a.jpg,scene,0,stimuli/scenes/027a.jpg,stimuli/objects/098b.jpg,stimuli/objects/098a.jpg,stimuli/scenes/027a.jpg,stimuli/scenes/027b.jpg,dist2,dist1,target,lure,0,1,1,1,0,0,0,5,,,,,686.5210744282231,None,686.5210744282231,None,689.5408550691791,None,689.5408550691791,None,689.5408550691791,None,689.5408550691791,None,692.4620369812474,None,,,,,,,,,,,,,,,,,,,,,,,,,,,,,,,,,665.2869713744149,None,space,21.13264275342226,665.2869713744149,None,pilot,2022_Jun_14_1511,Hippopolis_Learning,2021.1.2,59.529814339496184,
Hippopolis,stimuli/subj_files/pilot_cityA.csv,./stimuli/frankfurt.jpg,./stimuli/street_plate1.png,ÁRNYÉK,stimuli/scenes/013a.jpg,scene,0,stimuli/scenes/013a.jpg,stimuli/scenes/067a.jpg,stimuli/scenes/013b.jpg,stimuli/scenes/067b.jpg,stimuli/scenes/013a.jpg,dist1,lure,dist2,target,0,1,1,1,0,1,1,17,,,,,,,,,693.5112553285435,None,693.5112553285435,None,693.5112553285435,None,693.5112553285435,None,696.4619928183965,None,,,,,,,,,,,,,,,,,,,,,,,,,,,,,,,,,,,,,,,pilot,2022_Jun_14_1511,Hippopolis_Learning,2021.1.2,59.529814339496184,
Hippopolis,stimuli/subj_files/pilot_cityA.csv,./stimuli/frankfurt.jpg,./stimuli/street_plate1.png,VÁSÁR,stimuli/objects/013a.jpg,object,1,stimuli/objects/069a.jpg,stimuli/objects/069b.jpg,stimuli/scenes/043a.jpg,stimuli/scenes/043b.jpg,stimuli/objects/069a.jpg,lure,dist1,dist2,target,0,1,1,1,0,2,2,22,,,,,,,,,697.4998059319332,None,697.4998059319332,None,697.4998059319332,None,697.4998059319332,None,700.4626409560442,None,,,,,,,,,,,,,,,,,,,,,,,,,,,,,,,,,,,,,,,pilot,2022_Jun_14_1511,Hippopolis_Learning,2021.1.2,59.529814339496184,
Hippopolis,stimuli/subj_files/pilot_cityA.csv,./stimuli/frankfurt.jpg,./stimuli/street_plate1.png,HARMONIKA,stimuli/scenes/001a.jpg,scene,2,stimuli/objects/097a.jpg,stimuli/scenes/028b.jpg,stimuli/objects/097a.jpg,stimuli/objects/097b.jpg,stimuli/scenes/028a.jpg,dist2,target,lure,dist1,0,1,1,1,0,3,3,20,,,,,,,,,701.5046697640792,None,701.5046697640792,None,701.5046697640792,None,701.5046697640792,None,704.4699825774878,None,,,,,,,,,,,,,,,,,,,,,,,,,,,,,,,,,,,,,,,pilot,2022_Jun_14_1511,Hippopolis_Learning,2021.1.2,59.529814339496184,
Hippopolis,stimuli/subj_files/pilot_cityA.csv,./stimuli/frankfurt.jpg,./stimuli/street_plate1.png,ÁLLOMÁS,stimuli/scenes/090a.jpg,scene,1,stimuli/scenes/086a.jpg,stimuli/scenes/086b.jpg,stimuli/scenes/056b.jpg,stimuli/scenes/056a.jpg,stimuli/scenes/086a.jpg,lure,dist2,dist1,target,0,1,1,1,0,4,4,34,,,,,,,,,705.509080148302,None,705.509080148302,None,705.509080148302,None,705.509080148302,None,708.4619707367383,None,,,,,,,,,,,,,,,,,,,,,,,,,,,,,,,,,,,,,,,pilot,2022_Jun_14_1511,Hippopolis_Learning,2021.1.2,59.529814339496184,
Hippopolis,stimuli/subj_files/pilot_cityA.csv,./stimuli/frankfurt.jpg,./stimuli/street_plate1.png,KULACS,stimuli/scenes/035a.jpg,scene,2,stimuli/objects/009a.jpg,stimuli/objects/003a.jpg,stimuli/objects/009b.jpg,stimuli/objects/003b.jpg,stimuli/objects/009a.jpg,dist1,lure,dist2,target,0,1,1,1,0,5,5,24,,,,,,,,,709.4878076086752,None,709.4878076086752,None,709.4878076086752,None,709.4878076086752,None,712.4645468043163,None,,,,,,,,,,,,,,,,,,,,,,,,,,,,,,,,,,,,,,,pilot,2022_Jun_14_1511,Hippopolis_Learning,2021.1.2,59.529814339496184,
Hippopolis,stimuli/subj_files/pilot_cityA.csv,./stimuli/frankfurt.jpg,./stimuli/street_plate1.png,KESELYŰ,stimuli/scenes/070a.jpg,scene,1,stimuli/scenes/072a.jpg,stimuli/objects/092b.jpg,stimuli/scenes/072a.jpg,stimuli/scenes/072b.jpg,stimuli/objects/092a.jpg,dist2,target,lure,dist1,0,1,1,1,0,6,6,46,,,,,,,,,713.4996516727842,None,713.4996516727842,None,713.4996516727842,None,713.4996516727842,None,716.4523488152772,None,,,,,,,,,,,,,,,,,,,,,,,,,,,,,,,,,,,,,,,pilot,2022_Jun_14_1511,Hippopolis_Learning,2021.1.2,59.529814339496184,
Hippopolis,stimuli/subj_files/pilot_cityA.csv,./stimuli/frankfurt.jpg,./stimuli/street_plate1.png,SIRÁLY,stimuli/objects/042a.jpg,object,2,stimuli/scenes/028a.jpg,stimuli/objects/073a.jpg,stimuli/scenes/028a.jpg,stimuli/scenes/028b.jpg,stimuli/objects/073b.jpg,dist1,target,lure,dist2,0,1,1,1,0,7,7,30,,,,,,,,,717.5122371762991,None,717.5122371762991,None,717.5122371762991,None,717.5122371762991,None,720.4560734299012,None,,,,,,,,,,,,,,,,,,,,,,,,,,,,,,,,,,,,,,,pilot,2022_Jun_14_1511,Hippopolis_Learning,2021.1.2,59.529814339496184,
Hippopolis,stimuli/subj_files/pilot_cityA.csv,./stimuli/frankfurt.jpg,./stimuli/street_plate1.png,MUNKA,stimuli/scenes/077a.jpg,scene,0,stimuli/scenes/077a.jpg,stimuli/scenes/077b.jpg,stimuli/objects/096b.jpg,stimuli/objects/096a.jpg,stimuli/scenes/077a.jpg,lure,dist2,dist1,target,0,1,1,1,0,8,8,23,,,,,,,,,721.4973869225942,None,721.4973869225942,None,721.4973869225942,None,721.4973869225942,None,724.467348351609,None,,,,,,,,,,,,,,,,,,,,,,,,,,,,,,,,,,,,,,,pilot,2022_Jun_14_1511,Hippopolis_Learning,2021.1.2,59.529814339496184,
Hippopolis,stimuli/subj_files/pilot_cityA.csv,./stimuli/frankfurt.jpg,./stimuli/street_plate1.png,SALÁTA,stimuli/scenes/068a.jpg,scene,1,stimuli/scenes/065a.jpg,stimuli/scenes/089b.jpg,stimuli/scenes/089a.jpg,stimuli/scenes/065a.jpg,stimuli/scenes/065b.jpg,dist2,dist1,target,lure,0,1,1,1,0,9,9,1,,,,,,,,,725.501420989167,None,725.501420989167,None,725.501420989167,None,725.501420989167,None,728.448176661972,None,,,,,,,,,,,,,,,,,,,,,,,,,,,,,,,,,,,,,,,pilot,2022_Jun_14_1511,Hippopolis_Learning,2021.1.2,59.529814339496184,
Hippopolis,stimuli/subj_files/pilot_cityA.csv,./stimuli/frankfurt.jpg,./stimuli/street_plate1.png,LEPKE,stimuli/scenes/071a.jpg,scene,2,stimuli/objects/017a.jpg,stimuli/objects/017a.jpg,stimuli/scenes/027b.jpg,stimuli/objects/017b.jpg,stimuli/scenes/027a.jpg,target,dist2,lure,dist1,0,1,1,1,0,10,10,10,,,,,,,,,729.5066001820378,None,729.5066001820378,None,729.5066001820378,None,729.5066001820378,None,732.4616121463478,None,,,,,,,,,,,,,,,,,,,,,,,,,,,,,,,,,,,,,,,pilot,2022_Jun_14_1511,Hippopolis_Learning,2021.1.2,59.529814339496184,
Hippopolis,stimuli/subj_files/pilot_cityA.csv,./stimuli/frankfurt.jpg,./stimuli/street_plate1.png,ÁLOM,stimuli/scenes/062a.jpg,scene,2,stimuli/objects/096a.jpg,stimuli/objects/096b.jpg,stimuli/scenes/024a.jpg,stimuli/scenes/024b.jpg,stimuli/objects/096a.jpg,lure,dist1,dist2,target,0,1,1,1,0,11,11,51,,,,,,,,,733.4957622243091,None,733.4957622243091,None,733.4957622243091,None,733.4957622243091,None,736.448927431833,None,,,,,,,,,,,,,,,,,,,,,,,,,,,,,,,,,,,,,,,pilot,2022_Jun_14_1511,Hippopolis_Learning,2021.1.2,59.529814339496184,
Hippopolis,stimuli/subj_files/pilot_cityA.csv,./stimuli/frankfurt.jpg,./stimuli/street_plate1.png,EGÉR,stimuli/scenes/055a.jpg,scene,2,stimuli/objects/051a.jpg,stimuli/scenes/086b.jpg,stimuli/scenes/086a.jpg,stimuli/objects/051b.jpg,stimuli/objects/051a.jpg,dist2,dist1,lure,target,0,1,1,1,0,12,12,43,,,,,,,,,737.499128870666,None,737.499128870666,None,737.499128870666,None,737.499128870666,None,740.4548070109449,None,,,,,,,,,,,,,,,,,,,,,,,,,,,,,,,,,,,,,,,pilot,2022_Jun_14_1511,Hippopolis_Learning,2021.1.2,59.529814339496184,
Hippopolis,stimuli/subj_files/pilot_cityA.csv,./stimuli/frankfurt.jpg,./stimuli/street_plate1.png,SZITAKÖTŐ,stimuli/objects/005a.jpg,object,1,stimuli/objects/010a.jpg,stimuli/objects/010b.jpg,stimuli/objects/010a.jpg,stimuli/objects/034b.jpg,stimuli/objects/034a.jpg,lure,target,dist2,dist1,0,1,1,1,0,13,13,3,,,,,,,,,741.4979106578976,None,741.4979106578976,None,741.4979106578976,None,741.4979106578976,None,744.4479496269487,None,,,,,,,,,,,,,,,,,,,,,,,,,,,,,,,,,,,,,,,pilot,2022_Jun_14_1511,Hippopolis_Learning,2021.1.2,59.529814339496184,
Hippopolis,stimuli/subj_files/pilot_cityA.csv,./stimuli/frankfurt.jpg,./stimuli/street_plate1.png,MAJOM,stimuli/scenes/073a.jpg,scene,2,stimuli/objects/065a.jpg,stimuli/objects/065b.jpg,stimuli/scenes/074b.jpg,stimuli/scenes/074a.jpg,stimuli/objects/065a.jpg,lure,dist2,dist1,target,0,1,1,1,0,14,14,57,,,,,,,,,745.4985454222187,None,745.4985454222187,None,745.4985454222187,None,745.4985454222187,None,748.452896497678,None,,,,,,,,,,,,,,,,,,,,,,,,,,,,,,,,,,,,,,,pilot,2022_Jun_14_1511,Hippopolis_Learning,2021.1.2,59.529814339496184,
Hippopolis,stimuli/subj_files/pilot_cityA.csv,./stimuli/frankfurt.jpg,./stimuli/street_plate1.png,OROSZLÁN,stimuli/objects/040a.jpg,object,0,stimuli/objects/040a.jpg,stimuli/objects/040a.jpg,stimuli/objects/040b.jpg,stimuli/objects/097a.jpg,stimuli/objects/097b.jpg,target,lure,dist1,dist2,0,1,1,1,0,15,15,45,,,,,,,,,749.4859804450534,None,749.4859804450534,None,749.4859804450534,None,749.4859804450534,None,752.4614118579775,None,,,,,,,,,,,,,,,,,,,,,,,,,,,,,,,,,,,,,,,pilot,2022_Jun_14_1511,Hippopolis_Learning,2021.1.2,59.529814339496184,
Hippopolis,stimuli/subj_files/pilot_cityA.csv,./stimuli/frankfurt.jpg,./stimuli/street_plate1.png,EPER,stimuli/objects/085a.jpg,object,1,stimuli/objects/062a.jpg,stimuli/objects/007a.jpg,stimuli/objects/007b.jpg,stimuli/objects/062b.jpg,stimuli/objects/062a.jpg,dist1,dist2,lure,target,0,1,1,1,0,16,16,40,,,,,,,,,753.5058932639658,None,753.5058932639658,None,753.5058932639658,None,753.5058932639658,None,756.4613154460676,None,,,,,,,,,,,,,,,,,,,,,,,,,,,,,,,,,,,,,,,pilot,2022_Jun_14_1511,Hippopolis_Learning,2021.1.2,59.529814339496184,
Hippopolis,stimuli/subj_files/pilot_cityA.csv,./stimuli/frankfurt.jpg,./stimuli/street_plate1.png,NARANCS,stimuli/scenes/016a.jpg,scene,0,stimuli/scenes/016a.jpg,stimuli/scenes/016b.jpg,stimuli/scenes/013a.jpg,stimuli/scenes/016a.jpg,stimuli/scenes/013b.jpg,lure,dist1,target,dist2,0,1,1,1,0,17,17,32,,,,,,,,,757.4747904282995,None,757.4747904282995,None,757.4747904282995,None,757.4747904282995,None,760.4610638418235,None,,,,,,,,,,,,,,,,,,,,,,,,,,,,,,,,,,,,,,,pilot,2022_Jun_14_1511,Hippopolis_Learning,2021.1.2,59.529814339496184,
Hippopolis,stimuli/subj_files/pilot_cityA.csv,./stimuli/frankfurt.jpg,./stimuli/street_plate1.png,FEJSZE,stimuli/objects/008a.jpg,object,1,stimuli/objects/098a.jpg,stimuli/objects/058a.jpg,stimuli/objects/098b.jpg,stimuli/objects/058b.jpg,stimuli/objects/098a.jpg,dist1,lure,dist2,target,0,1,1,1,0,18,18,44,,,,,,,,,761.494215588551,None,761.494215588551,None,761.494215588551,None,761.494215588551,None,764.4484630986117,None,,,,,,,,,,,,,,,,,,,,,,,,,,,,,,,,,,,,,,,pilot,2022_Jun_14_1511,Hippopolis_Learning,2021.1.2,59.529814339496184,
Hippopolis,stimuli/subj_files/pilot_cityA.csv,./stimuli/frankfurt.jpg,./stimuli/street_plate1.png,SZILVA,stimuli/scenes/021a.jpg,scene,1,stimuli/scenes/061a.jpg,stimuli/objects/051b.jpg,stimuli/scenes/061b.jpg,stimuli/scenes/061a.jpg,stimuli/objects/051a.jpg,dist2,lure,target,dist1,0,1,1,1,0,19,19,8,,,,,,,,,765.4658841327764,None,765.4658841327764,None,765.4658841327764,None,765.4658841327764,None,768.4576163338497,None,,,,,,,,,,,,,,,,,,,,,,,,,,,,,,,,,,,,,,,pilot,2022_Jun_14_1511,Hippopolis_Learning,2021.1.2,59.529814339496184,
Hippopolis,stimuli/subj_files/pilot_cityA.csv,./stimuli/frankfurt.jpg,./stimuli/street_plate1.png,KESZTYŰ,stimuli/objects/038a.jpg,object,1,stimuli/objects/011a.jpg,stimuli/objects/031a.jpg,stimuli/objects/011a.jpg,stimuli/objects/031b.jpg,stimuli/objects/011b.jpg,dist1,target,dist2,lure,0,1,1,1,0,20,20,16,,,,,,,,,769.4916109084152,None,769.4916109084152,None,769.4916109084152,None,769.4916109084152,None,772.461187933106,None,,,,,,,,,,,,,,,,,,,,,,,,,,,,,,,,,,,,,,,pilot,2022_Jun_14_1511,Hippopolis_Learning,2021.1.2,59.529814339496184,
Hippopolis,stimuli/subj_files/pilot_cityA.csv,./stimuli/frankfurt.jpg,./stimuli/street_plate1.png,SZŐNYEG,stimuli/objects/076a.jpg,object,2,stimuli/scenes/044a.jpg,stimuli/scenes/044b.jpg,stimuli/objects/065a.jpg,stimuli/scenes/044a.jpg,stimuli/objects/065b.jpg,lure,dist1,target,dist2,0,1,1,1,0,21,21,47,,,,,,,,,773.488417181652,None,773.488417181652,None,773.488417181652,None,773.488417181652,None,776.4611005405895,None,,,,,,,,,,,,,,,,,,,,,,,,,,,,,,,,,,,,,,,pilot,2022_Jun_14_1511,Hippopolis_Learning,2021.1.2,59.529814339496184,
Hippopolis,stimuli/subj_files/pilot_cityA.csv,./stimuli/frankfurt.jpg,./stimuli/street_plate1.png,SZÖCSKE,stimuli/objects/035a.jpg,object,2,stimuli/scenes/059a.jpg,stimuli/objects/011a.jpg,stimuli/scenes/059b.jpg,stimuli/scenes/059a.jpg,stimuli/objects/011b.jpg,dist1,lure,target,dist2,0,1,1,1,0,22,22,53,,,,,,,,,777.4901426462457,None,777.4901426462457,None,777.4901426462457,None,777.4901426462457,None,780.4467727779411,None,,,,,,,,,,,,,,,,,,,,,,,,,,,,,,,,,,,,,,,pilot,2022_Jun_14_1511,Hippopolis_Learning,2021.1.2,59.529814339496184,
Hippopolis,stimuli/subj_files/pilot_cityA.csv,./stimuli/frankfurt.jpg,./stimuli/street_plate1.png,SZÁMOLÓGÉP,stimuli/scenes/038a.jpg,scene,0,stimuli/scenes/038a.jpg,stimuli/scenes/022a.jpg,stimuli/scenes/038b.jpg,stimuli/scenes/022b.jpg,stimuli/scenes/038a.jpg,dist1,lure,dist2,target,0,1,1,1,0,23,23,28,,,,,,,,,781.4788552843966,None,781.4788552843966,None,781.4788552843966,None,781.4788552843966,None,784.4463591394015,None,,,,,,,,,,,,,,,,,,,,,,,,,,,,,,,,,,,,,,,pilot,2022_Jun_14_1511,Hippopolis_Learning,2021.1.2,59.529814339496184,
Hippopolis,stimuli/subj_files/pilot_cityA.csv,./stimuli/frankfurt.jpg,./stimuli/street_plate1.png,REPÜLŐ,stimuli/scenes/015a.jpg,scene,0,stimuli/scenes/015a.jpg,stimuli/scenes/015a.jpg,stimuli/objects/095b.jpg,stimuli/scenes/015b.jpg,stimuli/objects/095a.jpg,target,dist2,lure,dist1,0,1,1,1,0,24,24,35,,,,,,,,,785.4805067293346,None,785.4805067293346,None,785.4805067293346,None,785.4805067293346,None,788.4561154157855,None,,,,,,,,,,,,,,,,,,,,,,,,,,,,,,,,,,,,,,,pilot,2022_Jun_14_1511,Hippopolis_Learning,2021.1.2,59.529814339496184,
Hippopolis,stimuli/subj_files/pilot_cityA.csv,./stimuli/frankfurt.jpg,./stimuli/street_plate1.png,PETREZSELYEM,stimuli/objects/027a.jpg,object,2,stimuli/scenes/060a.jpg,stimuli/scenes/015b.jpg,stimuli/scenes/060b.jpg,stimuli/scenes/060a.jpg,stimuli/scenes/015a.jpg,dist2,lure,target,dist1,0,1,1,1,0,25,25,15,,,,,,,,,789.4887947440147,None,789.4887947440147,None,789.4887947440147,None,789.4887947440147,None,792.4677367988043,None,,,,,,,,,,,,,,,,,,,,,,,,,,,,,,,,,,,,,,,pilot,2022_Jun_14_1511,Hippopolis_Learning,2021.1.2,59.529814339496184,
Hippopolis,stimuli/subj_files/pilot_cityA.csv,./stimuli/frankfurt.jpg,./stimuli/street_plate1.png,RÁDIÓ,stimuli/objects/092a.jpg,object,0,stimuli/objects/092a.jpg,stimuli/objects/062b.jpg,stimuli/objects/092b.jpg,stimuli/objects/062a.jpg,stimuli/objects/092a.jpg,dist2,lure,dist1,target,0,1,1,1,0,26,26,6,,,,,,,,,793.4848698405549,None,793.4848698405549,None,793.4848698405549,None,793.4848698405549,None,796.4608377399854,None,,,,,,,,,,,,,,,,,,,,,,,,,,,,,,,,,,,,,,,pilot,2022_Jun_14_1511,Hippopolis_Learning,2021.1.2,59.529814339496184,
Hippopolis,stimuli/subj_files/pilot_cityA.csv,./stimuli/frankfurt.jpg,./stimuli/street_plate1.png,ZONGORA,stimuli/scenes/017a.jpg,scene,1,stimuli/scenes/053a.jpg,stimuli/scenes/053b.jpg,stimuli/objects/078b.jpg,stimuli/scenes/053a.jpg,stimuli/objects/078a.jpg,lure,dist2,target,dist1,0,1,1,1,0,27,27,25,,,,,,,,,797.487733900547,None,797.487733900547,None,797.487733900547,None,797.487733900547,None,800.4609727165662,None,,,,,,,,,,,,,,,,,,,,,,,,,,,,,,,,,,,,,,,pilot,2022_Jun_14_1511,Hippopolis_Learning,2021.1.2,59.529814339496184,
Hippopolis,stimuli/subj_files/pilot_cityA.csv,./stimuli/frankfurt.jpg,./stimuli/street_plate1.png,MEDVE,stimuli/scenes/034a.jpg,scene,1,stimuli/scenes/022a.jpg,stimuli/scenes/022b.jpg,stimuli/scenes/012a.jpg,stimuli/scenes/012b.jpg,stimuli/scenes/022a.jpg,lure,dist1,dist2,target,0,1,1,1,0,28,28,0,,,,,,,,,801.4888062509708,None,801.4888062509708,None,801.4888062509708,None,801.4888062509708,None,804.4605855136178,None,,,,,,,,,,,,,,,,,,,,,,,,,,,,,,,,,,,,,,,pilot,2022_Jun_14_1511,Hippopolis_Learning,2021.1.2,59.529814339496184,
Hippopolis,stimuli/subj_files/pilot_cityA.csv,./stimuli/frankfurt.jpg,./stimuli/street_plate1.png,PULÓVER,stimuli/scenes/020a.jpg,scene,0,stimuli/scenes/020a.jpg,stimuli/objects/088b.jpg,stimuli/objects/088a.jpg,stimuli/scenes/020b.jpg,stimuli/scenes/020a.jpg,dist2,dist1,lure,target,0,1,1,1,0,29,29,39,,,,,,,,,805.4800501717255,None,805.4800501717255,None,805.4800501717255,None,805.4800501717255,None,808.4628760768101,None,,,,,,,,,,,,,,,,,,,,,,,,,,,,,,,,,,,,,,,pilot,2022_Jun_14_1511,Hippopolis_Learning,2021.1.2,59.529814339496184,
Hippopolis,stimuli/subj_files/pilot_cityA.csv,./stimuli/frankfurt.jpg,./stimuli/street_plate1.png,SZALVÉTA,stimuli/objects/074a.jpg,object,1,stimuli/objects/088a.jpg,stimuli/objects/088a.jpg,stimuli/objects/088b.jpg,stimuli/objects/010b.jpg,stimuli/objects/010a.jpg,target,lure,dist2,dist1,0,1,1,1,0,30,30,50,,,,,,,,,809.4962775623426,None,809.4962775623426,None,809.4962775623426,None,809.4962775623426,None,812.4467970365658,None,,,,,,,,,,,,,,,,,,,,,,,,,,,,,,,,,,,,,,,pilot,2022_Jun_14_1511,Hippopolis_Learning,2021.1.2,59.529814339496184,
Hippopolis,stimuli/subj_files/pilot_cityA.csv,./stimuli/frankfurt.jpg,./stimuli/street_plate1.png,SZOMSZÉD,stimuli/objects/066a.jpg,object,0,stimuli/objects/066a.jpg,stimuli/objects/066b.jpg,stimuli/scenes/011b.jpg,stimuli/scenes/011a.jpg,stimuli/objects/066a.jpg,lure,dist2,dist1,target,0,1,1,1,0,31,31,13,,,,,,,,,813.4803652213886,None,813.4803652213886,None,813.4803652213886,None,813.4803652213886,None,816.4685687413439,None,,,,,,,,,,,,,,,,,,,,,,,,,,,,,,,,,,,,,,,pilot,2022_Jun_14_1511,Hippopolis_Learning,2021.1.2,59.529814339496184,
Hippopolis,stimuli/subj_files/pilot_cityA.csv,./stimuli/frankfurt.jpg,./stimuli/street_plate1.png,MOSODA,stimuli/objects/059a.jpg,object,1,stimuli/objects/064a.jpg,stimuli/objects/064b.jpg,stimuli/objects/064a.jpg,stimuli/scenes/016b.jpg,stimuli/scenes/016a.jpg,lure,target,dist2,dist1,0,1,1,1,0,32,32,11,,,,,,,,,817.5003980887122,None,817.5003980887122,None,817.5003980887122,None,817.5003980887122,None,820.4711124645546,None,,,,,,,,,,,,,,,,,,,,,,,,,,,,,,,,,,,,,,,pilot,2022_Jun_14_1511,Hippopolis_Learning,2021.1.2,59.529814339496184,
Hippopolis,stimuli/subj_files/pilot_cityA.csv,./stimuli/frankfurt.jpg,./stimuli/street_plate1.png,FIÓK,stimuli/objects/023a.jpg,object,2,stimuli/scenes/067a.jpg,stimuli/scenes/067b.jpg,stimuli/scenes/067a.jpg,stimuli/objects/064a.jpg,stimuli/objects/064b.jpg,lure,target,dist1,dist2,0,1,1,1,0,33,33,54,,,,,,,,,821.5055296970531,None,821.5055296970531,None,821.5055296970531,None,821.5055296970531,None,824.4604352973402,None,,,,,,,,,,,,,,,,,,,,,,,,,,,,,,,,,,,,,,,pilot,2022_Jun_14_1511,Hippopolis_Learning,2021.1.2,59.529814339496184,
Hippopolis,stimuli/subj_files/pilot_cityA.csv,./stimuli/frankfurt.jpg,./stimuli/street_plate1.png,DOMINÓ,stimuli/scenes/081a.jpg,scene,2,stimuli/objects/030a.jpg,stimuli/objects/030a.jpg,stimuli/scenes/066a.jpg,stimuli/objects/030b.jpg,stimuli/scenes/066b.jpg,target,dist1,lure,dist2,0,1,1,1,0,34,34,38,,,,,,,,,825.4960788288154,None,825.4960788288154,None,825.4960788288154,None,825.4960788288154,None,828.4467575387098,None,,,,,,,,,,,,,,,,,,,,,,,,,,,,,,,,,,,,,,,pilot,2022_Jun_14_1511,Hippopolis_Learning,2021.1.2,59.529814339496184,
Hippopolis,stimuli/subj_files/pilot_cityA.csv,./stimuli/frankfurt.jpg,./stimuli/street_plate1.png,KÓKUSZ,stimuli/objects/073a.jpg,object,0,stimuli/objects/073a.jpg,stimuli/scenes/044a.jpg,stimuli/objects/073a.jpg,stimuli/objects/073b.jpg,stimuli/scenes/044b.jpg,dist1,target,lure,dist2,0,1,1,1,0,35,35,27,,,,,,,,,829.4853316852823,None,829.4853316852823,None,829.4853316852823,None,829.4853316852823,None,832.4469021568075,None,,,,,,,,,,,,,,,,,,,,,,,,,,,,,,,,,,,,,,,pilot,2022_Jun_14_1511,Hippopolis_Learning,2021.1.2,59.529814339496184,
Hippopolis,stimuli/subj_files/pilot_cityA.csv,./stimuli/frankfurt.jpg,./stimuli/street_plate1.png,KÁRÁSZ,stimuli/objects/020a.jpg,object,2,stimuli/scenes/084a.jpg,stimuli/objects/054a.jpg,stimuli/scenes/084b.jpg,stimuli/scenes/084a.jpg,stimuli/objects/054b.jpg,dist1,lure,target,dist2,0,1,1,1,0,36,36,58,,,,,,,,,833.4971990748309,None,833.4971990748309,None,833.4971990748309,None,833.4971990748309,None,836.4561726409011,None,,,,,,,,,,,,,,,,,,,,,,,,,,,,,,,,,,,,,,,pilot,2022_Jun_14_1511,Hippopolis_Learning,2021.1.2,59.529814339496184,
Hippopolis,stimuli/subj_files/pilot_cityA.csv,./stimuli/frankfurt.jpg,./stimuli/street_plate1.png,PULYKA,stimuli/objects/086a.jpg,object,2,stimuli/scenes/074a.jpg,stimuli/scenes/074b.jpg,stimuli/scenes/059b.jpg,stimuli/scenes/059a.jpg,stimuli/scenes/074a.jpg,lure,dist2,dist1,target,0,1,1,1,0,37,37,18,,,,,,,,,837.5018529770896,None,837.5018529770896,None,837.5018529770896,None,837.5018529770896,None,840.4603569237515,None,,,,,,,,,,,,,,,,,,,,,,,,,,,,,,,,,,,,,,,pilot,2022_Jun_14_1511,Hippopolis_Learning,2021.1.2,59.529814339496184,
Hippopolis,stimuli/subj_files/pilot_cityA.csv,./stimuli/frankfurt.jpg,./stimuli/street_plate1.png,KOCKA,stimuli/objects/001a.jpg,object,0,stimuli/objects/001a.jpg,stimuli/objects/037b.jpg,stimuli/objects/037a.jpg,stimuli/objects/001a.jpg,stimuli/objects/001b.jpg,dist2,dist1,target,lure,0,1,1,1,0,38,38,55,,,,,,,,,841.5052186907269,None,841.5052186907269,None,841.5052186907269,None,841.5052186907269,None,844.4602107503451,None,,,,,,,,,,,,,,,,,,,,,,,,,,,,,,,,,,,,,,,pilot,2022_Jun_14_1511,Hippopolis_Learning,2021.1.2,59.529814339496184,
Hippopolis,stimuli/subj_files/pilot_cityA.csv,./stimuli/frankfurt.jpg,./stimuli/street_plate1.png,FOLYÓ,stimuli/objects/060a.jpg,object,2,stimuli/scenes/043a.jpg,stimuli/objects/066b.jpg,stimuli/scenes/043a.jpg,stimuli/objects/066a.jpg,stimuli/scenes/043b.jpg,dist2,target,dist1,lure,0,1,1,1,0,39,39,29,,,,,,,,,845.4944777670316,None,845.4944777670316,None,845.4944777670316,None,845.4944777670316,None,848.4620024594478,None,,,,,,,,,,,,,,,,,,,,,,,,,,,,,,,,,,,,,,,pilot,2022_Jun_14_1511,Hippopolis_Learning,2021.1.2,59.529814339496184,
Hippopolis,stimuli/subj_files/pilot_cityA.csv,./stimuli/frankfurt.jpg,./stimuli/street_plate1.png,FÉNYKÉP,stimuli/objects/079a.jpg,object,1,stimuli/objects/095a.jpg,stimuli/scenes/061a.jpg,stimuli/objects/095b.jpg,stimuli/objects/095a.jpg,stimuli/scenes/061b.jpg,dist1,lure,target,dist2,0,1,1,1,0,40,40,37,,,,,,,,,849.4977150345221,None,849.4977150345221,None,849.4977150345221,None,849.4977150345221,None,852.445490187034,None,,,,,,,,,,,,,,,,,,,,,,,,,,,,,,,,,,,,,,,pilot,2022_Jun_14_1511,Hippopolis_Learning,2021.1.2,59.529814339496184,
Hippopolis,stimuli/subj_files/pilot_cityA.csv,./stimuli/frankfurt.jpg,./stimuli/street_plate1.png,GYŰRŰ,stimuli/scenes/057a.jpg,scene,1,stimuli/scenes/050a.jpg,stimuli/scenes/050b.jpg,stimuli/scenes/050a.jpg,stimuli/scenes/053a.jpg,stimuli/scenes/053b.jpg,lure,target,dist1,dist2,0,1,1,1,0,41,41,9,,,,,,,,,853.5024047028273,None,853.5024047028273,None,853.5024047028273,None,853.5024047028273,None,856.4628098327667,None,,,,,,,,,,,,,,,,,,,,,,,,,,,,,,,,,,,,,,,pilot,2022_Jun_14_1511,Hippopolis_Learning,2021.1.2,59.529814339496184,
Hippopolis,stimuli/subj_files/pilot_cityA.csv,./stimuli/frankfurt.jpg,./stimuli/street_plate1.png,KULLANCS,stimuli/objects/019a.jpg,object,1,stimuli/objects/003a.jpg,stimuli/objects/003a.jpg,stimuli/objects/003b.jpg,stimuli/scenes/072a.jpg,stimuli/scenes/072b.jpg,target,lure,dist1,dist2,0,1,1,1,0,42,42,14,,,,,,,,,857.5183857763186,None,857.5183857763186,None,857.5183857763186,None,857.5183857763186,None,860.4473972790875,None,,,,,,,,,,,,,,,,,,,,,,,,,,,,,,,,,,,,,,,pilot,2022_Jun_14_1511,Hippopolis_Learning,2021.1.2,59.529814339496184,
Hippopolis,stimuli/subj_files/pilot_cityA.csv,./stimuli/frankfurt.jpg,./stimuli/street_plate1.png,FOGÓ,stimuli/scenes/030a.jpg,scene,1,stimuli/scenes/089a.jpg,stimuli/scenes/089a.jpg,stimuli/scenes/050b.jpg,stimuli/scenes/050a.jpg,stimuli/scenes/089b.jpg,target,dist2,dist1,lure,0,1,1,1,0,43,43,36,,,,,,,,,861.4841060084291,None,861.4841060084291,None,861.4841060084291,None,861.4841060084291,None,864.4600515151396,None,,,,,,,,,,,,,,,,,,,,,,,,,,,,,,,,,,,,,,,pilot,2022_Jun_14_1511,Hippopolis_Learning,2021.1.2,59.529814339496184,
Hippopolis,stimuli/subj_files/pilot_cityA.csv,./stimuli/frankfurt.jpg,./stimuli/street_plate1.png,MÁRVÁNY,stimuli/objects/054a.jpg,object,0,stimuli/objects/054a.jpg,stimuli/scenes/020a.jpg,stimuli/objects/054b.jpg,stimuli/scenes/020b.jpg,stimuli/objects/054a.jpg,dist1,lure,dist2,target,0,1,1,1,0,44,44,33,,,,,,,,,865.4876150959171,None,865.4876150959171,None,865.4876150959171,None,865.4876150959171,None,868.4598701982759,None,,,,,,,,,,,,,,,,,,,,,,,,,,,,,,,,,,,,,,,pilot,2022_Jun_14_1511,Hippopolis_Learning,2021.1.2,59.529814339496184,
Hippopolis,stimuli/subj_files/pilot_cityA.csv,./stimuli/frankfurt.jpg,./stimuli/street_plate1.png,TOLLTARTÓ,stimuli/objects/057a.jpg,object,0,stimuli/objects/057a.jpg,stimuli/scenes/077a.jpg,stimuli/objects/057a.jpg,stimuli/objects/057b.jpg,stimuli/scenes/077b.jpg,dist1,target,lure,dist2,0,1,1,1,0,45,45,2,,,,,,,,,869.4893691730686,None,869.4893691730686,None,869.4893691730686,None,869.4893691730686,None,872.4598838826641,None,,,,,,,,,,,,,,,,,,,,,,,,,,,,,,,,,,,,,,,pilot,2022_Jun_14_1511,Hippopolis_Learning,2021.1.2,59.529814339496184,
Hippopolis,stimuli/subj_files/pilot_cityA.csv,./stimuli/frankfurt.jpg,./stimuli/street_plate1.png,SÜTŐ,stimuli/scenes/080a.jpg,scene,1,stimuli/scenes/063a.jpg,stimuli/objects/057b.jpg,stimuli/objects/057a.jpg,stimuli/scenes/063a.jpg,stimuli/scenes/063b.jpg,dist2,dist1,target,lure,0,1,1,1,0,46,46,19,,,,,,,,,873.4767780713737,None,873.4767780713737,None,873.4767780713737,None,873.4767780713737,None,876.4598148390651,None,,,,,,,,,,,,,,,,,,,,,,,,,,,,,,,,,,,,,,,pilot,2022_Jun_14_1511,Hippopolis_Learning,2021.1.2,59.529814339496184,
Hippopolis,stimuli/subj_files/pilot_cityA.csv,./stimuli/frankfurt.jpg,./stimuli/street_plate1.png,ELEFÁNT,stimuli/scenes/058a.jpg,scene,2,stimuli/objects/018a.jpg,stimuli/objects/018a.jpg,stimuli/scenes/018b.jpg,stimuli/objects/018b.jpg,stimuli/scenes/018a.jpg,target,dist2,lure,dist1,0,1,1,1,0,47,47,41,,,,,,,,,877.4798750751652,None,877.4798750751652,None,877.4798750751652,None,877.4798750751652,None,880.4597171829082,None,,,,,,,,,,,,,,,,,,,,,,,,,,,,,,,,,,,,,,,pilot,2022_Jun_14_1511,Hippopolis_Learning,2021.1.2,59.529814339496184,
