CityName,StimuliFile,CityImage,StreetSign,Cue,Image,Category,Novelty,UpdateImage,TestImage1,TestImage2,TestImage3,TestImage4,TestImage1Type,TestImage2Type,TestImage3Type,TestImage4Type,CityBlock.thisRepN,CityBlock.thisTrialN,CityBlock.thisN,CityBlock.thisIndex,LearningTrials.thisRepN,LearningTrials.thisTrialN,LearningTrials.thisN,LearningTrials.thisIndex,trials.thisRepN,trials.thisTrialN,trials.thisN,trials.thisIndex,learning_instructions_text.started,intro_key.started,intro_key.keys,intro_key.rt,cityname_text.started,city_image.started,fx_cross.started,plate.started,city_text.started,street_text.started,learning_image.started,short_break_key.keys,short_break_text.started,short_break_key.started,short_break_key.rt,fx_cross.stopped,test_text.started,key_resp.started,key_resp.keys,key_resp.rt,plate_test.started,city_text_test.started,street_text_test.started,test_question.started,test_key_resp.started,button_image.started,test_key_resp.keys,verbal_test_key_resp.keys,test_key_resp.rt,plate_verbal.started,street_text_verbal.started,city_text_verbal.started,question_verbal.started,verbal_test_key_resp.started,verbal_test_key_resp.rt,n_remembered,break_text.started,break_key_resp.started,break_key_resp.keys,break_key_resp.rt,end_text.started,participant,date,expName,psychopyVersion,frameRate,
,,,,,,,,,,,,,,,,,,,,,,,,,,,,,18.420606911182404,18.420606911182404,space,129.98718487657607,,,,,,,,,,,,,,,,,,,,,,,,,,,,,,,,,,,,,,pilot1,2022-10-14_14h14.13.574,Hippopolis_Learning,2022.2.2,59.98686630984112,
Hippopolis,stimuli/subj_files/pilot1_cityA.csv,./stimuli/frankfurt.jpg,./stimuli/street_plate1.png,MUNKA UTCA,stimuli/objects/061a.jpg,object,2,stimuli/scenes/077a.jpg,stimuli/scenes/020a.jpg,stimuli/scenes/020b.jpg,stimuli/scenes/077b.jpg,stimuli/scenes/077a.jpg,dist1,dist2,lure,target,0,0,0,0,0,0,0,25,,,,,,,,,148.72694820724428,148.72694820724428,151.51877669990063,152.51339971087873,152.51339971087873,152.51339971087873,152.51339971087873,None,,,,,,,,,,,,,,,,,,,,,,,,,,,,,,pilot1,2022-10-14_14h14.13.574,Hippopolis_Learning,2022.2.2,59.98686630984112,
Hippopolis,stimuli/subj_files/pilot1_cityA.csv,./stimuli/frankfurt.jpg,./stimuli/street_plate1.png,ÁRNYÉK UTCA,stimuli/scenes/088a.jpg,scene,0,stimuli/scenes/088a.jpg,stimuli/scenes/088a.jpg,stimuli/objects/038a.jpg,stimuli/objects/038b.jpg,stimuli/scenes/088b.jpg,target,dist1,dist2,lure,0,0,0,0,0,1,1,42,,,,,,,,,,,155.4565499201417,156.49637428857386,156.49637428857386,156.49637428857386,156.49637428857386,None,,,,,,,,,,,,,,,,,,,,,,,,,,,,,,pilot1,2022-10-14_14h14.13.574,Hippopolis_Learning,2022.2.2,59.98686630984112,
Hippopolis,stimuli/subj_files/pilot1_cityA.csv,./stimuli/frankfurt.jpg,./stimuli/street_plate1.png,KORONG UTCA,stimuli/objects/104a.jpg,object,0,stimuli/objects/104a.jpg,stimuli/objects/076b.jpg,stimuli/objects/104a.jpg,stimuli/objects/104b.jpg,stimuli/objects/076a.jpg,dist2,target,lure,dist1,0,0,0,0,0,2,2,5,,,,,,,,,,,159.45441983640194,160.52538838610053,160.52538838610053,160.52538838610053,160.52538838610053,None,,,,,,,,,,,,,,,,,,,,,,,,,,,,,,pilot1,2022-10-14_14h14.13.574,Hippopolis_Learning,2022.2.2,59.98686630984112,
Hippopolis,stimuli/subj_files/pilot1_cityA.csv,./stimuli/frankfurt.jpg,./stimuli/street_plate1.png,MÁLNA UTCA,stimuli/scenes/003a.jpg,scene,2,stimuli/objects/115a.jpg,stimuli/objects/115a.jpg,stimuli/objects/115b.jpg,stimuli/objects/086a.jpg,stimuli/objects/086b.jpg,target,lure,dist1,dist2,0,0,0,0,0,3,3,45,,,,,,,,,,,163.4671297352761,164.50483272969723,164.50483272969723,164.50483272969723,164.50483272969723,None,,,,,,,,,,,,,,,,,,,,,,,,,,,,,,pilot1,2022-10-14_14h14.13.574,Hippopolis_Learning,2022.2.2,59.98686630984112,
Hippopolis,stimuli/subj_files/pilot1_cityA.csv,./stimuli/frankfurt.jpg,./stimuli/street_plate1.png,MENTA UTCA,stimuli/objects/088a.jpg,object,1,stimuli/objects/054a.jpg,stimuli/scenes/088b.jpg,stimuli/scenes/088a.jpg,stimuli/objects/054b.jpg,stimuli/objects/054a.jpg,dist2,dist1,lure,target,0,0,0,0,0,4,4,26,,,,,,,,,,,167.47486975044012,168.51842215284705,168.51842215284705,168.51842215284705,168.51842215284705,None,,,,,,,,,,,,,,,,,,,,,,,,,,,,,,pilot1,2022-10-14_14h14.13.574,Hippopolis_Learning,2022.2.2,59.98686630984112,
Hippopolis,stimuli/subj_files/pilot1_cityA.csv,./stimuli/frankfurt.jpg,./stimuli/street_plate1.png,KERET UTCA,stimuli/objects/046a.jpg,object,0,stimuli/objects/046a.jpg,stimuli/objects/046b.jpg,stimuli/scenes/022b.jpg,stimuli/scenes/022a.jpg,stimuli/objects/046a.jpg,lure,dist2,dist1,target,0,0,0,0,0,5,5,29,,,,,,,,,,,171.4867697879672,172.52087723836303,172.52087723836303,172.52087723836303,172.52087723836303,None,,,,,,,,,,,,,,,,,,,,,,,,,,,,,,pilot1,2022-10-14_14h14.13.574,Hippopolis_Learning,2022.2.2,59.98686630984112,
Hippopolis,stimuli/subj_files/pilot1_cityA.csv,./stimuli/frankfurt.jpg,./stimuli/street_plate1.png,BONBON UTCA,stimuli/scenes/022a.jpg,scene,0,stimuli/scenes/022a.jpg,stimuli/scenes/022a.jpg,stimuli/scenes/022b.jpg,stimuli/scenes/018a.jpg,stimuli/scenes/018b.jpg,target,lure,dist1,dist2,0,0,0,0,0,6,6,43,,,,,,,,,,,175.50877815671265,176.5435567572713,176.5435567572713,176.5435567572713,176.5435567572713,None,,,,,,,,,,,,,,,,,,,,,,,,,,,,,,pilot1,2022-10-14_14h14.13.574,Hippopolis_Learning,2022.2.2,59.98686630984112,
Hippopolis,stimuli/subj_files/pilot1_cityA.csv,./stimuli/frankfurt.jpg,./stimuli/street_plate1.png,PETREZSELYEM UTCA,stimuli/objects/090a.jpg,object,1,stimuli/objects/040a.jpg,stimuli/objects/040a.jpg,stimuli/objects/053a.jpg,stimuli/objects/053b.jpg,stimuli/objects/040b.jpg,target,dist1,dist2,lure,0,0,0,0,0,7,7,16,,,,,,,,,,,179.5163499172777,180.5574795808643,180.5574795808643,180.5574795808643,180.5574795808643,None,,,,,,,,,,,,,,,,,,,,,,,,,,,,,,pilot1,2022-10-14_14h14.13.574,Hippopolis_Learning,2022.2.2,59.98686630984112,
Hippopolis,stimuli/subj_files/pilot1_cityA.csv,./stimuli/frankfurt.jpg,./stimuli/street_plate1.png,ASZTAL UTCA,stimuli/objects/016a.jpg,object,0,stimuli/objects/016a.jpg,stimuli/objects/016a.jpg,stimuli/scenes/046b.jpg,stimuli/scenes/046a.jpg,stimuli/objects/016b.jpg,target,dist2,dist1,lure,0,0,0,0,0,8,8,56,,,,,,,,,,,183.52709705382586,184.56248460523784,184.56248460523784,184.56248460523784,184.56248460523784,None,,,,,,,,,,,,,,,,,,,,,,,,,,,,,,pilot1,2022-10-14_14h14.13.574,Hippopolis_Learning,2022.2.2,59.98686630984112,
Hippopolis,stimuli/subj_files/pilot1_cityA.csv,./stimuli/frankfurt.jpg,./stimuli/street_plate1.png,KESELYŰ UTCA,stimuli/scenes/027a.jpg,scene,2,stimuli/objects/101a.jpg,stimuli/scenes/044a.jpg,stimuli/objects/101a.jpg,stimuli/objects/101b.jpg,stimuli/scenes/044b.jpg,dist1,target,lure,dist2,0,0,0,0,0,9,9,4,,,,,,,,,,,187.5411616973579,188.56185264140368,188.56185264140368,188.56185264140368,188.56185264140368,None,,,,,,,,,,,,,,,,,,,,,,,,,,,,,,pilot1,2022-10-14_14h14.13.574,Hippopolis_Learning,2022.2.2,59.98686630984112,
Hippopolis,stimuli/subj_files/pilot1_cityA.csv,./stimuli/frankfurt.jpg,./stimuli/street_plate1.png,TETŐ UTCA,stimuli/scenes/067a.jpg,scene,2,stimuli/objects/047a.jpg,stimuli/objects/047a.jpg,stimuli/objects/047b.jpg,stimuli/objects/097b.jpg,stimuli/objects/097a.jpg,target,lure,dist2,dist1,0,0,0,0,0,10,10,8,,,,,,,,,,,191.55819613859057,192.5958854481578,192.5958854481578,192.5958854481578,192.5958854481578,None,,,,,,,,,,,,,,,,,,,,,,,,,,,,,,pilot1,2022-10-14_14h14.13.574,Hippopolis_Learning,2022.2.2,59.98686630984112,
Hippopolis,stimuli/subj_files/pilot1_cityA.csv,./stimuli/frankfurt.jpg,./stimuli/street_plate1.png,KECSKE UTCA,stimuli/objects/011a.jpg,object,1,stimuli/objects/086a.jpg,stimuli/objects/086b.jpg,stimuli/objects/066a.jpg,stimuli/objects/086a.jpg,stimuli/objects/066b.jpg,lure,dist1,target,dist2,0,0,0,0,0,11,11,64,,,,,,,,,,,195.56340860575438,196.58223288878798,196.58223288878798,196.58223288878798,196.58223288878798,None,,,,,,,,,,,,,,,,,,,,,,,,,,,,,,pilot1,2022-10-14_14h14.13.574,Hippopolis_Learning,2022.2.2,59.98686630984112,
Hippopolis,stimuli/subj_files/pilot1_cityA.csv,./stimuli/frankfurt.jpg,./stimuli/street_plate1.png,KOKTÉL UTCA,stimuli/scenes/106a.jpg,scene,1,stimuli/scenes/096a.jpg,stimuli/scenes/096a.jpg,stimuli/scenes/096b.jpg,stimuli/objects/042a.jpg,stimuli/objects/042b.jpg,target,lure,dist1,dist2,0,0,0,0,0,12,12,44,,,,,,,,,,,199.56927294284105,200.6141912844032,200.6141912844032,200.6141912844032,200.6141912844032,None,,,,,,,,,,,,,,,,,,,,,,,,,,,,,,pilot1,2022-10-14_14h14.13.574,Hippopolis_Learning,2022.2.2,59.98686630984112,
Hippopolis,stimuli/subj_files/pilot1_cityA.csv,./stimuli/frankfurt.jpg,./stimuli/street_plate1.png,KENYÉR UTCA,stimuli/scenes/071a.jpg,scene,2,stimuli/objects/055a.jpg,stimuli/objects/033b.jpg,stimuli/objects/055a.jpg,stimuli/objects/055b.jpg,stimuli/objects/033a.jpg,dist2,target,lure,dist1,0,0,0,0,0,13,13,17,,,,,,,,,,,203.58352947607636,204.62270041927695,204.62270041927695,204.62270041927695,204.62270041927695,None,,,,,,,,,,,,,,,,,,,,,,,,,,,,,,pilot1,2022-10-14_14h14.13.574,Hippopolis_Learning,2022.2.2,59.98686630984112,
Hippopolis,stimuli/subj_files/pilot1_cityA.csv,./stimuli/frankfurt.jpg,./stimuli/street_plate1.png,KULACS UTCA,stimuli/objects/045a.jpg,object,1,stimuli/objects/073a.jpg,stimuli/objects/073a.jpg,stimuli/objects/073b.jpg,stimuli/scenes/002a.jpg,stimuli/scenes/002b.jpg,target,lure,dist1,dist2,0,0,0,0,0,14,14,51,,,,,,,,,,,207.59668162465096,208.63953954912722,208.63953954912722,208.63953954912722,208.63953954912722,None,,,,,,,,,,,,,,,,,,,,,,,,,,,,,,pilot1,2022-10-14_14h14.13.574,Hippopolis_Learning,2022.2.2,59.98686630984112,
Hippopolis,stimuli/subj_files/pilot1_cityA.csv,./stimuli/frankfurt.jpg,./stimuli/street_plate1.png,KABÁT UTCA,stimuli/scenes/032a.jpg,scene,1,stimuli/scenes/105a.jpg,stimuli/scenes/105a.jpg,stimuli/scenes/024b.jpg,stimuli/scenes/024a.jpg,stimuli/scenes/105b.jpg,target,dist2,dist1,lure,0,0,0,0,0,15,15,50,,,,,,,,,,,211.61633225344121,212.6715411748737,212.6715411748737,212.6715411748737,212.6715411748737,None,,,,,,,,,,,,,,,,,,,,,,,,,,,,,,pilot1,2022-10-14_14h14.13.574,Hippopolis_Learning,2022.2.2,59.98686630984112,
Hippopolis,stimuli/subj_files/pilot1_cityA.csv,./stimuli/frankfurt.jpg,./stimuli/street_plate1.png,TORONY UTCA,stimuli/scenes/059a.jpg,scene,2,stimuli/objects/120a.jpg,stimuli/scenes/104b.jpg,stimuli/objects/120b.jpg,stimuli/scenes/104a.jpg,stimuli/objects/120a.jpg,dist2,lure,dist1,target,0,0,0,0,0,16,16,6,,,,,,,,,,,215.61712842807174,216.665397554636,216.665397554636,216.665397554636,216.665397554636,None,,,,,,,,,,,,,,,,,,,,,,,,,,,,,,pilot1,2022-10-14_14h14.13.574,Hippopolis_Learning,2022.2.2,59.98686630984112,
Hippopolis,stimuli/subj_files/pilot1_cityA.csv,./stimuli/frankfurt.jpg,./stimuli/street_plate1.png,EGÉR UTCA,stimuli/objects/013a.jpg,object,1,stimuli/objects/080a.jpg,stimuli/scenes/070a.jpg,stimuli/objects/080a.jpg,stimuli/objects/080b.jpg,stimuli/scenes/070b.jpg,dist1,target,lure,dist2,0,0,0,0,0,17,17,34,,,,,,,,,,,219.62557069770992,220.66614365763962,220.66614365763962,220.66614365763962,220.66614365763962,None,,,,,,,,,,,,,,,,,,,,,,,,,,,,,,pilot1,2022-10-14_14h14.13.574,Hippopolis_Learning,2022.2.2,59.98686630984112,
Hippopolis,stimuli/subj_files/pilot1_cityA.csv,./stimuli/frankfurt.jpg,./stimuli/street_plate1.png,PAPRIKA UTCA,stimuli/scenes/118a.jpg,scene,0,stimuli/scenes/118a.jpg,stimuli/scenes/118a.jpg,stimuli/objects/068b.jpg,stimuli/scenes/118b.jpg,stimuli/objects/068a.jpg,target,dist2,lure,dist1,0,0,0,0,0,18,18,20,,,,,,,,,,,223.6313016116619,224.6978308558464,224.6978308558464,224.6978308558464,224.6978308558464,None,,,,,,,,,,,,,,,,,,,,,,,,,,,,,,pilot1,2022-10-14_14h14.13.574,Hippopolis_Learning,2022.2.2,59.98686630984112,
Hippopolis,stimuli/subj_files/pilot1_cityA.csv,./stimuli/frankfurt.jpg,./stimuli/street_plate1.png,OROSZLÁN UTCA,stimuli/scenes/054a.jpg,scene,2,stimuli/objects/014a.jpg,stimuli/objects/099a.jpg,stimuli/objects/099b.jpg,stimuli/objects/014b.jpg,stimuli/objects/014a.jpg,dist1,dist2,lure,target,0,0,0,0,0,19,19,52,,,,,,,,,,,227.64071515388787,228.67876056581736,228.67876056581736,228.67876056581736,228.67876056581736,None,,,,,,,,,,,,,,,,,,,,,,,,,,,,,,pilot1,2022-10-14_14h14.13.574,Hippopolis_Learning,2022.2.2,59.98686630984112,
Hippopolis,stimuli/subj_files/pilot1_cityA.csv,./stimuli/frankfurt.jpg,./stimuli/street_plate1.png,SZERSZÁM UTCA,stimuli/objects/037a.jpg,object,0,stimuli/objects/037a.jpg,stimuli/objects/037a.jpg,stimuli/scenes/097b.jpg,stimuli/scenes/097a.jpg,stimuli/objects/037b.jpg,target,dist2,dist1,lure,0,0,0,0,0,20,20,19,,,,,,,,,,,231.6464090589434,232.69178457930684,232.69178457930684,232.69178457930684,232.69178457930684,None,,,,,,,,,,,,,,,,,,,,,,,,,,,,,,pilot1,2022-10-14_14h14.13.574,Hippopolis_Learning,2022.2.2,59.98686630984112,
Hippopolis,stimuli/subj_files/pilot1_cityA.csv,./stimuli/frankfurt.jpg,./stimuli/street_plate1.png,PAPAGÁJ UTCA,stimuli/scenes/023a.jpg,scene,1,stimuli/scenes/113a.jpg,stimuli/objects/070b.jpg,stimuli/scenes/113b.jpg,stimuli/objects/070a.jpg,stimuli/scenes/113a.jpg,dist2,lure,dist1,target,0,0,0,0,0,21,21,53,,,,,,,,,,,235.6505557075143,236.70246080681682,236.70246080681682,236.70246080681682,236.70246080681682,None,,,,,,,,,,,,,,,,,,,,,,,,,,,,,,pilot1,2022-10-14_14h14.13.574,Hippopolis_Learning,2022.2.2,59.98686630984112,
Hippopolis,stimuli/subj_files/pilot1_cityA.csv,./stimuli/frankfurt.jpg,./stimuli/street_plate1.png,KULLANCS UTCA,stimuli/scenes/111a.jpg,scene,1,stimuli/scenes/084a.jpg,stimuli/scenes/084b.jpg,stimuli/scenes/084a.jpg,stimuli/objects/054a.jpg,stimuli/objects/054b.jpg,lure,target,dist1,dist2,0,0,0,0,0,22,22,68,,,,,,,,,,,239.64955364353955,240.71286335028708,240.71286335028708,240.71286335028708,240.71286335028708,None,,,,,,,,,,,,,,,,,,,,,,,,,,,,,,pilot1,2022-10-14_14h14.13.574,Hippopolis_Learning,2022.2.2,59.98686630984112,
Hippopolis,stimuli/subj_files/pilot1_cityA.csv,./stimuli/frankfurt.jpg,./stimuli/street_plate1.png,DOBOZ UTCA,stimuli/scenes/030a.jpg,scene,1,stimuli/scenes/060a.jpg,stimuli/scenes/051a.jpg,stimuli/scenes/060b.jpg,stimuli/scenes/060a.jpg,stimuli/scenes/051b.jpg,dist1,lure,target,dist2,0,0,0,0,0,23,23,21,,,,,,,,,,,243.6582633778453,244.7030918393284,244.7030918393284,244.7030918393284,244.7030918393284,None,,,,,,,,,,,,,,,,,,,,,,,,,,,,,,pilot1,2022-10-14_14h14.13.574,Hippopolis_Learning,2022.2.2,59.98686630984112,
Hippopolis,stimuli/subj_files/pilot1_cityA.csv,./stimuli/frankfurt.jpg,./stimuli/street_plate1.png,KÖTÉNY UTCA,stimuli/scenes/108a.jpg,scene,2,stimuli/objects/066a.jpg,stimuli/objects/072b.jpg,stimuli/objects/072a.jpg,stimuli/objects/066b.jpg,stimuli/objects/066a.jpg,dist2,dist1,lure,target,0,0,0,0,0,24,24,36,,,,,,,,,,,247.66652121953666,248.72473601810634,248.72473601810634,248.72473601810634,248.72473601810634,None,,,,,,,,,,,,,,,,,,,,,,,,,,,,,,pilot1,2022-10-14_14h14.13.574,Hippopolis_Learning,2022.2.2,59.98686630984112,
Hippopolis,stimuli/subj_files/pilot1_cityA.csv,./stimuli/frankfurt.jpg,./stimuli/street_plate1.png,KÖNYVTÁR UTCA,stimuli/objects/070a.jpg,object,0,stimuli/objects/070a.jpg,stimuli/objects/070a.jpg,stimuli/scenes/100b.jpg,stimuli/scenes/100a.jpg,stimuli/objects/070b.jpg,target,dist2,dist1,lure,0,0,0,0,0,25,25,79,,,,,,,,,,,251.6765878740698,252.72027587518096,252.72027587518096,252.72027587518096,252.72027587518096,None,,,,,,,,,,,,,,,,,,,,,,,,,,,,,,pilot1,2022-10-14_14h14.13.574,Hippopolis_Learning,2022.2.2,59.98686630984112,
Hippopolis,stimuli/subj_files/pilot1_cityA.csv,./stimuli/frankfurt.jpg,./stimuli/street_plate1.png,POGÁCSA UTCA,stimuli/objects/093a.jpg,object,1,stimuli/objects/018a.jpg,stimuli/scenes/064a.jpg,stimuli/scenes/064b.jpg,stimuli/objects/018b.jpg,stimuli/objects/018a.jpg,dist1,dist2,lure,target,0,0,0,0,0,26,26,10,,,,,,,,,,,255.69081703945994,256.75297415442765,256.75297415442765,256.75297415442765,256.75297415442765,None,,,,,,,,,,,,,,,,,,,,,,,,,,,,,,pilot1,2022-10-14_14h14.13.574,Hippopolis_Learning,2022.2.2,59.98686630984112,
Hippopolis,stimuli/subj_files/pilot1_cityA.csv,./stimuli/frankfurt.jpg,./stimuli/street_plate1.png,LOVAGLÁS UTCA,stimuli/objects/110a.jpg,object,1,stimuli/objects/010a.jpg,stimuli/objects/010b.jpg,stimuli/scenes/007a.jpg,stimuli/objects/010a.jpg,stimuli/scenes/007b.jpg,lure,dist1,target,dist2,0,0,0,0,0,27,27,22,,,,,,,,,,,259.6947972998023,260.73408642597497,260.73408642597497,260.73408642597497,260.73408642597497,None,,,,,,,,,,,,,,,,,,,,,,,,,,,,,,pilot1,2022-10-14_14h14.13.574,Hippopolis_Learning,2022.2.2,59.98686630984112,
Hippopolis,stimuli/subj_files/pilot1_cityA.csv,./stimuli/frankfurt.jpg,./stimuli/street_plate1.png,ZSEMLE UTCA,stimuli/objects/035a.jpg,object,2,stimuli/scenes/100a.jpg,stimuli/objects/120a.jpg,stimuli/scenes/100b.jpg,stimuli/objects/120b.jpg,stimuli/scenes/100a.jpg,dist1,lure,dist2,target,0,0,0,0,0,28,28,27,,,,,,,,,,,263.7090563196689,264.7453694269061,264.7453694269061,264.7453694269061,264.7453694269061,None,,,,,,,,,,,,,,,,,,,,,,,,,,,,,,pilot1,2022-10-14_14h14.13.574,Hippopolis_Learning,2022.2.2,59.98686630984112,
Hippopolis,stimuli/subj_files/pilot1_cityA.csv,./stimuli/frankfurt.jpg,./stimuli/street_plate1.png,LÁNDZSA UTCA,stimuli/scenes/041a.jpg,scene,1,stimuli/scenes/116a.jpg,stimuli/scenes/116b.jpg,stimuli/scenes/116a.jpg,stimuli/objects/100a.jpg,stimuli/objects/100b.jpg,lure,target,dist1,dist2,0,0,0,0,0,29,29,32,,,,,,,,,,,267.72353646717966,268.7593815084547,268.7593815084547,268.7593815084547,268.7593815084547,None,,,,,,,,,,,,,,,,,,,,,,,,,,,,,,pilot1,2022-10-14_14h14.13.574,Hippopolis_Learning,2022.2.2,59.98686630984112,
Hippopolis,stimuli/subj_files/pilot1_cityA.csv,./stimuli/frankfurt.jpg,./stimuli/street_plate1.png,POLIP UTCA,stimuli/objects/039a.jpg,object,0,stimuli/objects/039a.jpg,stimuli/objects/101a.jpg,stimuli/objects/039b.jpg,stimuli/objects/101b.jpg,stimuli/objects/039a.jpg,dist1,lure,dist2,target,0,0,0,0,0,30,30,12,,,,,,,,,,,271.7403656449169,272.761331519112,272.761331519112,272.761331519112,272.761331519112,None,,,,,,,,,,,,,,,,,,,,,,,,,,,,,,pilot1,2022-10-14_14h14.13.574,Hippopolis_Learning,2022.2.2,59.98686630984112,
Hippopolis,stimuli/subj_files/pilot1_cityA.csv,./stimuli/frankfurt.jpg,./stimuli/street_plate1.png,KOCKA UTCA,stimuli/scenes/002a.jpg,scene,0,stimuli/scenes/002a.jpg,stimuli/scenes/072a.jpg,stimuli/scenes/002b.jpg,stimuli/scenes/072b.jpg,stimuli/scenes/002a.jpg,dist1,lure,dist2,target,0,0,0,0,0,31,31,73,,,,,,,,,,,275.75090534053743,276.7918151207268,276.7918151207268,276.7918151207268,276.7918151207268,None,,,,,,,,,,,,,,,,,,,,,,,,,,,,,,pilot1,2022-10-14_14h14.13.574,Hippopolis_Learning,2022.2.2,59.98686630984112,
Hippopolis,stimuli/subj_files/pilot1_cityA.csv,./stimuli/frankfurt.jpg,./stimuli/street_plate1.png,ZSÁLYA UTCA,stimuli/objects/034a.jpg,object,2,stimuli/scenes/117a.jpg,stimuli/scenes/117b.jpg,stimuli/scenes/001b.jpg,stimuli/scenes/117a.jpg,stimuli/scenes/001a.jpg,lure,dist2,target,dist1,0,0,0,0,0,32,32,33,,,,,,,,,,,279.76172929629683,280.80103086307645,280.80103086307645,280.80103086307645,280.80103086307645,None,,,,,,,,,,,,,,,,,,,,,,,,,,,,,,pilot1,2022-10-14_14h14.13.574,Hippopolis_Learning,2022.2.2,59.98686630984112,
Hippopolis,stimuli/subj_files/pilot1_cityA.csv,./stimuli/frankfurt.jpg,./stimuli/street_plate1.png,GYŰRŰ UTCA,stimuli/scenes/007a.jpg,scene,0,stimuli/scenes/007a.jpg,stimuli/scenes/076a.jpg,stimuli/scenes/007b.jpg,stimuli/scenes/007a.jpg,stimuli/scenes/076b.jpg,dist1,lure,target,dist2,0,0,0,0,0,33,33,76,,,,,,,,,,,283.7776005733758,284.81457985565066,284.81457985565066,284.81457985565066,284.81457985565066,None,,,,,,,,,,,,,,,,,,,,,,,,,,,,,,pilot1,2022-10-14_14h14.13.574,Hippopolis_Learning,2022.2.2,59.98686630984112,
Hippopolis,stimuli/subj_files/pilot1_cityA.csv,./stimuli/frankfurt.jpg,./stimuli/street_plate1.png,MAJORÁNNA UTCA,stimuli/objects/068a.jpg,object,0,stimuli/objects/068a.jpg,stimuli/objects/068a.jpg,stimuli/scenes/118a.jpg,stimuli/objects/068b.jpg,stimuli/scenes/118b.jpg,target,dist1,lure,dist2,0,0,0,0,0,34,34,57,,,,,,,,,,,287.79327125288546,288.8279637042433,288.8279637042433,288.8279637042433,288.8279637042433,None,,,,,,,,,,,,,,,,,,,,,,,,,,,,,,pilot1,2022-10-14_14h14.13.574,Hippopolis_Learning,2022.2.2,59.98686630984112,
Hippopolis,stimuli/subj_files/pilot1_cityA.csv,./stimuli/frankfurt.jpg,./stimuli/street_plate1.png,KIFLI UTCA,stimuli/scenes/006a.jpg,scene,0,stimuli/scenes/006a.jpg,stimuli/scenes/006a.jpg,stimuli/scenes/006b.jpg,stimuli/scenes/014b.jpg,stimuli/scenes/014a.jpg,target,lure,dist2,dist1,0,0,0,0,0,35,35,62,,,,,,,,,,,291.80660534091294,292.82732551917434,292.82732551917434,292.82732551917434,292.82732551917434,None,,,,,,,,,,,,,,,,,,,,,,,,,,,,,,pilot1,2022-10-14_14h14.13.574,Hippopolis_Learning,2022.2.2,59.98686630984112,
Hippopolis,stimuli/subj_files/pilot1_cityA.csv,./stimuli/frankfurt.jpg,./stimuli/street_plate1.png,FECSKE UTCA,stimuli/objects/106a.jpg,object,2,stimuli/scenes/051a.jpg,stimuli/scenes/116b.jpg,stimuli/scenes/051b.jpg,stimuli/scenes/116a.jpg,stimuli/scenes/051a.jpg,dist2,lure,dist1,target,0,0,0,0,0,36,36,49,,,,,,,,,,,295.8181981034577,296.8562114816159,296.8562114816159,296.8562114816159,296.8562114816159,None,,,,,,,,,,,,,,,,,,,,,,,,,,,,,,pilot1,2022-10-14_14h14.13.574,Hippopolis_Learning,2022.2.2,59.98686630984112,
Hippopolis,stimuli/subj_files/pilot1_cityA.csv,./stimuli/frankfurt.jpg,./stimuli/street_plate1.png,PADLÓ UTCA,stimuli/objects/053a.jpg,object,0,stimuli/objects/053a.jpg,stimuli/objects/053a.jpg,stimuli/objects/053b.jpg,stimuli/objects/064b.jpg,stimuli/objects/064a.jpg,target,lure,dist2,dist1,0,0,0,0,0,37,37,74,,,,,,,,,,,299.82875614985824,300.8637928850949,300.8637928850949,300.8637928850949,300.8637928850949,None,,,,,,,,,,,,,,,,,,,,,,,,,,,,,,pilot1,2022-10-14_14h14.13.574,Hippopolis_Learning,2022.2.2,59.98686630984112,
Hippopolis,stimuli/subj_files/pilot1_cityA.csv,./stimuli/frankfurt.jpg,./stimuli/street_plate1.png,NARANCS UTCA,stimuli/scenes/103a.jpg,scene,2,stimuli/objects/097a.jpg,stimuli/objects/097b.jpg,stimuli/objects/046a.jpg,stimuli/objects/046b.jpg,stimuli/objects/097a.jpg,lure,dist1,dist2,target,0,0,0,0,0,38,38,13,,,,,,,,,,,303.8342335931957,304.8822476938367,304.8822476938367,304.8822476938367,304.8822476938367,None,,,,,,,,,,,,,,,,,,,,,,,,,,,,,,pilot1,2022-10-14_14h14.13.574,Hippopolis_Learning,2022.2.2,59.98686630984112,
Hippopolis,stimuli/subj_files/pilot1_cityA.csv,./stimuli/frankfurt.jpg,./stimuli/street_plate1.png,EPER UTCA,stimuli/objects/028a.jpg,object,1,stimuli/objects/062a.jpg,stimuli/objects/062a.jpg,stimuli/objects/047b.jpg,stimuli/objects/062b.jpg,stimuli/objects/047a.jpg,target,dist2,lure,dist1,0,0,0,0,0,39,39,39,,,,,,,,,,,307.85142789408565,308.88603544048965,308.88603544048965,308.88603544048965,308.88603544048965,None,,,,,,,,,,,,,,,,,,,,,,,,,,,,,,pilot1,2022-10-14_14h14.13.574,Hippopolis_Learning,2022.2.2,59.98686630984112,
Hippopolis,stimuli/subj_files/pilot1_cityA.csv,./stimuli/frankfurt.jpg,./stimuli/street_plate1.png,BÚJÓCSKA UTCA,stimuli/objects/025a.jpg,object,2,stimuli/scenes/001a.jpg,stimuli/scenes/096b.jpg,stimuli/scenes/001a.jpg,stimuli/scenes/096a.jpg,stimuli/scenes/001b.jpg,dist2,target,dist1,lure,0,0,0,0,0,40,40,7,,,,,,,,,,,311.8630424272269,312.91449843533337,312.91449843533337,312.91449843533337,312.91449843533337,None,,,,,,,,,,,,,,,,,,,,,,,,,,,,,,pilot1,2022-10-14_14h14.13.574,Hippopolis_Learning,2022.2.2,59.98686630984112,
Hippopolis,stimuli/subj_files/pilot1_cityA.csv,./stimuli/frankfurt.jpg,./stimuli/street_plate1.png,DARU UTCA,stimuli/scenes/035a.jpg,scene,1,stimuli/scenes/080a.jpg,stimuli/scenes/080b.jpg,stimuli/objects/010b.jpg,stimuli/objects/010a.jpg,stimuli/scenes/080a.jpg,lure,dist2,dist1,target,0,0,0,0,0,41,41,41,,,,,,,,,,,315.8765519224107,316.92497748322785,316.92497748322785,316.92497748322785,316.92497748322785,None,,,,,,,,,,,,,,,,,,,,,,,,,,,,,,pilot1,2022-10-14_14h14.13.574,Hippopolis_Learning,2022.2.2,59.98686630984112,
Hippopolis,stimuli/subj_files/pilot1_cityA.csv,./stimuli/frankfurt.jpg,./stimuli/street_plate1.png,LEGELŐ UTCA,stimuli/scenes/012a.jpg,scene,1,stimuli/scenes/014a.jpg,stimuli/scenes/014b.jpg,stimuli/objects/016b.jpg,stimuli/scenes/014a.jpg,stimuli/objects/016a.jpg,lure,dist2,target,dist1,0,0,0,0,0,42,42,65,,,,,,,,,,,319.89356552809477,320.9391400925815,320.9391400925815,320.9391400925815,320.9391400925815,None,,,,,,,,,,,,,,,,,,,,,,,,,,,,,,pilot1,2022-10-14_14h14.13.574,Hippopolis_Learning,2022.2.2,59.98686630984112,
Hippopolis,stimuli/subj_files/pilot1_cityA.csv,./stimuli/frankfurt.jpg,./stimuli/street_plate1.png,FÜGE UTCA,stimuli/objects/109a.jpg,object,2,stimuli/scenes/104a.jpg,stimuli/scenes/104b.jpg,stimuli/objects/030b.jpg,stimuli/scenes/104a.jpg,stimuli/objects/030a.jpg,lure,dist2,target,dist1,0,0,0,0,0,43,43,9,,,,,,,,,,,323.9101623836905,324.94587742350996,324.94587742350996,324.94587742350996,324.94587742350996,None,,,,,,,,,,,,,,,,,,,,,,,,,,,,,,pilot1,2022-10-14_14h14.13.574,Hippopolis_Learning,2022.2.2,59.98686630984112,
Hippopolis,stimuli/subj_files/pilot1_cityA.csv,./stimuli/frankfurt.jpg,./stimuli/street_plate1.png,SÜTEMÉNY UTCA,stimuli/scenes/043a.jpg,scene,2,stimuli/objects/033a.jpg,stimuli/objects/033b.jpg,stimuli/scenes/026a.jpg,stimuli/scenes/026b.jpg,stimuli/objects/033a.jpg,lure,dist1,dist2,target,0,0,0,0,0,44,44,2,,,,,,,,,,,327.91780567727983,328.936023497954,328.936023497954,328.936023497954,328.936023497954,space,331.9315278995782,331.9315278995782,66.10063068009913,,,,,,,,,,,,,,,,,,,,,,,,,,,pilot1,2022-10-14_14h14.13.574,Hippopolis_Learning,2022.2.2,59.98686630984112,
Hippopolis,stimuli/subj_files/pilot1_cityA.csv,./stimuli/frankfurt.jpg,./stimuli/street_plate1.png,TEHÉN UTCA,stimuli/objects/006a.jpg,object,1,stimuli/objects/017a.jpg,stimuli/objects/017a.jpg,stimuli/objects/017b.jpg,stimuli/scenes/113b.jpg,stimuli/scenes/113a.jpg,target,lure,dist2,dist1,0,0,0,0,0,45,45,28,,,,,,,,,,,398.056254837662,399.0958499927074,399.0958499927074,399.0958499927074,399.0958499927074,None,,,,,,,,,,,,,,,,,,,,,,,,,,,,,,pilot1,2022-10-14_14h14.13.574,Hippopolis_Learning,2022.2.2,59.98686630984112,
Hippopolis,stimuli/subj_files/pilot1_cityA.csv,./stimuli/frankfurt.jpg,./stimuli/street_plate1.png,KIRAKÓ UTCA,stimuli/scenes/021a.jpg,scene,1,stimuli/scenes/020a.jpg,stimuli/objects/022b.jpg,stimuli/objects/022a.jpg,stimuli/scenes/020a.jpg,stimuli/scenes/020b.jpg,dist2,dist1,target,lure,0,0,0,0,0,46,46,59,,,,,,,,,,,402.06320613995194,403.0815194416791,403.0815194416791,403.0815194416791,403.0815194416791,None,,,,,,,,,,,,,,,,,,,,,,,,,,,,,,pilot1,2022-10-14_14h14.13.574,Hippopolis_Learning,2022.2.2,59.98686630984112,
Hippopolis,stimuli/subj_files/pilot1_cityA.csv,./stimuli/frankfurt.jpg,./stimuli/street_plate1.png,TÖLCSÉR UTCA,stimuli/scenes/068a.jpg,scene,0,stimuli/scenes/068a.jpg,stimuli/objects/039a.jpg,stimuli/scenes/068a.jpg,stimuli/scenes/068b.jpg,stimuli/objects/039b.jpg,dist1,target,lure,dist2,0,0,0,0,0,47,47,46,,,,,,,,,,,406.07309179008007,407.0931445490569,407.0931445490569,407.0931445490569,407.0931445490569,None,,,,,,,,,,,,,,,,,,,,,,,,,,,,,,pilot1,2022-10-14_14h14.13.574,Hippopolis_Learning,2022.2.2,59.98686630984112,
Hippopolis,stimuli/subj_files/pilot1_cityA.csv,./stimuli/frankfurt.jpg,./stimuli/street_plate1.png,VITORLA UTCA,stimuli/scenes/086a.jpg,scene,2,stimuli/objects/015a.jpg,stimuli/objects/015b.jpg,stimuli/objects/115a.jpg,stimuli/objects/015a.jpg,stimuli/objects/115b.jpg,lure,dist1,target,dist2,0,0,0,0,0,48,48,77,,,,,,,,,,,410.08870742097497,411.1261025182903,411.1261025182903,411.1261025182903,411.1261025182903,None,,,,,,,,,,,,,,,,,,,,,,,,,,,,,,pilot1,2022-10-14_14h14.13.574,Hippopolis_Learning,2022.2.2,59.98686630984112,
Hippopolis,stimuli/subj_files/pilot1_cityA.csv,./stimuli/frankfurt.jpg,./stimuli/street_plate1.png,FIÓK UTCA,stimuli/objects/012a.jpg,object,0,stimuli/objects/012a.jpg,stimuli/objects/012a.jpg,stimuli/objects/024b.jpg,stimuli/objects/012b.jpg,stimuli/objects/024a.jpg,target,dist2,lure,dist1,0,0,0,0,0,49,49,31,,,,,,,,,,,414.0917876288295,415.1120646223426,415.1120646223426,415.1120646223426,415.1120646223426,None,,,,,,,,,,,,,,,,,,,,,,,,,,,,,,pilot1,2022-10-14_14h14.13.574,Hippopolis_Learning,2022.2.2,59.98686630984112,
Hippopolis,stimuli/subj_files/pilot1_cityA.csv,./stimuli/frankfurt.jpg,./stimuli/street_plate1.png,LEPKE UTCA,stimuli/scenes/046a.jpg,scene,0,stimuli/scenes/046a.jpg,stimuli/scenes/094a.jpg,stimuli/scenes/046a.jpg,stimuli/scenes/046b.jpg,stimuli/scenes/094b.jpg,dist1,target,lure,dist2,0,0,0,0,0,50,50,61,,,,,,,,,,,418.098554816097,419.11787266656756,419.11787266656756,419.11787266656756,419.11787266656756,None,,,,,,,,,,,,,,,,,,,,,,,,,,,,,,pilot1,2022-10-14_14h14.13.574,Hippopolis_Learning,2022.2.2,59.98686630984112,
Hippopolis,stimuli/subj_files/pilot1_cityA.csv,./stimuli/frankfurt.jpg,./stimuli/street_plate1.png,MARTINI UTCA,stimuli/scenes/069a.jpg,scene,0,stimuli/scenes/069a.jpg,stimuli/objects/065a.jpg,stimuli/scenes/069b.jpg,stimuli/scenes/069a.jpg,stimuli/objects/065b.jpg,dist1,lure,target,dist2,0,0,0,0,0,51,51,54,,,,,,,,,,,422.10514037683606,423.1414183396846,423.1414183396846,423.1414183396846,423.1414183396846,None,,,,,,,,,,,,,,,,,,,,,,,,,,,,,,pilot1,2022-10-14_14h14.13.574,Hippopolis_Learning,2022.2.2,59.98686630984112,
Hippopolis,stimuli/subj_files/pilot1_cityA.csv,./stimuli/frankfurt.jpg,./stimuli/street_plate1.png,TELEFON UTCA,stimuli/objects/102a.jpg,object,2,stimuli/scenes/004a.jpg,stimuli/objects/057a.jpg,stimuli/scenes/004b.jpg,stimuli/scenes/004a.jpg,stimuli/objects/057b.jpg,dist1,lure,target,dist2,0,0,0,0,0,52,52,66,,,,,,,,,,,426.11700340360403,427.15750856511295,427.15750856511295,427.15750856511295,427.15750856511295,None,,,,,,,,,,,,,,,,,,,,,,,,,,,,,,pilot1,2022-10-14_14h14.13.574,Hippopolis_Learning,2022.2.2,59.98686630984112,
Hippopolis,stimuli/subj_files/pilot1_cityA.csv,./stimuli/frankfurt.jpg,./stimuli/street_plate1.png,TRIATLON UTCA,stimuli/objects/119a.jpg,object,2,stimuli/scenes/018a.jpg,stimuli/objects/017a.jpg,stimuli/objects/017b.jpg,stimuli/scenes/018b.jpg,stimuli/scenes/018a.jpg,dist1,dist2,lure,target,0,0,0,0,0,53,53,75,,,,,,,,,,,430.116989409551,431.16630196012557,431.16630196012557,431.16630196012557,431.16630196012557,None,,,,,,,,,,,,,,,,,,,,,,,,,,,,,,pilot1,2022-10-14_14h14.13.574,Hippopolis_Learning,2022.2.2,59.98686630984112,
Hippopolis,stimuli/subj_files/pilot1_cityA.csv,./stimuli/frankfurt.jpg,./stimuli/street_plate1.png,FÜZET UTCA,stimuli/scenes/008a.jpg,scene,2,stimuli/objects/024a.jpg,stimuli/objects/024b.jpg,stimuli/scenes/117a.jpg,stimuli/objects/024a.jpg,stimuli/scenes/117b.jpg,lure,dist1,target,dist2,0,0,0,0,0,54,54,69,,,,,,,,,,,434.1216302458197,435.1592337191105,435.1592337191105,435.1592337191105,435.1592337191105,None,,,,,,,,,,,,,,,,,,,,,,,,,,,,,,pilot1,2022-10-14_14h14.13.574,Hippopolis_Learning,2022.2.2,59.98686630984112,
Hippopolis,stimuli/subj_files/pilot1_cityA.csv,./stimuli/frankfurt.jpg,./stimuli/street_plate1.png,PÉKSÉG UTCA,stimuli/objects/030a.jpg,object,0,stimuli/objects/030a.jpg,stimuli/objects/030a.jpg,stimuli/objects/073a.jpg,stimuli/objects/030b.jpg,stimuli/objects/073b.jpg,target,dist1,lure,dist2,0,0,0,0,0,55,55,48,,,,,,,,,,,438.1382401641458,439.17883614078164,439.17883614078164,439.17883614078164,439.17883614078164,None,,,,,,,,,,,,,,,,,,,,,,,,,,,,,,pilot1,2022-10-14_14h14.13.574,Hippopolis_Learning,2022.2.2,59.98686630984112,
Hippopolis,stimuli/subj_files/pilot1_cityA.csv,./stimuli/frankfurt.jpg,./stimuli/street_plate1.png,MOTOR UTCA,stimuli/objects/111a.jpg,object,1,stimuli/objects/100a.jpg,stimuli/objects/055a.jpg,stimuli/objects/100b.jpg,stimuli/objects/100a.jpg,stimuli/objects/055b.jpg,dist1,lure,target,dist2,0,0,0,0,0,56,56,55,,,,,,,,,,,442.14981706626713,443.18442368134856,443.18442368134856,443.18442368134856,443.18442368134856,None,,,,,,,,,,,,,,,,,,,,,,,,,,,,,,pilot1,2022-10-14_14h14.13.574,Hippopolis_Learning,2022.2.2,59.98686630984112,
Hippopolis,stimuli/subj_files/pilot1_cityA.csv,./stimuli/frankfurt.jpg,./stimuli/street_plate1.png,ÁLOM UTCA,stimuli/scenes/031a.jpg,scene,1,stimuli/scenes/114a.jpg,stimuli/scenes/114b.jpg,stimuli/scenes/080b.jpg,stimuli/scenes/114a.jpg,stimuli/scenes/080a.jpg,lure,dist2,target,dist1,0,0,0,0,0,57,57,15,,,,,,,,,,,446.1577013898641,447.1924516893923,447.1924516893923,447.1924516893923,447.1924516893923,None,,,,,,,,,,,,,,,,,,,,,,,,,,,,,,pilot1,2022-10-14_14h14.13.574,Hippopolis_Learning,2022.2.2,59.98686630984112,
Hippopolis,stimuli/subj_files/pilot1_cityA.csv,./stimuli/frankfurt.jpg,./stimuli/street_plate1.png,RIBIZLI UTCA,stimuli/scenes/017a.jpg,scene,0,stimuli/scenes/017a.jpg,stimuli/scenes/068b.jpg,stimuli/scenes/017a.jpg,stimuli/scenes/068a.jpg,stimuli/scenes/017b.jpg,dist2,target,dist1,lure,0,0,0,0,0,58,58,37,,,,,,,,,,,450.1634108442813,451.1899381354451,451.1899381354451,451.1899381354451,451.1899381354451,None,,,,,,,,,,,,,,,,,,,,,,,,,,,,,,pilot1,2022-10-14_14h14.13.574,Hippopolis_Learning,2022.2.2,59.98686630984112,
Hippopolis,stimuli/subj_files/pilot1_cityA.csv,./stimuli/frankfurt.jpg,./stimuli/street_plate1.png,SZŐNYEG UTCA,stimuli/scenes/044a.jpg,scene,0,stimuli/scenes/044a.jpg,stimuli/scenes/044a.jpg,stimuli/scenes/004b.jpg,stimuli/scenes/004a.jpg,stimuli/scenes/044b.jpg,target,dist2,dist1,lure,0,0,0,0,0,59,59,11,,,,,,,,,,,454.17426403425634,455.1856191903353,455.1856191903353,455.1856191903353,455.1856191903353,None,,,,,,,,,,,,,,,,,,,,,,,,,,,,,,pilot1,2022-10-14_14h14.13.574,Hippopolis_Learning,2022.2.2,59.98686630984112,
Hippopolis,stimuli/subj_files/pilot1_cityA.csv,./stimuli/frankfurt.jpg,./stimuli/street_plate1.png,SZITAKÖTŐ UTCA,stimuli/objects/064a.jpg,object,0,stimuli/objects/064a.jpg,stimuli/objects/037b.jpg,stimuli/objects/064a.jpg,stimuli/objects/064b.jpg,stimuli/objects/037a.jpg,dist2,target,lure,dist1,0,0,0,0,0,60,60,3,,,,,,,,,,,458.17720584385097,459.2113810926676,459.2113810926676,459.2113810926676,459.2113810926676,None,,,,,,,,,,,,,,,,,,,,,,,,,,,,,,pilot1,2022-10-14_14h14.13.574,Hippopolis_Learning,2022.2.2,59.98686630984112,
Hippopolis,stimuli/subj_files/pilot1_cityA.csv,./stimuli/frankfurt.jpg,./stimuli/street_plate1.png,TOLMÁCS UTCA,stimuli/objects/049a.jpg,object,2,stimuli/scenes/097a.jpg,stimuli/scenes/097b.jpg,stimuli/scenes/077a.jpg,stimuli/scenes/097a.jpg,stimuli/scenes/077b.jpg,lure,dist1,target,dist2,0,0,0,0,0,61,61,23,,,,,,,,,,,462.1846416965127,463.22032563760877,463.22032563760877,463.22032563760877,463.22032563760877,None,,,,,,,,,,,,,,,,,,,,,,,,,,,,,,pilot1,2022-10-14_14h14.13.574,Hippopolis_Learning,2022.2.2,59.98686630984112,
Hippopolis,stimuli/subj_files/pilot1_cityA.csv,./stimuli/frankfurt.jpg,./stimuli/street_plate1.png,POHÁR UTCA,stimuli/scenes/062a.jpg,scene,1,stimuli/scenes/064a.jpg,stimuli/scenes/064a.jpg,stimuli/scenes/006b.jpg,stimuli/scenes/006a.jpg,stimuli/scenes/064b.jpg,target,dist2,dist1,lure,0,0,0,0,0,62,62,38,,,,,,,,,,,466.1907949578017,467.2264608591795,467.2264608591795,467.2264608591795,467.2264608591795,None,,,,,,,,,,,,,,,,,,,,,,,,,,,,,,pilot1,2022-10-14_14h14.13.574,Hippopolis_Learning,2022.2.2,59.98686630984112,
Hippopolis,stimuli/subj_files/pilot1_cityA.csv,./stimuli/frankfurt.jpg,./stimuli/street_plate1.png,TÉRKÉP UTCA,stimuli/scenes/061a.jpg,scene,2,stimuli/objects/065a.jpg,stimuli/objects/065a.jpg,stimuli/scenes/060b.jpg,stimuli/scenes/060a.jpg,stimuli/objects/065b.jpg,target,dist2,dist1,lure,0,0,0,0,0,63,63,72,,,,,,,,,,,470.2054390050471,471.2428387682885,471.2428387682885,471.2428387682885,471.2428387682885,None,,,,,,,,,,,,,,,,,,,,,,,,,,,,,,pilot1,2022-10-14_14h14.13.574,Hippopolis_Learning,2022.2.2,59.98686630984112,
Hippopolis,stimuli/subj_files/pilot1_cityA.csv,./stimuli/frankfurt.jpg,./stimuli/street_plate1.png,HARMONIKA UTCA,stimuli/scenes/028a.jpg,scene,2,stimuli/objects/099a.jpg,stimuli/objects/099a.jpg,stimuli/objects/015b.jpg,stimuli/objects/015a.jpg,stimuli/objects/099b.jpg,target,dist2,dist1,lure,0,0,0,0,0,64,64,63,,,,,,,,,,,474.21469890885055,475.25058873556554,475.25058873556554,475.25058873556554,475.25058873556554,None,,,,,,,,,,,,,,,,,,,,,,,,,,,,,,pilot1,2022-10-14_14h14.13.574,Hippopolis_Learning,2022.2.2,59.98686630984112,
Hippopolis,stimuli/subj_files/pilot1_cityA.csv,./stimuli/frankfurt.jpg,./stimuli/street_plate1.png,TÁBLA UTCA,stimuli/objects/118a.jpg,object,1,stimuli/objects/042a.jpg,stimuli/scenes/084a.jpg,stimuli/scenes/084b.jpg,stimuli/objects/042a.jpg,stimuli/objects/042b.jpg,dist1,dist2,target,lure,0,0,0,0,0,65,65,78,,,,,,,,,,,478.2311903350055,479.26737561635673,479.26737561635673,479.26737561635673,479.26737561635673,None,,,,,,,,,,,,,,,,,,,,,,,,,,,,,,pilot1,2022-10-14_14h14.13.574,Hippopolis_Learning,2022.2.2,59.98686630984112,
Hippopolis,stimuli/subj_files/pilot1_cityA.csv,./stimuli/frankfurt.jpg,./stimuli/street_plate1.png,KÁRTYA UTCA,stimuli/scenes/079a.jpg,scene,1,stimuli/scenes/094a.jpg,stimuli/scenes/094a.jpg,stimuli/scenes/105a.jpg,stimuli/scenes/105b.jpg,stimuli/scenes/094b.jpg,target,dist1,dist2,lure,0,0,0,0,0,66,66,30,,,,,,,,,,,482.23777464963496,483.2728070318699,483.2728070318699,483.2728070318699,483.2728070318699,None,,,,,,,,,,,,,,,,,,,,,,,,,,,,,,pilot1,2022-10-14_14h14.13.574,Hippopolis_Learning,2022.2.2,59.98686630984112,
Hippopolis,stimuli/subj_files/pilot1_cityA.csv,./stimuli/frankfurt.jpg,./stimuli/street_plate1.png,KAKAS UTCA,stimuli/scenes/057a.jpg,scene,1,stimuli/scenes/076a.jpg,stimuli/scenes/076b.jpg,stimuli/objects/014b.jpg,stimuli/objects/014a.jpg,stimuli/scenes/076a.jpg,lure,dist2,dist1,target,0,0,0,0,0,67,67,18,,,,,,,,,,,486.2488542534411,487.2679232992232,487.2679232992232,487.2679232992232,487.2679232992232,None,,,,,,,,,,,,,,,,,,,,,,,,,,,,,,pilot1,2022-10-14_14h14.13.574,Hippopolis_Learning,2022.2.2,59.98686630984112,
Hippopolis,stimuli/subj_files/pilot1_cityA.csv,./stimuli/frankfurt.jpg,./stimuli/street_plate1.png,SIVATAG UTCA,stimuli/scenes/085a.jpg,scene,2,stimuli/objects/038a.jpg,stimuli/objects/012b.jpg,stimuli/objects/038a.jpg,stimuli/objects/038b.jpg,stimuli/objects/012a.jpg,dist2,target,lure,dist1,0,0,0,0,0,68,68,35,,,,,,,,,,,490.2571124061942,491.2676010970026,491.2676010970026,491.2676010970026,491.2676010970026,None,,,,,,,,,,,,,,,,,,,,,,,,,,,,,,pilot1,2022-10-14_14h14.13.574,Hippopolis_Learning,2022.2.2,59.98686630984112,
Hippopolis,stimuli/subj_files/pilot1_cityA.csv,./stimuli/frankfurt.jpg,./stimuli/street_plate1.png,MANDARIN UTCA,stimuli/scenes/047a.jpg,scene,1,stimuli/scenes/024a.jpg,stimuli/scenes/024a.jpg,stimuli/scenes/024b.jpg,stimuli/scenes/069a.jpg,stimuli/scenes/069b.jpg,target,lure,dist1,dist2,0,0,0,0,0,69,69,60,,,,,,,,,,,494.26528161019087,495.28397060744464,495.28397060744464,495.28397060744464,495.28397060744464,None,,,,,,,,,,,,,,,,,,,,,,,,,,,,,,pilot1,2022-10-14_14h14.13.574,Hippopolis_Learning,2022.2.2,59.98686630984112,
Hippopolis,stimuli/subj_files/pilot1_cityA.csv,./stimuli/frankfurt.jpg,./stimuli/street_plate1.png,SZÖCSKE UTCA,stimuli/objects/057a.jpg,object,0,stimuli/objects/057a.jpg,stimuli/objects/057b.jpg,stimuli/objects/057a.jpg,stimuli/scenes/045b.jpg,stimuli/scenes/045a.jpg,lure,target,dist2,dist1,0,0,0,0,0,70,70,14,,,,,,,,,,,498.2715745139867,499.30790628120303,499.30790628120303,499.30790628120303,499.30790628120303,None,,,,,,,,,,,,,,,,,,,,,,,,,,,,,,pilot1,2022-10-14_14h14.13.574,Hippopolis_Learning,2022.2.2,59.98686630984112,
Hippopolis,stimuli/subj_files/pilot1_cityA.csv,./stimuli/frankfurt.jpg,./stimuli/street_plate1.png,SZILVA UTCA,stimuli/objects/059a.jpg,object,2,stimuli/scenes/070a.jpg,stimuli/scenes/114b.jpg,stimuli/scenes/070a.jpg,stimuli/scenes/070b.jpg,stimuli/scenes/114a.jpg,dist2,target,lure,dist1,0,0,0,0,0,71,71,71,,,,,,,,,,,502.2794955354184,503.3059270363301,503.3059270363301,503.3059270363301,503.3059270363301,None,,,,,,,,,,,,,,,,,,,,,,,,,,,,,,pilot1,2022-10-14_14h14.13.574,Hippopolis_Learning,2022.2.2,59.98686630984112,
Hippopolis,stimuli/subj_files/pilot1_cityA.csv,./stimuli/frankfurt.jpg,./stimuli/street_plate1.png,BICIKLI UTCA,stimuli/objects/027a.jpg,object,2,stimuli/scenes/026a.jpg,stimuli/scenes/029b.jpg,stimuli/scenes/026b.jpg,stimuli/scenes/029a.jpg,stimuli/scenes/026a.jpg,dist2,lure,dist1,target,0,0,0,0,0,72,72,47,,,,,,,,,,,506.28182901628315,507.30891332030296,507.30891332030296,507.30891332030296,507.30891332030296,None,,,,,,,,,,,,,,,,,,,,,,,,,,,,,,pilot1,2022-10-14_14h14.13.574,Hippopolis_Learning,2022.2.2,59.98686630984112,
Hippopolis,stimuli/subj_files/pilot1_cityA.csv,./stimuli/frankfurt.jpg,./stimuli/street_plate1.png,TENISZ UTCA,stimuli/objects/089a.jpg,object,2,stimuli/scenes/120a.jpg,stimuli/objects/040a.jpg,stimuli/objects/040b.jpg,stimuli/scenes/120b.jpg,stimuli/scenes/120a.jpg,dist1,dist2,lure,target,0,0,0,0,0,73,73,0,,,,,,,,,,,510.2905284874141,511.3160994332284,511.3160994332284,511.3160994332284,511.3160994332284,None,,,,,,,,,,,,,,,,,,,,,,,,,,,,,,pilot1,2022-10-14_14h14.13.574,Hippopolis_Learning,2022.2.2,59.98686630984112,
Hippopolis,stimuli/subj_files/pilot1_cityA.csv,./stimuli/frankfurt.jpg,./stimuli/street_plate1.png,TOLLTARTÓ UTCA,stimuli/objects/117a.jpg,object,2,stimuli/scenes/045a.jpg,stimuli/scenes/045b.jpg,stimuli/scenes/120b.jpg,stimuli/scenes/045a.jpg,stimuli/scenes/120a.jpg,lure,dist2,target,dist1,0,0,0,0,0,74,74,58,,,,,,,,,,,514.3002841360867,515.3347405344248,515.3347405344248,515.3347405344248,515.3347405344248,None,,,,515.3347405344248,,,,,,,,,,,,,,,,,,,,,,,,,,pilot1,2022-10-14_14h14.13.574,Hippopolis_Learning,2022.2.2,59.98686630984112,
Hippopolis,stimuli/subj_files/pilot1_cityA.csv,./stimuli/frankfurt.jpg,./stimuli/street_plate1.png,VÁSÁR UTCA,stimuli/objects/060a.jpg,object,1,stimuli/objects/076a.jpg,stimuli/objects/076b.jpg,stimuli/objects/076a.jpg,stimuli/objects/080b.jpg,stimuli/objects/080a.jpg,lure,target,dist2,dist1,0,0,0,0,0,75,75,40,,,,,,,,,,,518.3105383273214,519.3506174106151,519.3506174106151,519.3506174106151,519.3506174106151,None,,,,,,,,,,,,,,,,,,,,,,,,,,,,,,pilot1,2022-10-14_14h14.13.574,Hippopolis_Learning,2022.2.2,59.98686630984112,
Hippopolis,stimuli/subj_files/pilot1_cityA.csv,./stimuli/frankfurt.jpg,./stimuli/street_plate1.png,ÁLLOMÁS UTCA,stimuli/objects/041a.jpg,object,1,stimuli/objects/022a.jpg,stimuli/objects/022b.jpg,stimuli/objects/022a.jpg,stimuli/objects/062b.jpg,stimuli/objects/062a.jpg,lure,target,dist2,dist1,0,0,0,0,0,76,76,24,,,,,,,,,,,522.3270888440311,523.3664090707898,523.3664090707898,523.3664090707898,523.3664090707898,None,,,,,,,,,,,,,,,,,,,,,,,,,,,,,,pilot1,2022-10-14_14h14.13.574,Hippopolis_Learning,2022.2.2,59.98686630984112,
Hippopolis,stimuli/subj_files/pilot1_cityA.csv,./stimuli/frankfurt.jpg,./stimuli/street_plate1.png,TISZTÁS UTCA,stimuli/objects/021a.jpg,object,2,stimuli/scenes/029a.jpg,stimuli/objects/018b.jpg,stimuli/scenes/029b.jpg,stimuli/scenes/029a.jpg,stimuli/objects/018a.jpg,dist2,lure,target,dist1,0,0,0,0,0,77,77,67,,,,,,,,,,,526.3379911724478,527.3726273328066,527.3726273328066,527.3726273328066,527.3726273328066,None,,,,,,,,,,,,,,,,,,,,,,,,,,,,,,pilot1,2022-10-14_14h14.13.574,Hippopolis_Learning,2022.2.2,59.98686630984112,
Hippopolis,stimuli/subj_files/pilot1_cityA.csv,./stimuli/frankfurt.jpg,./stimuli/street_plate1.png,FOGÓ UTCA,stimuli/scenes/072a.jpg,scene,0,stimuli/scenes/072a.jpg,stimuli/scenes/072b.jpg,stimuli/scenes/072a.jpg,stimuli/objects/104b.jpg,stimuli/objects/104a.jpg,lure,target,dist2,dist1,0,0,0,0,0,78,78,70,,,,,,,,,,,530.3493908010423,531.38384533301,531.38384533301,531.38384533301,531.38384533301,None,,,,,,,,,,,,,,,,,,,,,,,,,,,,,,pilot1,2022-10-14_14h14.13.574,Hippopolis_Learning,2022.2.2,59.98686630984112,
Hippopolis,stimuli/subj_files/pilot1_cityA.csv,./stimuli/frankfurt.jpg,./stimuli/street_plate1.png,SZIKLA UTCA,stimuli/objects/077a.jpg,object,1,stimuli/objects/072a.jpg,stimuli/scenes/017b.jpg,stimuli/objects/072a.jpg,stimuli/scenes/017a.jpg,stimuli/objects/072b.jpg,dist2,target,dist1,lure,0,0,0,0,0,79,79,1,,,,,,,,,,,534.365036599338,535.3999641723931,535.3999641723931,535.3999641723931,535.3999641723931,None,,,,,,,,,,,,,,,,,,,,,,,,,,,,,,pilot1,2022-10-14_14h14.13.574,Hippopolis_Learning,2022.2.2,59.98686630984112,
Hippopolis,stimuli/subj_files/pilot1_cityA.csv,./stimuli/frankfurt.jpg,./stimuli/street_plate1.png,ÁRNYÉK UTCA,stimuli/scenes/088a.jpg,scene,0,stimuli/scenes/088a.jpg,stimuli/scenes/088a.jpg,stimuli/objects/038a.jpg,stimuli/objects/038b.jpg,stimuli/scenes/088b.jpg,target,dist1,dist2,lure,0,0,0,0,,,,,0,0,0,42,,,,,,,569.0349620953202,,,,,,,,,,538.3786465507001,538.3786465507001,space,26.611235685646534,565.0479105357081,565.0479105357081,565.0479105357081,565.0479105357081,565.0479105357081,565.0479105357081,None,None,,,,,,,,,,,,,,pilot1,2022-10-14_14h14.13.574,Hippopolis_Learning,2022.2.2,59.98686630984112,
Hippopolis,stimuli/subj_files/pilot1_cityA.csv,./stimuli/frankfurt.jpg,./stimuli/street_plate1.png,POGÁCSA UTCA,stimuli/objects/093a.jpg,object,1,stimuli/objects/018a.jpg,stimuli/scenes/064a.jpg,stimuli/scenes/064b.jpg,stimuli/objects/018b.jpg,stimuli/objects/018a.jpg,dist1,dist2,lure,target,0,0,0,0,,,,,0,1,1,10,,,,,,,572.2461027801037,,,,,,,,,,,,,,570.0546422693878,570.0546422693878,570.0546422693878,570.0546422693878,570.0546422693878,570.0546422693878,left,None,2.1513555105775595,,,,,,,,,,,,,pilot1,2022-10-14_14h14.13.574,Hippopolis_Learning,2022.2.2,59.98686630984112,
Hippopolis,stimuli/subj_files/pilot1_cityA.csv,./stimuli/frankfurt.jpg,./stimuli/street_plate1.png,TENISZ UTCA,stimuli/objects/089a.jpg,object,2,stimuli/scenes/120a.jpg,stimuli/objects/040a.jpg,stimuli/objects/040b.jpg,stimuli/scenes/120b.jpg,stimuli/scenes/120a.jpg,dist1,dist2,lure,target,0,0,0,0,,,,,0,2,2,0,,,,,,,574.4485800694674,,,,,,,,,,,,,,573.2694895267487,573.2694895267487,573.2694895267487,573.2694895267487,573.2694895267487,573.2694895267487,right,None,1.1446284409612417,,,,,,,,,,,,,pilot1,2022-10-14_14h14.13.574,Hippopolis_Learning,2022.2.2,59.98686630984112,
Hippopolis,stimuli/subj_files/pilot1_cityA.csv,./stimuli/frankfurt.jpg,./stimuli/street_plate1.png,POHÁR UTCA,stimuli/scenes/062a.jpg,scene,1,stimuli/scenes/064a.jpg,stimuli/scenes/064a.jpg,stimuli/scenes/006b.jpg,stimuli/scenes/006a.jpg,stimuli/scenes/064b.jpg,target,dist2,dist1,lure,0,0,0,0,,,,,0,3,3,38,,,,,,,590.6136348936707,,,,,,,,,,,,,,575.4812599997967,575.4812599997967,575.4812599997967,575.4812599997967,575.4812599997967,575.4812599997967,right,space,1.8447887357324362,577.3741739671677,577.3741739671677,577.3741739671677,577.3741739671677,577.3741739671677,13.216239528730512,,,,,,,pilot1,2022-10-14_14h14.13.574,Hippopolis_Learning,2022.2.2,59.98686630984112,
Hippopolis,stimuli/subj_files/pilot1_cityA.csv,./stimuli/frankfurt.jpg,./stimuli/street_plate1.png,GYŰRŰ UTCA,stimuli/scenes/007a.jpg,scene,0,stimuli/scenes/007a.jpg,stimuli/scenes/076a.jpg,stimuli/scenes/007b.jpg,stimuli/scenes/007a.jpg,stimuli/scenes/076b.jpg,dist1,lure,target,dist2,0,0,0,0,,,,,0,4,4,76,,,,,,,593.1038422361016,,,,,,,,,,,,,,591.6416326221079,591.6416326221079,591.6416326221079,591.6416326221079,591.6416326221079,591.6416326221079,left,None,1.428733091801405,,,,,,,,,,,,,pilot1,2022-10-14_14h14.13.574,Hippopolis_Learning,2022.2.2,59.98686630984112,
Hippopolis,stimuli/subj_files/pilot1_cityA.csv,./stimuli/frankfurt.jpg,./stimuli/street_plate1.png,SIVATAG UTCA,stimuli/scenes/085a.jpg,scene,2,stimuli/objects/038a.jpg,stimuli/objects/012b.jpg,stimuli/objects/038a.jpg,stimuli/objects/038b.jpg,stimuli/objects/012a.jpg,dist2,target,lure,dist1,0,0,0,0,,,,,0,5,5,35,,,,,,,595.1356948893517,,,,,,,,,,,,,,594.1169974952936,594.1169974952936,594.1169974952936,594.1169974952936,594.1169974952936,594.1169974952936,right,None,0.9853418525308371,,,,,,,,,,,,,pilot1,2022-10-14_14h14.13.574,Hippopolis_Learning,2022.2.2,59.98686630984112,
Hippopolis,stimuli/subj_files/pilot1_cityA.csv,./stimuli/frankfurt.jpg,./stimuli/street_plate1.png,DOBOZ UTCA,stimuli/scenes/030a.jpg,scene,1,stimuli/scenes/060a.jpg,stimuli/scenes/051a.jpg,stimuli/scenes/060b.jpg,stimuli/scenes/060a.jpg,stimuli/scenes/051b.jpg,dist1,lure,target,dist2,0,0,0,0,,,,,0,6,6,21,,,,,,,598.0697587337345,,,,,,,,,599.0873934179544,,,,,596.149976613,596.149976613,596.149976613,596.149976613,596.149976613,596.149976613,left,None,1.8802499938756227,,,,,,,,,,,,,pilot1,2022-10-14_14h14.13.574,Hippopolis_Learning,2022.2.2,59.98686630984112,
Hippopolis,stimuli/subj_files/pilot1_cityA.csv,./stimuli/frankfurt.jpg,./stimuli/street_plate1.png,TEHÉN UTCA,stimuli/objects/006a.jpg,object,1,stimuli/objects/017a.jpg,stimuli/objects/017a.jpg,stimuli/objects/017b.jpg,stimuli/scenes/113b.jpg,stimuli/scenes/113a.jpg,target,lure,dist2,dist1,0,0,0,0,,,,,0,7,7,28,,,,,,,600.7058933842927,,,,,,,,,,,,,,599.0873934179544,599.0873934179544,599.0873934179544,599.0873934179544,599.0873934179544,599.0873934179544,left,None,1.5824492443352938,,,,,,,,,,,,,pilot1,2022-10-14_14h14.13.574,Hippopolis_Learning,2022.2.2,59.98686630984112,
Hippopolis,stimuli/subj_files/pilot1_cityA.csv,./stimuli/frankfurt.jpg,./stimuli/street_plate1.png,TORONY UTCA,stimuli/scenes/059a.jpg,scene,2,stimuli/objects/120a.jpg,stimuli/scenes/104b.jpg,stimuli/objects/120b.jpg,stimuli/scenes/104a.jpg,stimuli/objects/120a.jpg,dist2,lure,dist1,target,0,0,0,0,,,,,0,8,8,6,,,,,,,603.4529854748398,,,,,,,,,,,,,,601.7168747093529,601.7168747093529,601.7168747093529,601.7168747093529,601.7168747093529,601.7168747093529,left,None,1.704821553081274,,,,,,,,,,,,,pilot1,2022-10-14_14h14.13.574,Hippopolis_Learning,2022.2.2,59.98686630984112,
Hippopolis,stimuli/subj_files/pilot1_cityA.csv,./stimuli/frankfurt.jpg,./stimuli/street_plate1.png,KIRAKÓ UTCA,stimuli/scenes/021a.jpg,scene,1,stimuli/scenes/020a.jpg,stimuli/objects/022b.jpg,stimuli/objects/022a.jpg,stimuli/scenes/020a.jpg,stimuli/scenes/020b.jpg,dist2,dist1,target,lure,0,0,0,0,,,,,0,9,9,59,,,,,,,606.0000541154295,,,,,,,,,,,,,,604.4822216313332,604.4822216313332,604.4822216313332,604.4822216313332,604.4822216313332,604.4822216313332,left,None,1.4839261528104544,,,,,,,,,,,,,pilot1,2022-10-14_14h14.13.574,Hippopolis_Learning,2022.2.2,59.98686630984112,
Hippopolis,stimuli/subj_files/pilot1_cityA.csv,./stimuli/frankfurt.jpg,./stimuli/street_plate1.png,BÚJÓCSKA UTCA,stimuli/objects/025a.jpg,object,2,stimuli/scenes/001a.jpg,stimuli/scenes/096b.jpg,stimuli/scenes/001a.jpg,stimuli/scenes/096a.jpg,stimuli/scenes/001b.jpg,dist2,target,dist1,lure,0,0,0,0,,,,,0,10,10,7,,,,,,,608.6400212980807,,,,,,,,,609.6497924979776,,,,,607.0272525586188,607.0272525586188,607.0272525586188,607.0272525586188,607.0272525586188,607.0272525586188,left,None,1.5786185804754496,,,,,,,,,,,,,pilot1,2022-10-14_14h14.13.574,Hippopolis_Learning,2022.2.2,59.98686630984112,
Hippopolis,stimuli/subj_files/pilot1_cityA.csv,./stimuli/frankfurt.jpg,./stimuli/street_plate1.png,KORONG UTCA,stimuli/objects/104a.jpg,object,0,stimuli/objects/104a.jpg,stimuli/objects/076b.jpg,stimuli/objects/104a.jpg,stimuli/objects/104b.jpg,stimuli/objects/076a.jpg,dist2,target,lure,dist1,0,0,0,0,,,,,0,11,11,5,,,,,,,611.0201274007559,,,,,,,,,,,,,,609.6497924979776,609.6497924979776,609.6497924979776,609.6497924979776,609.6497924979776,609.6497924979776,left,None,1.3394179660826921,,,,,,,,,,,,,pilot1,2022-10-14_14h14.13.574,Hippopolis_Learning,2022.2.2,59.98686630984112,
Hippopolis,stimuli/subj_files/pilot1_cityA.csv,./stimuli/frankfurt.jpg,./stimuli/street_plate1.png,SZIKLA UTCA,stimuli/objects/077a.jpg,object,1,stimuli/objects/072a.jpg,stimuli/scenes/017b.jpg,stimuli/objects/072a.jpg,stimuli/scenes/017a.jpg,stimuli/objects/072b.jpg,dist2,target,dist1,lure,0,0,0,0,,,,,0,12,12,1,,,,,,,613.6363669726998,,,,,,,,,,,,,,612.0491066668183,612.0491066668183,612.0491066668183,612.0491066668183,612.0491066668183,612.0491066668183,left,None,1.5483050979673862,,,,,,,,,,,,,pilot1,2022-10-14_14h14.13.574,Hippopolis_Learning,2022.2.2,59.98686630984112,
Hippopolis,stimuli/subj_files/pilot1_cityA.csv,./stimuli/frankfurt.jpg,./stimuli/street_plate1.png,SÜTEMÉNY UTCA,stimuli/scenes/043a.jpg,scene,2,stimuli/objects/033a.jpg,stimuli/objects/033b.jpg,stimuli/scenes/026a.jpg,stimuli/scenes/026b.jpg,stimuli/objects/033a.jpg,lure,dist1,dist2,target,0,0,0,0,,,,,0,13,13,2,,,,,,,616.1514486055821,,,,,,,,,,,,,,614.6599991042167,614.6599991042167,614.6599991042167,614.6599991042167,614.6599991042167,614.6599991042167,left,None,1.4491260927170515,,,,,,,,,,,,,pilot1,2022-10-14_14h14.13.574,Hippopolis_Learning,2022.2.2,59.98686630984112,
Hippopolis,stimuli/subj_files/pilot1_cityA.csv,./stimuli/frankfurt.jpg,./stimuli/street_plate1.png,FÜZET UTCA,stimuli/scenes/008a.jpg,scene,2,stimuli/objects/024a.jpg,stimuli/objects/024b.jpg,stimuli/scenes/117a.jpg,stimuli/objects/024a.jpg,stimuli/scenes/117b.jpg,lure,dist1,target,dist2,0,0,0,0,,,,,0,14,14,69,,,,,,,634.5625999886543,,,,,,,,,,,,,,617.1717996206135,617.1717996206135,617.1717996206135,617.1717996206135,617.1717996206135,617.1717996206135,right,space,1.6256187986582518,618.845561068505,618.845561068505,618.845561068505,618.845561068505,618.845561068505,15.695667700842023,,,,,,,pilot1,2022-10-14_14h14.13.574,Hippopolis_Learning,2022.2.2,59.98686630984112,
Hippopolis,stimuli/subj_files/pilot1_cityA.csv,./stimuli/frankfurt.jpg,./stimuli/street_plate1.png,KÖNYVTÁR UTCA,stimuli/objects/070a.jpg,object,0,stimuli/objects/070a.jpg,stimuli/objects/070a.jpg,stimuli/scenes/100b.jpg,stimuli/scenes/100a.jpg,stimuli/objects/070b.jpg,target,dist2,dist1,lure,0,0,0,0,,,,,0,15,15,79,,,,,,,636.5688356682658,,,,,,,,,,,,,,635.5759807284921,635.5759807284921,635.5759807284921,635.5759807284921,635.5759807284921,635.5759807284921,left,None,0.9651833530515432,,,,,,,,,,,,,pilot1,2022-10-14_14h14.13.574,Hippopolis_Learning,2022.2.2,59.98686630984112,
Hippopolis,stimuli/subj_files/pilot1_cityA.csv,./stimuli/frankfurt.jpg,./stimuli/street_plate1.png,ÁLOM UTCA,stimuli/scenes/031a.jpg,scene,1,stimuli/scenes/114a.jpg,stimuli/scenes/114b.jpg,stimuli/scenes/080b.jpg,stimuli/scenes/114a.jpg,stimuli/scenes/080a.jpg,lure,dist2,target,dist1,0,0,0,0,,,,,0,16,16,15,,,,,,,639.2370098847896,,,,,,,,,,,,,,637.5895402953029,637.5895402953029,637.5895402953029,637.5895402953029,637.5895402953029,637.5895402953029,left,None,1.6243554893881083,,,,,,,,,,,,,pilot1,2022-10-14_14h14.13.574,Hippopolis_Learning,2022.2.2,59.98686630984112,
Hippopolis,stimuli/subj_files/pilot1_cityA.csv,./stimuli/frankfurt.jpg,./stimuli/street_plate1.png,TÁBLA UTCA,stimuli/objects/118a.jpg,object,1,stimuli/objects/042a.jpg,stimuli/scenes/084a.jpg,stimuli/scenes/084b.jpg,stimuli/objects/042a.jpg,stimuli/objects/042b.jpg,dist1,dist2,target,lure,0,0,0,0,,,,,0,17,17,78,,,,,,,646.2774117924273,,,,,,,,,647.2959468401968,,,,,640.2594856955111,640.2594856955111,640.2594856955111,640.2594856955111,640.2594856955111,640.2594856955111,right,space,1.0818135477602482,641.3767158221453,641.3767158221453,641.3767158221453,641.3767158221453,641.3767158221453,4.876944620162249,,,,,,,pilot1,2022-10-14_14h14.13.574,Hippopolis_Learning,2022.2.2,59.98686630984112,
Hippopolis,stimuli/subj_files/pilot1_cityA.csv,./stimuli/frankfurt.jpg,./stimuli/street_plate1.png,MENTA UTCA,stimuli/objects/088a.jpg,object,1,stimuli/objects/054a.jpg,stimuli/scenes/088b.jpg,stimuli/scenes/088a.jpg,stimuli/objects/054b.jpg,stimuli/objects/054a.jpg,dist2,dist1,lure,target,0,0,0,0,,,,,0,18,18,26,,,,,,,648.2736706975847,,,,,,,,,,,,,,647.2959468401968,647.2959468401968,647.2959468401968,647.2959468401968,647.2959468401968,647.2959468401968,left,None,0.941478755325079,,,,,,,,,,,,,pilot1,2022-10-14_14h14.13.574,Hippopolis_Learning,2022.2.2,59.98686630984112,
Hippopolis,stimuli/subj_files/pilot1_cityA.csv,./stimuli/frankfurt.jpg,./stimuli/street_plate1.png,KIFLI UTCA,stimuli/scenes/006a.jpg,scene,0,stimuli/scenes/006a.jpg,stimuli/scenes/006a.jpg,stimuli/scenes/006b.jpg,stimuli/scenes/014b.jpg,stimuli/scenes/014a.jpg,target,lure,dist2,dist1,0,0,0,0,,,,,0,19,19,62,,,,,,,650.3595594670624,,,,,,,,,,,,,,649.3020773995668,649.3020773995668,649.3020773995668,649.3020773995668,649.3020773995668,649.3020773995668,left,None,1.0154264345765114,,,,,,,,,,,,,pilot1,2022-10-14_14h14.13.574,Hippopolis_Learning,2022.2.2,59.98686630984112,
Hippopolis,stimuli/subj_files/pilot1_cityA.csv,./stimuli/frankfurt.jpg,./stimuli/street_plate1.png,ZSEMLE UTCA,stimuli/objects/035a.jpg,object,2,stimuli/scenes/100a.jpg,stimuli/objects/120a.jpg,stimuli/scenes/100b.jpg,stimuli/objects/120b.jpg,stimuli/scenes/100a.jpg,dist1,lure,dist2,target,0,0,0,0,,,,,0,20,20,27,,,,,,,652.8027998674661,,,,,,,,,653.8207440022379,,,,,651.375989312306,651.375989312306,651.375989312306,651.375989312306,651.375989312306,651.375989312306,left,None,1.3890399690717459,,,,,,,,,,,,,pilot1,2022-10-14_14h14.13.574,Hippopolis_Learning,2022.2.2,59.98686630984112,
Hippopolis,stimuli/subj_files/pilot1_cityA.csv,./stimuli/frankfurt.jpg,./stimuli/street_plate1.png,BONBON UTCA,stimuli/scenes/022a.jpg,scene,0,stimuli/scenes/022a.jpg,stimuli/scenes/022a.jpg,stimuli/scenes/022b.jpg,stimuli/scenes/018a.jpg,stimuli/scenes/018b.jpg,target,lure,dist1,dist2,0,0,0,0,,,,,0,21,21,43,,,,,,,654.8689313326031,,,,,,,,,,,,,,653.8207440022379,653.8207440022379,653.8207440022379,653.8207440022379,653.8207440022379,653.8207440022379,right,None,1.0250116530805826,,,,,,,,,,,,,pilot1,2022-10-14_14h14.13.574,Hippopolis_Learning,2022.2.2,59.98686630984112,
Hippopolis,stimuli/subj_files/pilot1_cityA.csv,./stimuli/frankfurt.jpg,./stimuli/street_plate1.png,MARTINI UTCA,stimuli/scenes/069a.jpg,scene,0,stimuli/scenes/069a.jpg,stimuli/objects/065a.jpg,stimuli/scenes/069b.jpg,stimuli/scenes/069a.jpg,stimuli/objects/065b.jpg,dist1,lure,target,dist2,0,0,0,0,,,,,0,22,22,54,,,,,,,657.0691958125681,,,,,,,,,658.0806794129312,,,,,655.8925979863852,655.8925979863852,655.8925979863852,655.8925979863852,655.8925979863852,655.8925979863852,left,None,1.1449885871261358,,,,,,,,,,,,,pilot1,2022-10-14_14h14.13.574,Hippopolis_Learning,2022.2.2,59.98686630984112,
Hippopolis,stimuli/subj_files/pilot1_cityA.csv,./stimuli/frankfurt.jpg,./stimuli/street_plate1.png,HARMONIKA UTCA,stimuli/scenes/028a.jpg,scene,2,stimuli/objects/099a.jpg,stimuli/objects/099a.jpg,stimuli/objects/015b.jpg,stimuli/objects/015a.jpg,stimuli/objects/099b.jpg,target,dist2,dist1,lure,0,0,0,0,,,,,0,23,23,63,,,,,,,659.4597856309265,,,,,,,,,,,,,,658.0806794129312,658.0806794129312,658.0806794129312,658.0806794129312,658.0806794129312,658.0806794129312,left,None,1.3407101966440678,,,,,,,,,,,,,pilot1,2022-10-14_14h14.13.574,Hippopolis_Learning,2022.2.2,59.98686630984112,
Hippopolis,stimuli/subj_files/pilot1_cityA.csv,./stimuli/frankfurt.jpg,./stimuli/street_plate1.png,KOCKA UTCA,stimuli/scenes/002a.jpg,scene,0,stimuli/scenes/002a.jpg,stimuli/scenes/072a.jpg,stimuli/scenes/002b.jpg,stimuli/scenes/072b.jpg,stimuli/scenes/002a.jpg,dist1,lure,dist2,target,0,0,0,0,,,,,0,24,24,73,,,,,,,661.7702483832836,,,,,,,,,,,,,,660.4820620846003,660.4820620846003,660.4820620846003,660.4820620846003,660.4820620846003,660.4820620846003,left,None,1.2585345339030027,,,,,,,,,,,,,pilot1,2022-10-14_14h14.13.574,Hippopolis_Learning,2022.2.2,59.98686630984112,
Hippopolis,stimuli/subj_files/pilot1_cityA.csv,./stimuli/frankfurt.jpg,./stimuli/street_plate1.png,RIBIZLI UTCA,stimuli/scenes/017a.jpg,scene,0,stimuli/scenes/017a.jpg,stimuli/scenes/068b.jpg,stimuli/scenes/017a.jpg,stimuli/scenes/068a.jpg,stimuli/scenes/017b.jpg,dist2,target,dist1,lure,0,0,0,0,,,,,0,25,25,37,,,,,,,663.941041585058,,,,,,,,,,,,,,662.7917606942356,662.7917606942356,662.7917606942356,662.7917606942356,662.7917606942356,662.7917606942356,left,None,1.109152875840664,,,,,,,,,,,,,pilot1,2022-10-14_14h14.13.574,Hippopolis_Learning,2022.2.2,59.98686630984112,
Hippopolis,stimuli/subj_files/pilot1_cityA.csv,./stimuli/frankfurt.jpg,./stimuli/street_plate1.png,KERET UTCA,stimuli/objects/046a.jpg,object,0,stimuli/objects/046a.jpg,stimuli/objects/046b.jpg,stimuli/scenes/022b.jpg,stimuli/scenes/022a.jpg,stimuli/objects/046a.jpg,lure,dist2,dist1,target,0,0,0,0,,,,,0,26,26,29,,,,,,,666.4253143034875,,,,,,,,,,,,,,664.9522008057684,664.9522008057684,664.9522008057684,664.9522008057684,664.9522008057684,664.9522008057684,left,None,1.4286565855145454,,,,,,,,,,,,,pilot1,2022-10-14_14h14.13.574,Hippopolis_Learning,2022.2.2,59.98686630984112,
Hippopolis,stimuli/subj_files/pilot1_cityA.csv,./stimuli/frankfurt.jpg,./stimuli/street_plate1.png,TISZTÁS UTCA,stimuli/objects/021a.jpg,object,2,stimuli/scenes/029a.jpg,stimuli/objects/018b.jpg,stimuli/scenes/029b.jpg,stimuli/scenes/029a.jpg,stimuli/objects/018a.jpg,dist2,lure,target,dist1,0,0,0,0,,,,,0,27,27,67,,,,,,,668.8404618073255,,,,,,,,,,,,,,667.4450756497681,667.4450756497681,667.4450756497681,667.4450756497681,667.4450756497681,667.4450756497681,left,None,1.3520995620638132,,,,,,,,,,,,,pilot1,2022-10-14_14h14.13.574,Hippopolis_Learning,2022.2.2,59.98686630984112,
Hippopolis,stimuli/subj_files/pilot1_cityA.csv,./stimuli/frankfurt.jpg,./stimuli/street_plate1.png,BICIKLI UTCA,stimuli/objects/027a.jpg,object,2,stimuli/scenes/026a.jpg,stimuli/scenes/029b.jpg,stimuli/scenes/026b.jpg,stimuli/scenes/029a.jpg,stimuli/scenes/026a.jpg,dist2,lure,dist1,target,0,0,0,0,,,,,0,28,28,47,,,,,,,671.3543889857829,,,,,,,,,,,,,,669.8618861045688,669.8618861045688,669.8618861045688,669.8618861045688,669.8618861045688,669.8618861045688,left,None,1.4627351090312004,,,,,,,,,,,,,pilot1,2022-10-14_14h14.13.574,Hippopolis_Learning,2022.2.2,59.98686630984112,
Hippopolis,stimuli/subj_files/pilot1_cityA.csv,./stimuli/frankfurt.jpg,./stimuli/street_plate1.png,TÖLCSÉR UTCA,stimuli/scenes/068a.jpg,scene,0,stimuli/scenes/068a.jpg,stimuli/objects/039a.jpg,stimuli/scenes/068a.jpg,stimuli/scenes/068b.jpg,stimuli/objects/039b.jpg,dist1,target,lure,dist2,0,0,0,0,,,,,0,29,29,46,,,,,,,673.4753356389701,,,,,,,,,,,,,,672.3759967759252,672.3759967759252,672.3759967759252,672.3759967759252,672.3759967759252,672.3759967759252,left,None,1.0610635112971067,,,,,,,,,,,,,pilot1,2022-10-14_14h14.13.574,Hippopolis_Learning,2022.2.2,59.98686630984112,
Hippopolis,stimuli/subj_files/pilot1_cityA.csv,./stimuli/frankfurt.jpg,./stimuli/street_plate1.png,PAPRIKA UTCA,stimuli/scenes/118a.jpg,scene,0,stimuli/scenes/118a.jpg,stimuli/scenes/118a.jpg,stimuli/objects/068b.jpg,stimuli/scenes/118b.jpg,stimuli/objects/068a.jpg,target,dist2,lure,dist1,0,0,0,0,,,,,0,30,30,20,,,,,,,676.0857761856169,,,,,,,,,,,,,,674.4943909998983,674.4943909998983,674.4943909998983,674.4943909998983,674.4943909998983,674.4943909998983,left,None,1.5670656245201826,,,,,,,,,,,,,pilot1,2022-10-14_14h14.13.574,Hippopolis_Learning,2022.2.2,59.98686630984112,
Hippopolis,stimuli/subj_files/pilot1_cityA.csv,./stimuli/frankfurt.jpg,./stimuli/street_plate1.png,DARU UTCA,stimuli/scenes/035a.jpg,scene,1,stimuli/scenes/080a.jpg,stimuli/scenes/080b.jpg,stimuli/objects/010b.jpg,stimuli/objects/010a.jpg,stimuli/scenes/080a.jpg,lure,dist2,dist1,target,0,0,0,0,,,,,0,31,31,41,,,,,,,678.6742945145816,,,,,,,,,,,,,,677.1163708176464,677.1163708176464,677.1163708176464,677.1163708176464,677.1163708176464,677.1163708176464,left,None,1.5208307933062315,,,,,,,,,,,,,pilot1,2022-10-14_14h14.13.574,Hippopolis_Learning,2022.2.2,59.98686630984112,
Hippopolis,stimuli/subj_files/pilot1_cityA.csv,./stimuli/frankfurt.jpg,./stimuli/street_plate1.png,KABÁT UTCA,stimuli/scenes/032a.jpg,scene,1,stimuli/scenes/105a.jpg,stimuli/scenes/105a.jpg,stimuli/scenes/024b.jpg,stimuli/scenes/024a.jpg,stimuli/scenes/105b.jpg,target,dist2,dist1,lure,0,0,0,0,,,,,0,32,32,50,,,,,,,681.1595217101276,,,,,,,,,,,,,,679.6951191909611,679.6951191909611,679.6951191909611,679.6951191909611,679.6951191909611,679.6951191909611,left,None,1.421988608315587,,,,,,,,,,,,,pilot1,2022-10-14_14h14.13.574,Hippopolis_Learning,2022.2.2,59.98686630984112,
Hippopolis,stimuli/subj_files/pilot1_cityA.csv,./stimuli/frankfurt.jpg,./stimuli/street_plate1.png,MAJORÁNNA UTCA,stimuli/objects/068a.jpg,object,0,stimuli/objects/068a.jpg,stimuli/objects/068a.jpg,stimuli/scenes/118a.jpg,stimuli/objects/068b.jpg,stimuli/scenes/118b.jpg,target,dist1,lure,dist2,0,0,0,0,,,,,0,33,33,57,,,,,,,683.5204835031182,,,,,,,,,,,,,,682.1881498489529,682.1881498489529,682.1881498489529,682.1881498489529,682.1881498489529,682.1881498489529,left,None,1.2971039898693562,,,,,,,,,,,,,pilot1,2022-10-14_14h14.13.574,Hippopolis_Learning,2022.2.2,59.98686630984112,
Hippopolis,stimuli/subj_files/pilot1_cityA.csv,./stimuli/frankfurt.jpg,./stimuli/street_plate1.png,PADLÓ UTCA,stimuli/objects/053a.jpg,object,0,stimuli/objects/053a.jpg,stimuli/objects/053a.jpg,stimuli/objects/053b.jpg,stimuli/objects/064b.jpg,stimuli/objects/064a.jpg,target,lure,dist2,dist1,0,0,0,0,,,,,0,34,34,74,,,,,,,686.2022197768092,,,,,,,,,687.2184798140079,,,,,684.5526359658688,684.5526359658688,684.5526359658688,684.5526359658688,684.5526359658688,684.5526359658688,left,None,1.6201939135789871,,,,,,,,,,,,,pilot1,2022-10-14_14h14.13.574,Hippopolis_Learning,2022.2.2,59.98686630984112,
Hippopolis,stimuli/subj_files/pilot1_cityA.csv,./stimuli/frankfurt.jpg,./stimuli/street_plate1.png,FECSKE UTCA,stimuli/objects/106a.jpg,object,2,stimuli/scenes/051a.jpg,stimuli/scenes/116b.jpg,stimuli/scenes/051b.jpg,stimuli/scenes/116a.jpg,stimuli/scenes/051a.jpg,dist2,lure,dist1,target,0,0,0,0,,,,,0,35,35,49,,,,,,,688.9500856511295,,,,,,,,,,,,,,687.2184798140079,687.2184798140079,687.2184798140079,687.2184798140079,687.2184798140079,687.2184798140079,left,None,1.6743964198976755,,,,,,,,,,,,,pilot1,2022-10-14_14h14.13.574,Hippopolis_Learning,2022.2.2,59.98686630984112,
Hippopolis,stimuli/subj_files/pilot1_cityA.csv,./stimuli/frankfurt.jpg,./stimuli/street_plate1.png,FOGÓ UTCA,stimuli/scenes/072a.jpg,scene,0,stimuli/scenes/072a.jpg,stimuli/scenes/072b.jpg,stimuli/scenes/072a.jpg,stimuli/objects/104b.jpg,stimuli/objects/104a.jpg,lure,target,dist2,dist1,0,0,0,0,,,,,0,36,36,70,,,,,,,691.6291317213327,,,,,,,,,,,,,,689.9740306567401,689.9740306567401,689.9740306567401,689.9740306567401,689.9740306567401,689.9740306567401,left,None,1.606667933985591,,,,,,,,,,,,,pilot1,2022-10-14_14h14.13.574,Hippopolis_Learning,2022.2.2,59.98686630984112,
Hippopolis,stimuli/subj_files/pilot1_cityA.csv,./stimuli/frankfurt.jpg,./stimuli/street_plate1.png,KOKTÉL UTCA,stimuli/scenes/106a.jpg,scene,1,stimuli/scenes/096a.jpg,stimuli/scenes/096a.jpg,stimuli/scenes/096b.jpg,stimuli/objects/042a.jpg,stimuli/objects/042b.jpg,target,lure,dist1,dist2,0,0,0,0,,,,,0,37,37,44,,,,,,,694.0710789561272,,,,,,,,,,,,,,692.6462597753853,692.6462597753853,692.6462597753853,692.6462597753853,692.6462597753853,692.6462597753853,right,None,1.398279657587409,,,,,,,,,,,,,pilot1,2022-10-14_14h14.13.574,Hippopolis_Learning,2022.2.2,59.98686630984112,
Hippopolis,stimuli/subj_files/pilot1_cityA.csv,./stimuli/frankfurt.jpg,./stimuli/street_plate1.png,ZSÁLYA UTCA,stimuli/objects/034a.jpg,object,2,stimuli/scenes/117a.jpg,stimuli/scenes/117b.jpg,stimuli/scenes/001b.jpg,stimuli/scenes/117a.jpg,stimuli/scenes/001a.jpg,lure,dist2,target,dist1,0,0,0,0,,,,,0,38,38,33,,,,,,,696.1397519670427,,,,,,,,,,,,,,695.0940744578838,695.0940744578838,695.0940744578838,695.0940744578838,695.0940744578838,695.0940744578838,left,None,1.01456805691123,,,,,,,,,,,,,pilot1,2022-10-14_14h14.13.574,Hippopolis_Learning,2022.2.2,59.98686630984112,
Hippopolis,stimuli/subj_files/pilot1_cityA.csv,./stimuli/frankfurt.jpg,./stimuli/street_plate1.png,SZITAKÖTŐ UTCA,stimuli/objects/064a.jpg,object,0,stimuli/objects/064a.jpg,stimuli/objects/037b.jpg,stimuli/objects/064a.jpg,stimuli/objects/064b.jpg,stimuli/objects/037a.jpg,dist2,target,lure,dist1,0,0,0,0,,,,,0,39,39,3,,,,,,,698.3853826373816,,,,,,,,,699.4053573347628,,,,,697.1502272840589,697.1502272840589,697.1502272840589,697.1502272840589,697.1502272840589,697.1502272840589,right,None,1.1981019470840693,,,,,,,,,,,,,pilot1,2022-10-14_14h14.13.574,Hippopolis_Learning,2022.2.2,59.98686630984112,
Hippopolis,stimuli/subj_files/pilot1_cityA.csv,./stimuli/frankfurt.jpg,./stimuli/street_plate1.png,TETŐ UTCA,stimuli/scenes/067a.jpg,scene,2,stimuli/objects/047a.jpg,stimuli/objects/047a.jpg,stimuli/objects/047b.jpg,stimuli/objects/097b.jpg,stimuli/objects/097a.jpg,target,lure,dist2,dist1,0,0,0,0,,,,,0,40,40,8,,,,,,,700.8535082153976,,,,,,,,,,,,,,699.4053573347628,699.4053573347628,699.4053573347628,699.4053573347628,699.4053573347628,699.4053573347628,left,None,1.422948993742466,,,,,,,,,,,,,pilot1,2022-10-14_14h14.13.574,Hippopolis_Learning,2022.2.2,59.98686630984112,
Hippopolis,stimuli/subj_files/pilot1_cityA.csv,./stimuli/frankfurt.jpg,./stimuli/street_plate1.png,ÁLLOMÁS UTCA,stimuli/objects/041a.jpg,object,1,stimuli/objects/022a.jpg,stimuli/objects/022b.jpg,stimuli/objects/022a.jpg,stimuli/objects/062b.jpg,stimuli/objects/062a.jpg,lure,target,dist2,dist1,0,0,0,0,,,,,0,41,41,24,,,,,,,703.1065772268921,,,,,,,,,,,,,,701.8839196637273,701.8839196637273,701.8839196637273,701.8839196637273,701.8839196637273,701.8839196637273,left,None,1.1844282411038876,,,,,,,,,,,,,pilot1,2022-10-14_14h14.13.574,Hippopolis_Learning,2022.2.2,59.98686630984112,
Hippopolis,stimuli/subj_files/pilot1_cityA.csv,./stimuli/frankfurt.jpg,./stimuli/street_plate1.png,PÉKSÉG UTCA,stimuli/objects/030a.jpg,object,0,stimuli/objects/030a.jpg,stimuli/objects/030a.jpg,stimuli/objects/073a.jpg,stimuli/objects/030b.jpg,stimuli/objects/073b.jpg,target,dist1,lure,dist2,0,0,0,0,,,,,0,42,42,48,,,,,,,705.0344567093998,,,,,,,,,,,,,,704.1387694980949,704.1387694980949,704.1387694980949,704.1387694980949,704.1387694980949,704.1387694980949,left,None,0.866332458332181,,,,,,,,,,,,,pilot1,2022-10-14_14h14.13.574,Hippopolis_Learning,2022.2.2,59.98686630984112,
Hippopolis,stimuli/subj_files/pilot1_cityA.csv,./stimuli/frankfurt.jpg,./stimuli/street_plate1.png,KECSKE UTCA,stimuli/objects/011a.jpg,object,1,stimuli/objects/086a.jpg,stimuli/objects/086b.jpg,stimuli/objects/066a.jpg,stimuli/objects/086a.jpg,stimuli/objects/066b.jpg,lure,dist1,target,dist2,0,0,0,0,,,,,0,43,43,64,,,,,,,707.4538615811616,,,,,,,,,,,,,,706.0461782291532,706.0461782291532,706.0461782291532,706.0461782291532,706.0461782291532,706.0461782291532,right,None,1.3742348197847605,,,,,,,,,,,,,pilot1,2022-10-14_14h14.13.574,Hippopolis_Learning,2022.2.2,59.98686630984112,
Hippopolis,stimuli/subj_files/pilot1_cityA.csv,./stimuli/frankfurt.jpg,./stimuli/street_plate1.png,PETREZSELYEM UTCA,stimuli/objects/090a.jpg,object,1,stimuli/objects/040a.jpg,stimuli/objects/040a.jpg,stimuli/objects/053a.jpg,stimuli/objects/053b.jpg,stimuli/objects/040b.jpg,target,dist1,dist2,lure,0,0,0,0,,,,,0,44,44,16,,,,,,,709.8431059848517,,,,,,,,,,,,,,708.4852082263678,708.4852082263678,708.4852082263678,708.4852082263678,708.4852082263678,708.4852082263678,left,None,1.3197586294263601,,,,,,,,,,,,,pilot1,2022-10-14_14h14.13.574,Hippopolis_Learning,2022.2.2,59.98686630984112,
Hippopolis,stimuli/subj_files/pilot1_cityA.csv,./stimuli/frankfurt.jpg,./stimuli/street_plate1.png,PAPAGÁJ UTCA,stimuli/scenes/023a.jpg,scene,1,stimuli/scenes/113a.jpg,stimuli/objects/070b.jpg,stimuli/scenes/113b.jpg,stimuli/objects/070a.jpg,stimuli/scenes/113a.jpg,dist2,lure,dist1,target,0,0,0,0,,,,,0,45,45,53,,,,,,,712.0681035574526,,,,,,,,,,,,,,710.8693409282714,710.8693409282714,710.8693409282714,710.8693409282714,710.8693409282714,710.8693409282714,left,None,1.1589925847947598,,,,,,,,,,,,,pilot1,2022-10-14_14h14.13.574,Hippopolis_Learning,2022.2.2,59.98686630984112,
Hippopolis,stimuli/subj_files/pilot1_cityA.csv,./stimuli/frankfurt.jpg,./stimuli/street_plate1.png,FÜGE UTCA,stimuli/objects/109a.jpg,object,2,stimuli/scenes/104a.jpg,stimuli/scenes/104b.jpg,stimuli/objects/030b.jpg,stimuli/scenes/104a.jpg,stimuli/objects/030a.jpg,lure,dist2,target,dist1,0,0,0,0,,,,,0,46,46,9,,,,,,,714.2537718862295,,,,,,,,,,,,,,713.0915490854532,713.0915490854532,713.0915490854532,713.0915490854532,713.0915490854532,713.0915490854532,left,None,1.1291698701679707,,,,,,,,,,,,,pilot1,2022-10-14_14h14.13.574,Hippopolis_Learning,2022.2.2,59.98686630984112,
Hippopolis,stimuli/subj_files/pilot1_cityA.csv,./stimuli/frankfurt.jpg,./stimuli/street_plate1.png,LEPKE UTCA,stimuli/scenes/046a.jpg,scene,0,stimuli/scenes/046a.jpg,stimuli/scenes/094a.jpg,stimuli/scenes/046a.jpg,stimuli/scenes/046b.jpg,stimuli/scenes/094b.jpg,dist1,target,lure,dist2,0,0,0,0,,,,,0,47,47,61,,,,,,,716.5546901635826,,,,,,,,,,,,,,715.2654834538698,715.2654834538698,715.2654834538698,715.2654834538698,715.2654834538698,715.2654834538698,right,None,1.258724868297577,,,,,,,,,,,,,pilot1,2022-10-14_14h14.13.574,Hippopolis_Learning,2022.2.2,59.98686630984112,
Hippopolis,stimuli/subj_files/pilot1_cityA.csv,./stimuli/frankfurt.jpg,./stimuli/street_plate1.png,VÁSÁR UTCA,stimuli/objects/060a.jpg,object,1,stimuli/objects/076a.jpg,stimuli/objects/076b.jpg,stimuli/objects/076a.jpg,stimuli/objects/080b.jpg,stimuli/objects/080a.jpg,lure,target,dist2,dist1,0,0,0,0,,,,,0,48,48,40,,,,,,,718.8525829706341,,,,,,,,,719.8625441938639,,,,,717.5655315350741,717.5655315350741,717.5655315350741,717.5655315350741,717.5655315350741,717.5655315350741,left,None,1.2470251191407442,,,,,,,,,,,,,pilot1,2022-10-14_14h14.13.574,Hippopolis_Learning,2022.2.2,59.98686630984112,
Hippopolis,stimuli/subj_files/pilot1_cityA.csv,./stimuli/frankfurt.jpg,./stimuli/street_plate1.png,TRIATLON UTCA,stimuli/objects/119a.jpg,object,2,stimuli/scenes/018a.jpg,stimuli/objects/017a.jpg,stimuli/objects/017b.jpg,stimuli/scenes/018b.jpg,stimuli/scenes/018a.jpg,dist1,dist2,lure,target,0,0,0,0,,,,,0,49,49,75,,,,,,,720.8064240235835,,,,,,,,,,,,,,719.8625441938639,719.8625441938639,719.8625441938639,719.8625441938639,719.8625441938639,719.8625441938639,left,None,0.9178295191377401,,,,,,,,,,,,,pilot1,2022-10-14_14h14.13.574,Hippopolis_Learning,2022.2.2,59.98686630984112,
Hippopolis,stimuli/subj_files/pilot1_cityA.csv,./stimuli/frankfurt.jpg,./stimuli/street_plate1.png,TÉRKÉP UTCA,stimuli/scenes/061a.jpg,scene,2,stimuli/objects/065a.jpg,stimuli/objects/065a.jpg,stimuli/scenes/060b.jpg,stimuli/scenes/060a.jpg,stimuli/objects/065b.jpg,target,dist2,dist1,lure,0,0,0,0,,,,,0,50,50,72,,,,,,,723.2227975148708,,,,,,,,,,,,,,721.8277733698487,721.8277733698487,721.8277733698487,721.8277733698487,721.8277733698487,721.8277733698487,left,None,1.3528717905282974,,,,,,,,,,,,,pilot1,2022-10-14_14h14.13.574,Hippopolis_Learning,2022.2.2,59.98686630984112,
Hippopolis,stimuli/subj_files/pilot1_cityA.csv,./stimuli/frankfurt.jpg,./stimuli/street_plate1.png,KULACS UTCA,stimuli/objects/045a.jpg,object,1,stimuli/objects/073a.jpg,stimuli/objects/073a.jpg,stimuli/objects/073b.jpg,stimuli/scenes/002a.jpg,stimuli/scenes/002b.jpg,target,lure,dist1,dist2,0,0,0,0,,,,,0,51,51,51,,,,,,,725.1201940197498,,,,,,,,,726.1311613488942,,,,,724.2435746081173,724.2435746081173,724.2435746081173,724.2435746081173,724.2435746081173,724.2435746081173,left,None,0.8411421850323677,,,,,,,,,,,,,pilot1,2022-10-14_14h14.13.574,Hippopolis_Learning,2022.2.2,59.98686630984112,
Hippopolis,stimuli/subj_files/pilot1_cityA.csv,./stimuli/frankfurt.jpg,./stimuli/street_plate1.png,LÁNDZSA UTCA,stimuli/scenes/041a.jpg,scene,1,stimuli/scenes/116a.jpg,stimuli/scenes/116b.jpg,stimuli/scenes/116a.jpg,stimuli/objects/100a.jpg,stimuli/objects/100b.jpg,lure,target,dist1,dist2,0,0,0,0,,,,,0,52,52,32,,,,,,,727.3896188568324,,,,,,,,,,,,,,726.1311613488942,726.1311613488942,726.1311613488942,726.1311613488942,726.1311613488942,726.1311613488942,right,None,1.2250263951718807,,,,,,,,,,,,,pilot1,2022-10-14_14h14.13.574,Hippopolis_Learning,2022.2.2,59.98686630984112,
Hippopolis,stimuli/subj_files/pilot1_cityA.csv,./stimuli/frankfurt.jpg,./stimuli/street_plate1.png,MANDARIN UTCA,stimuli/scenes/047a.jpg,scene,1,stimuli/scenes/024a.jpg,stimuli/scenes/024a.jpg,stimuli/scenes/024b.jpg,stimuli/scenes/069a.jpg,stimuli/scenes/069b.jpg,target,lure,dist1,dist2,0,0,0,0,,,,,0,53,53,60,,,,,,,729.5510719157755,,,,,,,,,,,,,,728.4157900437713,728.4157900437713,728.4157900437713,728.4157900437713,728.4157900437713,728.4157900437713,left,None,1.1007597465068102,,,,,,,,,,,,,pilot1,2022-10-14_14h14.13.574,Hippopolis_Learning,2022.2.2,59.98686630984112,
Hippopolis,stimuli/subj_files/pilot1_cityA.csv,./stimuli/frankfurt.jpg,./stimuli/street_plate1.png,KESELYŰ UTCA,stimuli/scenes/027a.jpg,scene,2,stimuli/objects/101a.jpg,stimuli/scenes/044a.jpg,stimuli/objects/101a.jpg,stimuli/objects/101b.jpg,stimuli/scenes/044b.jpg,dist1,target,lure,dist2,0,0,0,0,,,,,0,54,54,4,,,,,,,731.7585131786764,,,,,,,,,,,,,,730.5703950542957,730.5703950542957,730.5703950542957,730.5703950542957,730.5703950542957,730.5703950542957,left,None,1.153763011097908,,,,,,,,,,,,,pilot1,2022-10-14_14h14.13.574,Hippopolis_Learning,2022.2.2,59.98686630984112,
Hippopolis,stimuli/subj_files/pilot1_cityA.csv,./stimuli/frankfurt.jpg,./stimuli/street_plate1.png,ASZTAL UTCA,stimuli/objects/016a.jpg,object,0,stimuli/objects/016a.jpg,stimuli/objects/016a.jpg,stimuli/scenes/046b.jpg,stimuli/scenes/046a.jpg,stimuli/objects/016b.jpg,target,dist2,dist1,lure,0,0,0,0,,,,,0,55,55,56,,,,,,,734.4596030693501,,,,,,,,,,,,,,732.7803181484342,732.7803181484342,732.7803181484342,732.7803181484342,732.7803181484342,732.7803181484342,left,None,1.6318302173167467,,,,,,,,,,,,,pilot1,2022-10-14_14h14.13.574,Hippopolis_Learning,2022.2.2,59.98686630984112,
Hippopolis,stimuli/subj_files/pilot1_cityA.csv,./stimuli/frankfurt.jpg,./stimuli/street_plate1.png,MOTOR UTCA,stimuli/objects/111a.jpg,object,1,stimuli/objects/100a.jpg,stimuli/objects/055a.jpg,stimuli/objects/100b.jpg,stimuli/objects/100a.jpg,stimuli/objects/055b.jpg,dist1,lure,target,dist2,0,0,0,0,,,,,0,56,56,55,,,,,,,736.2894001565874,,,,,,,,,,,,,,735.4797575268894,735.4797575268894,735.4797575268894,735.4797575268894,735.4797575268894,735.4797575268894,left,None,0.7723354417830706,,,,,,,,,,,,,pilot1,2022-10-14_14h14.13.574,Hippopolis_Learning,2022.2.2,59.98686630984112,
Hippopolis,stimuli/subj_files/pilot1_cityA.csv,./stimuli/frankfurt.jpg,./stimuli/street_plate1.png,KÖTÉNY UTCA,stimuli/scenes/108a.jpg,scene,2,stimuli/objects/066a.jpg,stimuli/objects/072b.jpg,stimuli/objects/072a.jpg,stimuli/objects/066b.jpg,stimuli/objects/066a.jpg,dist2,dist1,lure,target,0,0,0,0,,,,,0,57,57,36,,,,,,,738.6016250718385,,,,,,,,,739.6125662755221,,,,,737.2999463826418,737.2999463826418,737.2999463826418,737.2999463826418,737.2999463826418,737.2999463826418,left,None,1.2725770939141512,,,,,,,,,,,,,pilot1,2022-10-14_14h14.13.574,Hippopolis_Learning,2022.2.2,59.98686630984112,
Hippopolis,stimuli/subj_files/pilot1_cityA.csv,./stimuli/frankfurt.jpg,./stimuli/street_plate1.png,EGÉR UTCA,stimuli/objects/013a.jpg,object,1,stimuli/objects/080a.jpg,stimuli/scenes/070a.jpg,stimuli/objects/080a.jpg,stimuli/objects/080b.jpg,stimuli/scenes/070b.jpg,dist1,target,lure,dist2,0,0,0,0,,,,,0,58,58,34,,,,,,,741.3244138788432,,,,,,,,,,,,,,739.6125662755221,739.6125662755221,739.6125662755221,739.6125662755221,739.6125662755221,739.6125662755221,left,None,1.6797998454421759,,,,,,,,,,,,,pilot1,2022-10-14_14h14.13.574,Hippopolis_Learning,2022.2.2,59.98686630984112,
Hippopolis,stimuli/subj_files/pilot1_cityA.csv,./stimuli/frankfurt.jpg,./stimuli/street_plate1.png,SZERSZÁM UTCA,stimuli/objects/037a.jpg,object,0,stimuli/objects/037a.jpg,stimuli/objects/037a.jpg,stimuli/scenes/097b.jpg,stimuli/scenes/097a.jpg,stimuli/objects/037b.jpg,target,dist2,dist1,lure,0,0,0,0,,,,,0,59,59,19,,,,,,,743.9260946195573,,,,,,,,,,,,,,742.344713576138,742.344713576138,742.344713576138,742.344713576138,742.344713576138,742.344713576138,left,None,1.5392100270837545,,,,,,,,,,,,,pilot1,2022-10-14_14h14.13.574,Hippopolis_Learning,2022.2.2,59.98686630984112,
Hippopolis,stimuli/subj_files/pilot1_cityA.csv,./stimuli/frankfurt.jpg,./stimuli/street_plate1.png,KAKAS UTCA,stimuli/scenes/057a.jpg,scene,1,stimuli/scenes/076a.jpg,stimuli/scenes/076b.jpg,stimuli/objects/014b.jpg,stimuli/objects/014a.jpg,stimuli/scenes/076a.jpg,lure,dist2,dist1,target,0,0,0,0,,,,,0,60,60,18,,,,,,,746.0674417372793,,,,,,,,,,,,,,744.9441140182316,744.9441140182316,744.9441140182316,744.9441140182316,744.9441140182316,744.9441140182316,right,None,1.0837190840393305,,,,,,,,,,,,,pilot1,2022-10-14_14h14.13.574,Hippopolis_Learning,2022.2.2,59.98686630984112,
Hippopolis,stimuli/subj_files/pilot1_cityA.csv,./stimuli/frankfurt.jpg,./stimuli/street_plate1.png,KÁRTYA UTCA,stimuli/scenes/079a.jpg,scene,1,stimuli/scenes/094a.jpg,stimuli/scenes/094a.jpg,stimuli/scenes/105a.jpg,stimuli/scenes/105b.jpg,stimuli/scenes/094b.jpg,target,dist1,dist2,lure,0,0,0,0,,,,,0,61,61,30,,,,,,,748.4760714806616,,,,,,,,,,,,,,747.0884950030595,747.0884950030595,747.0884950030595,747.0884950030595,747.0884950030595,747.0884950030595,right,None,1.3553427383303642,,,,,,,,,,,,,pilot1,2022-10-14_14h14.13.574,Hippopolis_Learning,2022.2.2,59.98686630984112,
Hippopolis,stimuli/subj_files/pilot1_cityA.csv,./stimuli/frankfurt.jpg,./stimuli/street_plate1.png,SZŐNYEG UTCA,stimuli/scenes/044a.jpg,scene,0,stimuli/scenes/044a.jpg,stimuli/scenes/044a.jpg,stimuli/scenes/004b.jpg,stimuli/scenes/004a.jpg,stimuli/scenes/044b.jpg,target,dist2,dist1,lure,0,0,0,0,,,,,0,62,62,11,,,,,,,750.4577227253467,,,,,,,,,,,,,,749.4954944513738,749.4954944513738,749.4954944513738,749.4954944513738,749.4954944513738,749.4954944513738,right,None,0.9161531943827868,,,,,,,,,,,,,pilot1,2022-10-14_14h14.13.574,Hippopolis_Learning,2022.2.2,59.98686630984112,
Hippopolis,stimuli/subj_files/pilot1_cityA.csv,./stimuli/frankfurt.jpg,./stimuli/street_plate1.png,KENYÉR UTCA,stimuli/scenes/071a.jpg,scene,2,stimuli/objects/055a.jpg,stimuli/objects/033b.jpg,stimuli/objects/055a.jpg,stimuli/objects/055b.jpg,stimuli/objects/033a.jpg,dist2,target,lure,dist1,0,0,0,0,,,,,0,63,63,17,,,,,,,752.8045200426131,,,,,,,,,,,,,,751.4699446540326,751.4699446540326,751.4699446540326,751.4699446540326,751.4699446540326,751.4699446540326,left,None,1.2943173721432686,,,,,,,,,,,,,pilot1,2022-10-14_14h14.13.574,Hippopolis_Learning,2022.2.2,59.98686630984112,
Hippopolis,stimuli/subj_files/pilot1_cityA.csv,./stimuli/frankfurt.jpg,./stimuli/street_plate1.png,LEGELŐ UTCA,stimuli/scenes/012a.jpg,scene,1,stimuli/scenes/014a.jpg,stimuli/scenes/014b.jpg,stimuli/objects/016b.jpg,stimuli/scenes/014a.jpg,stimuli/objects/016a.jpg,lure,dist2,target,dist1,0,0,0,0,,,,,0,64,64,65,,,,,,,754.9890370257199,,,,,,,,,,,,,,753.8151511754841,753.8151511754841,753.8151511754841,753.8151511754841,753.8151511754841,753.8151511754841,left,None,1.1404363866895437,,,,,,,,,,,,,pilot1,2022-10-14_14h14.13.574,Hippopolis_Learning,2022.2.2,59.98686630984112,
Hippopolis,stimuli/subj_files/pilot1_cityA.csv,./stimuli/frankfurt.jpg,./stimuli/street_plate1.png,TOLLTARTÓ UTCA,stimuli/objects/117a.jpg,object,2,stimuli/scenes/045a.jpg,stimuli/scenes/045b.jpg,stimuli/scenes/120b.jpg,stimuli/scenes/045a.jpg,stimuli/scenes/120a.jpg,lure,dist2,target,dist1,0,0,0,0,,,,,0,65,65,58,,,,,,,757.21854201518,,,,,,,,,,,,,,755.9992887284607,755.9992887284607,755.9992887284607,755.9992887284607,755.9992887284607,755.9992887284607,right,None,1.1810351610183716,,,,,,,,,,,,,pilot1,2022-10-14_14h14.13.574,Hippopolis_Learning,2022.2.2,59.98686630984112,
Hippopolis,stimuli/subj_files/pilot1_cityA.csv,./stimuli/frankfurt.jpg,./stimuli/street_plate1.png,KULLANCS UTCA,stimuli/scenes/111a.jpg,scene,1,stimuli/scenes/084a.jpg,stimuli/scenes/084b.jpg,stimuli/scenes/084a.jpg,stimuli/objects/054a.jpg,stimuli/objects/054b.jpg,lure,target,dist1,dist2,0,0,0,0,,,,,0,66,66,68,,,,,,,759.388565165922,,,,,,,,,,,,,,758.230536909774,758.230536909774,758.230536909774,758.230536909774,758.230536909774,758.230536909774,left,None,1.1256766468286514,,,,,,,,,,,,,pilot1,2022-10-14_14h14.13.574,Hippopolis_Learning,2022.2.2,59.98686630984112,
Hippopolis,stimuli/subj_files/pilot1_cityA.csv,./stimuli/frankfurt.jpg,./stimuli/street_plate1.png,POLIP UTCA,stimuli/objects/039a.jpg,object,0,stimuli/objects/039a.jpg,stimuli/objects/101a.jpg,stimuli/objects/039b.jpg,stimuli/objects/101b.jpg,stimuli/objects/039a.jpg,dist1,lure,dist2,target,0,0,0,0,,,,,0,67,67,12,,,,,,,769.1284888703376,,,,,,,,,,,,,,760.3983214367181,760.3983214367181,760.3983214367181,760.3983214367181,760.3983214367181,760.3983214367181,right,space,1.3093489352613688,761.743804441765,761.743804441765,761.743804441765,761.743804441765,761.743804441765,7.35641011223197,,,,,,,pilot1,2022-10-14_14h14.13.574,Hippopolis_Learning,2022.2.2,59.98686630984112,
Hippopolis,stimuli/subj_files/pilot1_cityA.csv,./stimuli/frankfurt.jpg,./stimuli/street_plate1.png,OROSZLÁN UTCA,stimuli/scenes/054a.jpg,scene,2,stimuli/objects/014a.jpg,stimuli/objects/099a.jpg,stimuli/objects/099b.jpg,stimuli/objects/014b.jpg,stimuli/objects/014a.jpg,dist1,dist2,lure,target,0,0,0,0,,,,,0,68,68,52,,,,,,,771.3004984203726,,,,,,,,,,,,,,770.1414083875716,770.1414083875716,770.1414083875716,770.1414083875716,770.1414083875716,770.1414083875716,left,None,1.1350547336041927,,,,,,,,,,,,,pilot1,2022-10-14_14h14.13.574,Hippopolis_Learning,2022.2.2,59.98686630984112,
Hippopolis,stimuli/subj_files/pilot1_cityA.csv,./stimuli/frankfurt.jpg,./stimuli/street_plate1.png,LOVAGLÁS UTCA,stimuli/objects/110a.jpg,object,1,stimuli/objects/010a.jpg,stimuli/objects/010b.jpg,stimuli/scenes/007a.jpg,stimuli/objects/010a.jpg,stimuli/scenes/007b.jpg,lure,dist1,target,dist2,0,0,0,0,,,,,0,69,69,22,,,,,,,773.6742279585451,,,,,,,,,,,,,,772.3195460066199,772.3195460066199,772.3195460066199,772.3195460066199,772.3195460066199,772.3195460066199,left,None,1.3081975895911455,,,,,,,,,,,,,pilot1,2022-10-14_14h14.13.574,Hippopolis_Learning,2022.2.2,59.98686630984112,
Hippopolis,stimuli/subj_files/pilot1_cityA.csv,./stimuli/frankfurt.jpg,./stimuli/street_plate1.png,NARANCS UTCA,stimuli/scenes/103a.jpg,scene,2,stimuli/objects/097a.jpg,stimuli/objects/097b.jpg,stimuli/objects/046a.jpg,stimuli/objects/046b.jpg,stimuli/objects/097a.jpg,lure,dist1,dist2,target,0,0,0,0,,,,,0,70,70,13,,,,,,,775.9175811298192,,,,,,,,,,,,,,774.6887752823532,774.6887752823532,774.6887752823532,774.6887752823532,774.6887752823532,774.6887752823532,left,None,1.1953423880040646,,,,,,,,,,,,,pilot1,2022-10-14_14h14.13.574,Hippopolis_Learning,2022.2.2,59.98686630984112,
Hippopolis,stimuli/subj_files/pilot1_cityA.csv,./stimuli/frankfurt.jpg,./stimuli/street_plate1.png,MÁLNA UTCA,stimuli/scenes/003a.jpg,scene,2,stimuli/objects/115a.jpg,stimuli/objects/115a.jpg,stimuli/objects/115b.jpg,stimuli/objects/086a.jpg,stimuli/objects/086b.jpg,target,lure,dist1,dist2,0,0,0,0,,,,,0,71,71,45,,,,,,,777.7865671999753,,,,,,,,,,,,,,776.9414682872593,776.9414682872593,776.9414682872593,776.9414682872593,776.9414682872593,776.9414682872593,left,None,0.8146347980946302,,,,,,,,,,,,,pilot1,2022-10-14_14h14.13.574,Hippopolis_Learning,2022.2.2,59.98686630984112,
Hippopolis,stimuli/subj_files/pilot1_cityA.csv,./stimuli/frankfurt.jpg,./stimuli/street_plate1.png,SZÖCSKE UTCA,stimuli/objects/057a.jpg,object,0,stimuli/objects/057a.jpg,stimuli/objects/057b.jpg,stimuli/objects/057a.jpg,stimuli/scenes/045b.jpg,stimuli/scenes/045a.jpg,lure,target,dist2,dist1,0,0,0,0,,,,,0,72,72,14,,,,,,,780.1897375360131,,,,,,,,,,,,,,778.7979662045836,778.7979662045836,778.7979662045836,778.7979662045836,778.7979662045836,778.7979662045836,left,None,1.3576653320342302,,,,,,,,,,,,,pilot1,2022-10-14_14h14.13.574,Hippopolis_Learning,2022.2.2,59.98686630984112,
Hippopolis,stimuli/subj_files/pilot1_cityA.csv,./stimuli/frankfurt.jpg,./stimuli/street_plate1.png,TOLMÁCS UTCA,stimuli/objects/049a.jpg,object,2,stimuli/scenes/097a.jpg,stimuli/scenes/097b.jpg,stimuli/scenes/077a.jpg,stimuli/scenes/097a.jpg,stimuli/scenes/077b.jpg,lure,dist1,target,dist2,0,0,0,0,,,,,0,73,73,23,,,,,,,782.7397327460349,,,,,,,,,,,,,,781.2097088117152,781.2097088117152,781.2097088117152,781.2097088117152,781.2097088117152,781.2097088117152,right,None,1.4899236001074314,,,,,,,,,,,,,pilot1,2022-10-14_14h14.13.574,Hippopolis_Learning,2022.2.2,59.98686630984112,
Hippopolis,stimuli/subj_files/pilot1_cityA.csv,./stimuli/frankfurt.jpg,./stimuli/street_plate1.png,TELEFON UTCA,stimuli/objects/102a.jpg,object,2,stimuli/scenes/004a.jpg,stimuli/objects/057a.jpg,stimuli/scenes/004b.jpg,stimuli/scenes/004a.jpg,stimuli/objects/057b.jpg,dist1,lure,target,dist2,0,0,0,0,,,,,0,74,74,66,,,,,,,785.2837930228561,,,,,,,,,786.2986028362066,,,,,783.7527371682227,783.7527371682227,783.7527371682227,783.7527371682227,783.7527371682227,783.7527371682227,left,None,1.5073555074632168,,,,,,,,,,,,,pilot1,2022-10-14_14h14.13.574,Hippopolis_Learning,2022.2.2,59.98686630984112,
Hippopolis,stimuli/subj_files/pilot1_cityA.csv,./stimuli/frankfurt.jpg,./stimuli/street_plate1.png,FIÓK UTCA,stimuli/objects/012a.jpg,object,0,stimuli/objects/012a.jpg,stimuli/objects/012a.jpg,stimuli/objects/024b.jpg,stimuli/objects/012b.jpg,stimuli/objects/024a.jpg,target,dist2,lure,dist1,0,0,0,0,,,,,0,75,75,31,,,,,,,787.634590504691,,,,,,,,,,,,,,786.2986028362066,786.2986028362066,786.2986028362066,786.2986028362066,786.2986028362066,786.2986028362066,left,None,1.2968265730887651,,,,,,,,,,,,,pilot1,2022-10-14_14h14.13.574,Hippopolis_Learning,2022.2.2,59.98686630984112,
Hippopolis,stimuli/subj_files/pilot1_cityA.csv,./stimuli/frankfurt.jpg,./stimuli/street_plate1.png,VITORLA UTCA,stimuli/scenes/086a.jpg,scene,2,stimuli/objects/015a.jpg,stimuli/objects/015b.jpg,stimuli/objects/115a.jpg,stimuli/objects/015a.jpg,stimuli/objects/115b.jpg,lure,dist1,target,dist2,0,0,0,0,,,,,0,76,76,77,,,,,,,789.9363603182137,,,,,,,,,,,,,,788.6464022155851,788.6464022155851,788.6464022155851,788.6464022155851,788.6464022155851,788.6464022155851,left,None,1.2528739050030708,,,,,,,,,,,,,pilot1,2022-10-14_14h14.13.574,Hippopolis_Learning,2022.2.2,59.98686630984112,
Hippopolis,stimuli/subj_files/pilot1_cityA.csv,./stimuli/frankfurt.jpg,./stimuli/street_plate1.png,EPER UTCA,stimuli/objects/028a.jpg,object,1,stimuli/objects/062a.jpg,stimuli/objects/062a.jpg,stimuli/objects/047b.jpg,stimuli/objects/062b.jpg,stimuli/objects/047a.jpg,target,dist2,lure,dist1,0,0,0,0,,,,,0,77,77,39,,,,,,,792.3872670251876,,,,,,,,,,,,,,790.9473839383572,790.9473839383572,790.9473839383572,790.9473839383572,790.9473839383572,790.9473839383572,left,None,1.399961268529296,,,,,,,,,,,,,pilot1,2022-10-14_14h14.13.574,Hippopolis_Learning,2022.2.2,59.98686630984112,
Hippopolis,stimuli/subj_files/pilot1_cityA.csv,./stimuli/frankfurt.jpg,./stimuli/street_plate1.png,MUNKA UTCA,stimuli/objects/061a.jpg,object,2,stimuli/scenes/077a.jpg,stimuli/scenes/020a.jpg,stimuli/scenes/020b.jpg,stimuli/scenes/077b.jpg,stimuli/scenes/077a.jpg,dist1,dist2,lure,target,0,0,0,0,,,,,0,78,78,25,,,,,,,794.5338741950691,,,,,,,,,,,,,,793.4151583891362,793.4151583891362,793.4151583891362,793.4151583891362,793.4151583891362,793.4151583891362,left,None,1.0930766444653273,,,,,,,,,,,,,pilot1,2022-10-14_14h14.13.574,Hippopolis_Learning,2022.2.2,59.98686630984112,
Hippopolis,stimuli/subj_files/pilot1_cityA.csv,./stimuli/frankfurt.jpg,./stimuli/street_plate1.png,SZILVA UTCA,stimuli/objects/059a.jpg,object,2,stimuli/scenes/070a.jpg,stimuli/scenes/114b.jpg,stimuli/scenes/070a.jpg,stimuli/scenes/070b.jpg,stimuli/scenes/114a.jpg,dist2,target,lure,dist1,0,0,0,0,,,,,0,79,79,71,,,,,,,796.3404453247786,,,,,,,,,,,,,,795.5614679250866,795.5614679250866,795.5614679250866,795.5614679250866,795.5614679250866,795.5614679250866,left,None,0.7378659807145596,,,,,,,,,,,,,pilot1,2022-10-14_14h14.13.574,Hippopolis_Learning,2022.2.2,59.98686630984112,
Camponello,stimuli/subj_files/pilot1_cityB.csv,./stimuli/leipzig.jpg,./stimuli/street_plate2.png,PIZSAMA UTCA,stimuli/objects/087a.jpg,object,0,stimuli/objects/087a.jpg,stimuli/objects/087a.jpg,stimuli/objects/051b.jpg,stimuli/objects/087b.jpg,stimuli/objects/051a.jpg,target,dist2,lure,dist1,0,1,1,1,0,0,0,4,,,,,,,,,866.3790110498667,866.3790110498667,869.3700164332986,870.3722395077348,870.3722395077348,870.3722395077348,870.3722395077348,None,,,,,,,,,,,,,,,,,,,,,,,,17,797.3469248320907,797.3469248320907,space,68.9522616583854,,pilot1,2022-10-14_14h14.13.574,Hippopolis_Learning,2022.2.2,59.98686630984112,
Camponello,stimuli/subj_files/pilot1_cityB.csv,./stimuli/leipzig.jpg,./stimuli/street_plate2.png,FOGAS UTCA,stimuli/objects/094a.jpg,object,1,stimuli/objects/007a.jpg,stimuli/scenes/015a.jpg,stimuli/objects/007b.jpg,stimuli/objects/007a.jpg,stimuli/scenes/015b.jpg,dist1,lure,target,dist2,0,1,1,1,0,1,1,60,,,,,,,,,,,873.3445247951895,874.379955265671,874.379955265671,874.379955265671,874.379955265671,None,,,,,,,,,,,,,,,,,,,,,,,,,,,,,,pilot1,2022-10-14_14h14.13.574,Hippopolis_Learning,2022.2.2,59.98686630984112,
Camponello,stimuli/subj_files/pilot1_cityB.csv,./stimuli/leipzig.jpg,./stimuli/street_plate2.png,FÓKA UTCA,stimuli/scenes/034a.jpg,scene,0,stimuli/scenes/034a.jpg,stimuli/scenes/034a.jpg,stimuli/objects/004a.jpg,stimuli/scenes/034b.jpg,stimuli/objects/004b.jpg,target,dist1,lure,dist2,0,1,1,1,0,2,2,70,,,,,,,,,,,877.3588820938021,878.3963219765574,878.3963219765574,878.3963219765574,878.3963219765574,None,,,,,,,,,,,,,,,,,,,,,,,,,,,,,,pilot1,2022-10-14_14h14.13.574,Hippopolis_Learning,2022.2.2,59.98686630984112,
Camponello,stimuli/subj_files/pilot1_cityB.csv,./stimuli/leipzig.jpg,./stimuli/street_plate2.png,HÁRFA UTCA,stimuli/scenes/075a.jpg,scene,0,stimuli/scenes/075a.jpg,stimuli/scenes/034a.jpg,stimuli/scenes/075a.jpg,stimuli/scenes/034b.jpg,stimuli/scenes/075b.jpg,dist1,target,dist2,lure,0,1,1,1,0,3,3,6,,,,,,,,,,,881.3740215748549,882.4155710954219,882.4155710954219,882.4155710954219,882.4155710954219,None,,,,,,,,,,,,,,,,,,,,,,,,,,,,,,pilot1,2022-10-14_14h14.13.574,Hippopolis_Learning,2022.2.2,59.98686630984112,
Camponello,stimuli/subj_files/pilot1_cityB.csv,./stimuli/leipzig.jpg,./stimuli/street_plate2.png,SZEKRÉNY UTCA,stimuli/objects/112a.jpg,object,0,stimuli/objects/112a.jpg,stimuli/objects/112a.jpg,stimuli/objects/020a.jpg,stimuli/objects/020b.jpg,stimuli/objects/112b.jpg,target,dist1,dist2,lure,0,1,1,1,0,4,4,33,,,,,,,,,,,885.3881079871207,886.4404898602515,886.4404898602515,886.4404898602515,886.4404898602515,None,,,,,,,,,,,,,,,,,,,,,,,,,,,,,,pilot1,2022-10-14_14h14.13.574,Hippopolis_Learning,2022.2.2,59.98686630984112,
Camponello,stimuli/subj_files/pilot1_cityB.csv,./stimuli/leipzig.jpg,./stimuli/street_plate2.png,AKÁC UTCA,stimuli/scenes/015a.jpg,scene,0,stimuli/scenes/015a.jpg,stimuli/scenes/015b.jpg,stimuli/objects/075b.jpg,stimuli/scenes/015a.jpg,stimuli/objects/075a.jpg,lure,dist2,target,dist1,0,1,1,1,0,5,5,75,,,,,,,,,,,889.3951354883611,890.4128115363419,890.4128115363419,890.4128115363419,890.4128115363419,None,,,,,,,,,,,,,,,,,,,,,,,,,,,,,,pilot1,2022-10-14_14h14.13.574,Hippopolis_Learning,2022.2.2,59.98686630984112,
Camponello,stimuli/subj_files/pilot1_cityB.csv,./stimuli/leipzig.jpg,./stimuli/street_plate2.png,HENTES UTCA,stimuli/objects/063a.jpg,object,2,stimuli/scenes/090a.jpg,stimuli/scenes/090a.jpg,stimuli/scenes/019b.jpg,stimuli/scenes/019a.jpg,stimuli/scenes/090b.jpg,target,dist2,dist1,lure,0,1,1,1,0,6,6,56,,,,,,,,,,,893.3994214665145,894.4349113386124,894.4349113386124,894.4349113386124,894.4349113386124,None,,,,,,,,,,,,,,,,,,,,,,,,,,,,,,pilot1,2022-10-14_14h14.13.574,Hippopolis_Learning,2022.2.2,59.98686630984112,
Camponello,stimuli/subj_files/pilot1_cityB.csv,./stimuli/leipzig.jpg,./stimuli/street_plate2.png,ÜVEG UTCA,stimuli/objects/103a.jpg,object,0,stimuli/objects/103a.jpg,stimuli/objects/103b.jpg,stimuli/objects/103a.jpg,stimuli/scenes/025a.jpg,stimuli/scenes/025b.jpg,lure,target,dist1,dist2,0,1,1,1,0,7,7,79,,,,,,,,,,,897.4113802835345,898.4454572554678,898.4454572554678,898.4454572554678,898.4454572554678,None,,,,,,,,,,,,,,,,,,,,,,,,,,,,,,pilot1,2022-10-14_14h14.13.574,Hippopolis_Learning,2022.2.2,59.98686630984112,
Camponello,stimuli/subj_files/pilot1_cityB.csv,./stimuli/leipzig.jpg,./stimuli/street_plate2.png,PISZTRÁNG UTCA,stimuli/scenes/025a.jpg,scene,0,stimuli/scenes/025a.jpg,stimuli/scenes/025a.jpg,stimuli/scenes/095b.jpg,stimuli/scenes/025b.jpg,stimuli/scenes/095a.jpg,target,dist2,lure,dist1,0,1,1,1,0,8,8,27,,,,,,,,,,,901.4235773328692,902.4583770819008,902.4583770819008,902.4583770819008,902.4583770819008,None,,,,,,,,,,,,,,,,,,,,,,,,,,,,,,pilot1,2022-10-14_14h14.13.574,Hippopolis_Learning,2022.2.2,59.98686630984112,
Camponello,stimuli/subj_files/pilot1_cityB.csv,./stimuli/leipzig.jpg,./stimuli/street_plate2.png,LÉPCSŐ UTCA,stimuli/objects/003a.jpg,object,0,stimuli/objects/003a.jpg,stimuli/scenes/010a.jpg,stimuli/scenes/010b.jpg,stimuli/objects/003b.jpg,stimuli/objects/003a.jpg,dist1,dist2,lure,target,0,1,1,1,0,9,9,34,,,,,,,,,,,905.4255904778838,906.4697157535702,906.4697157535702,906.4697157535702,906.4697157535702,None,,,,,,,,,,,,,,,,,,,,,,,,,,,,,,pilot1,2022-10-14_14h14.13.574,Hippopolis_Learning,2022.2.2,59.98686630984112,
Camponello,stimuli/subj_files/pilot1_cityB.csv,./stimuli/leipzig.jpg,./stimuli/street_plate2.png,HERING UTCA,stimuli/objects/032a.jpg,object,0,stimuli/objects/032a.jpg,stimuli/objects/032a.jpg,stimuli/scenes/082b.jpg,stimuli/scenes/082a.jpg,stimuli/objects/032b.jpg,target,dist2,dist1,lure,0,1,1,1,0,10,10,57,,,,,,,,,,,909.4412819948047,910.492939222604,910.492939222604,910.492939222604,910.492939222604,None,,,,,,,,,,,,,,,,,,,,,,,,,,,,,,pilot1,2022-10-14_14h14.13.574,Hippopolis_Learning,2022.2.2,59.98686630984112,
Camponello,stimuli/subj_files/pilot1_cityB.csv,./stimuli/leipzig.jpg,./stimuli/street_plate2.png,ELEFÁNT UTCA,stimuli/scenes/099a.jpg,scene,0,stimuli/scenes/099a.jpg,stimuli/scenes/099b.jpg,stimuli/scenes/099a.jpg,stimuli/objects/116b.jpg,stimuli/objects/116a.jpg,lure,target,dist2,dist1,0,1,1,1,0,11,11,51,,,,,,,,,,,913.4575463850051,914.5213120244443,914.5213120244443,914.5213120244443,914.5213120244443,None,,,,,,,,,,,,,,,,,,,,,,,,,,,,,,pilot1,2022-10-14_14h14.13.574,Hippopolis_Learning,2022.2.2,59.98686630984112,
Camponello,stimuli/subj_files/pilot1_cityB.csv,./stimuli/leipzig.jpg,./stimuli/street_plate2.png,HARCSA UTCA,stimuli/objects/020a.jpg,object,0,stimuli/objects/020a.jpg,stimuli/objects/020a.jpg,stimuli/scenes/056a.jpg,stimuli/objects/020b.jpg,stimuli/scenes/056b.jpg,target,dist1,lure,dist2,0,1,1,1,0,12,12,19,,,,,,,,,,,917.4606667105108,918.4794483873993,918.4794483873993,918.4794483873993,918.4794483873993,None,,,,,,,,,,,,,,,,,,,,,,,,,,,,,,pilot1,2022-10-14_14h14.13.574,Hippopolis_Learning,2022.2.2,59.98686630984112,
Camponello,stimuli/subj_files/pilot1_cityB.csv,./stimuli/leipzig.jpg,./stimuli/street_plate2.png,SZALVÉTA UTCA,stimuli/scenes/098a.jpg,scene,2,stimuli/objects/043a.jpg,stimuli/objects/003a.jpg,stimuli/objects/043b.jpg,stimuli/objects/043a.jpg,stimuli/objects/003b.jpg,dist1,lure,target,dist2,0,1,1,1,0,13,13,23,,,,,,,,,,,921.4657709486783,922.4857058357447,922.4857058357447,922.4857058357447,922.4857058357447,None,,,,,,,,,,,,,,,,,,,,,,,,,,,,,,pilot1,2022-10-14_14h14.13.574,Hippopolis_Learning,2022.2.2,59.98686630984112,
Camponello,stimuli/subj_files/pilot1_cityB.csv,./stimuli/leipzig.jpg,./stimuli/street_plate2.png,BETON UTCA,stimuli/objects/116a.jpg,object,0,stimuli/objects/116a.jpg,stimuli/objects/116b.jpg,stimuli/objects/116a.jpg,stimuli/objects/001b.jpg,stimuli/objects/001a.jpg,lure,target,dist2,dist1,0,1,1,1,0,14,14,52,,,,,,,,,,,925.4687964189798,926.5038238242269,926.5038238242269,926.5038238242269,926.5038238242269,None,,,,,,,,,,,,,,,,,,,,,,,,,,,,,,pilot1,2022-10-14_14h14.13.574,Hippopolis_Learning,2022.2.2,59.98686630984112,
Camponello,stimuli/subj_files/pilot1_cityB.csv,./stimuli/leipzig.jpg,./stimuli/street_plate2.png,TÁNYÉR UTCA,stimuli/scenes/040a.jpg,scene,0,stimuli/scenes/040a.jpg,stimuli/scenes/040a.jpg,stimuli/objects/044b.jpg,stimuli/scenes/040b.jpg,stimuli/objects/044a.jpg,target,dist2,lure,dist1,0,1,1,1,0,15,15,35,,,,,,,,,,,929.4791289828718,930.5148679725826,930.5148679725826,930.5148679725826,930.5148679725826,None,,,,,,,,,,,,,,,,,,,,,,,,,,,,,,pilot1,2022-10-14_14h14.13.574,Hippopolis_Learning,2022.2.2,59.98686630984112,
Camponello,stimuli/subj_files/pilot1_cityB.csv,./stimuli/leipzig.jpg,./stimuli/street_plate2.png,PÁLMAFA UTCA,stimuli/scenes/074a.jpg,scene,2,stimuli/objects/067a.jpg,stimuli/objects/067a.jpg,stimuli/scenes/053a.jpg,stimuli/objects/067b.jpg,stimuli/scenes/053b.jpg,target,dist1,lure,dist2,0,1,1,1,0,16,16,25,,,,,,,,,,,933.4817613419145,934.50829298608,934.50829298608,934.50829298608,934.50829298608,None,,,,,,,,,,,,,,,,,,,,,,,,,,,,,,pilot1,2022-10-14_14h14.13.574,Hippopolis_Learning,2022.2.2,59.98686630984112,
Camponello,stimuli/subj_files/pilot1_cityB.csv,./stimuli/leipzig.jpg,./stimuli/street_plate2.png,KATONA UTCA,stimuli/objects/004a.jpg,object,0,stimuli/objects/004a.jpg,stimuli/objects/004b.jpg,stimuli/scenes/083b.jpg,stimuli/objects/004a.jpg,stimuli/scenes/083a.jpg,lure,dist2,target,dist1,0,1,1,1,0,17,17,32,,,,,,,,,,,937.4822468236089,938.5010048616678,938.5010048616678,938.5010048616678,938.5010048616678,None,,,,,,,,,,,,,,,,,,,,,,,,,,,,,,pilot1,2022-10-14_14h14.13.574,Hippopolis_Learning,2022.2.2,59.98686630984112,
