CityName,StimuliFile,CityImage,StreetSign,Cue,Image,Category,Novelty,UpdateImage,TestImage1,TestImage2,TestImage3,TestImage4,TestImage1Type,TestImage2Type,TestImage3Type,TestImage4Type,CityBlock.thisRepN,CityBlock.thisTrialN,CityBlock.thisN,CityBlock.thisIndex,LearningTrials.thisRepN,LearningTrials.thisTrialN,LearningTrials.thisN,LearningTrials.thisIndex,cityname_text.started,cityname_text.stopped,city_image.started,city_image.stopped,plate.started,plate.stopped,city_text.started,city_text.stopped,street_text.started,street_text.stopped,fx_cross_prediction.started,fx_cross_prediction.stopped,plate_updating.started,plate_updating.stopped,city_text_updating.started,city_text_updating.stopped,street_text_updating.started,street_text_updating.stopped,updating_image.started,updating_image.stopped,fx_cross.started,fx_cross.stopped,break_text.started,break_text.stopped,break_key_resp.keys,break_key_resp.rt,break_key_resp.started,break_key_resp.stopped,participant,date,expName,psychopyVersion,frameRate,
Camponello,stimuli/subj_files/pilot_cityB.csv,./stimuli/leipzig.jpg,./stimuli/street_plate2.png,MENTA,stimuli/scenes/042a.jpg,scene,0,stimuli/scenes/042a.jpg,stimuli/objects/028a.jpg,stimuli/objects/028b.jpg,stimuli/scenes/042a.jpg,stimuli/scenes/042b.jpg,dist1,dist2,target,lure,0,0,0,0,0,0,0,54,29.700266159605235,None,29.700266159605235,None,32.70179164689034,None,32.70179164689034,None,32.70179164689034,None,32.70179164689034,None,35.66862155031413,None,35.66862155031413,None,35.66862155031413,None,35.66862155031413,None,38.650236396119,None,,,,,,,pilot,2022_Jun_14_1555,Hippopolis_Updating,2021.1.2,59.98716424132408,
Camponello,stimuli/subj_files/pilot_cityB.csv,./stimuli/leipzig.jpg,./stimuli/street_plate2.png,MOCSÁR,stimuli/objects/036a.jpg,object,2,stimuli/scenes/079a.jpg,stimuli/scenes/079a.jpg,stimuli/scenes/079b.jpg,stimuli/scenes/049a.jpg,stimuli/scenes/049b.jpg,target,lure,dist1,dist2,0,0,0,0,0,1,1,50,,,,,39.66761482227594,None,39.66761482227594,None,39.66761482227594,None,39.66761482227594,None,42.67256418103352,None,42.67256418103352,None,42.67256418103352,None,42.67256418103352,None,45.647168627008796,None,,,,,,,pilot,2022_Jun_14_1555,Hippopolis_Updating,2021.1.2,59.98716424132408,
Camponello,stimuli/subj_files/pilot_cityB.csv,./stimuli/leipzig.jpg,./stimuli/street_plate2.png,TENISZ,stimuli/scenes/041a.jpg,scene,0,stimuli/scenes/041a.jpg,stimuli/scenes/037a.jpg,stimuli/scenes/037b.jpg,stimuli/scenes/041b.jpg,stimuli/scenes/041a.jpg,dist1,dist2,lure,target,0,0,0,0,0,2,2,10,,,,,46.66798367584124,None,46.66798367584124,None,46.66798367584124,None,46.66798367584124,None,49.664533368777484,None,49.664533368777484,None,49.664533368777484,None,49.664533368777484,None,52.64121938217431,None,,,,,,,pilot,2022_Jun_14_1555,Hippopolis_Updating,2021.1.2,59.98716424132408,
Camponello,stimuli/subj_files/pilot_cityB.csv,./stimuli/leipzig.jpg,./stimuli/street_plate2.png,LEGELŐ,stimuli/objects/022a.jpg,object,0,stimuli/objects/022a.jpg,stimuli/objects/022a.jpg,stimuli/objects/022b.jpg,stimuli/objects/025b.jpg,stimuli/objects/025a.jpg,target,lure,dist2,dist1,0,0,0,0,0,3,3,0,,,,,53.672261571511626,None,53.672261571511626,None,53.672261571511626,None,53.672261571511626,None,56.67928285617381,None,56.67928285617381,None,56.67928285617381,None,56.67928285617381,None,59.64719101972878,None,,,,,,,pilot,2022_Jun_14_1555,Hippopolis_Updating,2021.1.2,59.98716424132408,
Camponello,stimuli/subj_files/pilot_cityB.csv,./stimuli/leipzig.jpg,./stimuli/street_plate2.png,PELIKÁN,stimuli/objects/055a.jpg,object,2,stimuli/scenes/036a.jpg,stimuli/scenes/036b.jpg,stimuli/scenes/036a.jpg,stimuli/scenes/010a.jpg,stimuli/scenes/010b.jpg,lure,target,dist1,dist2,0,0,0,0,0,4,4,5,,,,,60.664827581029385,None,60.664827581029385,None,60.664827581029385,None,60.664827581029385,None,63.66408085403964,None,63.66408085403964,None,63.66408085403964,None,63.66408085403964,None,66.649539119564,None,,,,,,,pilot,2022_Jun_14_1555,Hippopolis_Updating,2021.1.2,59.98716424132408,
Camponello,stimuli/subj_files/pilot_cityB.csv,./stimuli/leipzig.jpg,./stimuli/street_plate2.png,PAPRIKA,stimuli/scenes/007a.jpg,scene,0,stimuli/scenes/007a.jpg,stimuli/scenes/007a.jpg,stimuli/objects/084b.jpg,stimuli/scenes/007b.jpg,stimuli/objects/084a.jpg,target,dist2,lure,dist1,0,0,0,0,0,5,5,52,,,,,67.67015170259401,None,67.67015170259401,None,67.67015170259401,None,67.67015170259401,None,70.6668472578749,None,70.6668472578749,None,70.6668472578749,None,70.6668472578749,None,73.63758775824681,None,,,,,,,pilot,2022_Jun_14_1555,Hippopolis_Updating,2021.1.2,59.98716424132408,
Camponello,stimuli/subj_files/pilot_cityB.csv,./stimuli/leipzig.jpg,./stimuli/street_plate2.png,SÜTEMÉNY,stimuli/objects/046a.jpg,object,0,stimuli/objects/046a.jpg,stimuli/objects/068b.jpg,stimuli/objects/046a.jpg,stimuli/objects/068a.jpg,stimuli/objects/046b.jpg,dist2,target,dist1,lure,0,0,0,0,0,6,6,56,,,,,74.67047577165067,None,74.67047577165067,None,74.67047577165067,None,74.67047577165067,None,77.673221337609,None,77.673221337609,None,77.673221337609,None,77.673221337609,None,80.6468171896413,None,,,,,,,pilot,2022_Jun_14_1555,Hippopolis_Updating,2021.1.2,59.98716424132408,
Camponello,stimuli/subj_files/pilot_cityB.csv,./stimuli/leipzig.jpg,./stimuli/street_plate2.png,PÁLMAFA,stimuli/scenes/046a.jpg,scene,2,stimuli/objects/052a.jpg,stimuli/scenes/075b.jpg,stimuli/objects/052a.jpg,stimuli/scenes/075a.jpg,stimuli/objects/052b.jpg,dist2,target,dist1,lure,0,0,0,0,0,7,7,12,,,,,81.66430104710162,None,81.66430104710162,None,81.66430104710162,None,81.66430104710162,None,84.66723166173324,None,84.66723166173324,None,84.66723166173324,None,84.66723166173324,None,87.6508493903093,None,,,,,,,pilot,2022_Jun_14_1555,Hippopolis_Updating,2021.1.2,59.98716424132408,
Camponello,stimuli/subj_files/pilot_cityB.csv,./stimuli/leipzig.jpg,./stimuli/street_plate2.png,ORVOS,stimuli/objects/006a.jpg,object,2,stimuli/scenes/019a.jpg,stimuli/scenes/019b.jpg,stimuli/objects/061b.jpg,stimuli/objects/061a.jpg,stimuli/scenes/019a.jpg,lure,dist2,dist1,target,0,0,0,0,0,8,8,33,,,,,88.65191925270483,None,88.65191925270483,None,88.65191925270483,None,88.65191925270483,None,91.67919173138216,None,91.67919173138216,None,91.67919173138216,None,91.67919173138216,None,94.64663804974407,None,,,,,,,pilot,2022_Jun_14_1555,Hippopolis_Updating,2021.1.2,59.98716424132408,
Camponello,stimuli/subj_files/pilot_cityB.csv,./stimuli/leipzig.jpg,./stimuli/street_plate2.png,DARU,stimuli/objects/002a.jpg,object,0,stimuli/objects/002a.jpg,stimuli/objects/002a.jpg,stimuli/objects/029a.jpg,stimuli/objects/002b.jpg,stimuli/objects/029b.jpg,target,dist1,lure,dist2,0,0,0,0,0,9,9,30,,,,,95.6748000071384,None,95.6748000071384,None,95.6748000071384,None,95.6748000071384,None,98.66364233475178,None,98.66364233475178,None,98.66364233475178,None,98.66364233475178,None,101.64655625540763,None,,,,,,,pilot,2022_Jun_14_1555,Hippopolis_Updating,2021.1.2,59.98716424132408,
Camponello,stimuli/subj_files/pilot_cityB.csv,./stimuli/leipzig.jpg,./stimuli/street_plate2.png,LÁNDZSA,stimuli/scenes/047a.jpg,scene,0,stimuli/scenes/047a.jpg,stimuli/scenes/047b.jpg,stimuli/scenes/007a.jpg,stimuli/scenes/007b.jpg,stimuli/scenes/047a.jpg,lure,dist1,dist2,target,0,0,0,0,0,10,10,47,,,,,102.65414419397712,None,102.65414419397712,None,102.65414419397712,None,102.65414419397712,None,105.66419717064127,None,105.66419717064127,None,105.66419717064127,None,105.66419717064127,None,108.65735720284283,None,,,,,,,pilot,2022_Jun_14_1555,Hippopolis_Updating,2021.1.2,59.98716424132408,
Camponello,stimuli/subj_files/pilot_cityB.csv,./stimuli/leipzig.jpg,./stimuli/street_plate2.png,KANÁL,stimuli/objects/028a.jpg,object,0,stimuli/objects/028a.jpg,stimuli/objects/028b.jpg,stimuli/objects/050b.jpg,stimuli/objects/028a.jpg,stimuli/objects/050a.jpg,lure,dist2,target,dist1,0,0,0,0,0,11,11,26,,,,,109.65866280859336,None,109.65866280859336,None,109.65866280859336,None,109.65866280859336,None,112.67771196179092,None,112.67771196179092,None,112.67771196179092,None,112.67771196179092,None,115.64637182839215,None,,,,,,,pilot,2022_Jun_14_1555,Hippopolis_Updating,2021.1.2,59.98716424132408,
Camponello,stimuli/subj_files/pilot_cityB.csv,./stimuli/leipzig.jpg,./stimuli/street_plate2.png,KÖTÉNY,stimuli/scenes/009a.jpg,scene,0,stimuli/scenes/009a.jpg,stimuli/scenes/009a.jpg,stimuli/scenes/009b.jpg,stimuli/objects/083a.jpg,stimuli/objects/083b.jpg,target,lure,dist1,dist2,0,0,0,0,0,12,12,20,,,,,116.65608705207705,None,116.65608705207705,None,116.65608705207705,None,116.65608705207705,None,119.6648869831115,None,119.6648869831115,None,119.6648869831115,None,119.6648869831115,None,122.63700959691778,None,,,,,,,pilot,2022_Jun_14_1555,Hippopolis_Updating,2021.1.2,59.98716424132408,
Camponello,stimuli/subj_files/pilot_cityB.csv,./stimuli/leipzig.jpg,./stimuli/street_plate2.png,KIRAKÓ,stimuli/scenes/032a.jpg,scene,0,stimuli/scenes/032a.jpg,stimuli/scenes/032a.jpg,stimuli/scenes/064a.jpg,stimuli/scenes/032b.jpg,stimuli/scenes/064b.jpg,target,dist1,lure,dist2,0,0,0,0,0,13,13,46,,,,,123.66908432822675,None,123.66908432822675,None,123.66908432822675,None,123.66908432822675,None,126.66050987644121,None,126.66050987644121,None,126.66050987644121,None,126.66050987644121,None,129.64622347801924,None,,,,,,,pilot,2022_Jun_14_1555,Hippopolis_Updating,2021.1.2,59.98716424132408,
Camponello,stimuli/subj_files/pilot_cityB.csv,./stimuli/leipzig.jpg,./stimuli/street_plate2.png,MARTINI,stimuli/objects/067a.jpg,object,0,stimuli/objects/067a.jpg,stimuli/objects/067b.jpg,stimuli/scenes/009b.jpg,stimuli/objects/067a.jpg,stimuli/scenes/009a.jpg,lure,dist2,target,dist1,0,0,0,0,0,14,14,23,,,,,130.66510251071304,None,130.66510251071304,None,130.66510251071304,None,130.66510251071304,None,133.67928876541555,None,133.67928876541555,None,133.67928876541555,None,133.67928876541555,None,136.6464809915051,None,,,,,,,pilot,2022_Jun_14_1555,Hippopolis_Updating,2021.1.2,59.98716424132408,
Camponello,stimuli/subj_files/pilot_cityB.csv,./stimuli/leipzig.jpg,./stimuli/street_plate2.png,TOLMÁCS,stimuli/scenes/025a.jpg,scene,0,stimuli/scenes/025a.jpg,stimuli/scenes/025a.jpg,stimuli/scenes/025b.jpg,stimuli/objects/021a.jpg,stimuli/objects/021b.jpg,target,lure,dist1,dist2,0,0,0,0,0,15,15,8,,,,,137.66321594500914,None,137.66321594500914,None,137.66321594500914,None,137.66321594500914,None,140.6637126225978,None,140.6637126225978,None,140.6637126225978,None,140.6637126225978,None,143.65081486850977,None,,,,,,,pilot,2022_Jun_14_1555,Hippopolis_Updating,2021.1.2,59.98716424132408,
Camponello,stimuli/subj_files/pilot_cityB.csv,./stimuli/leipzig.jpg,./stimuli/street_plate2.png,KENYÉR,stimuli/objects/089a.jpg,object,0,stimuli/objects/089a.jpg,stimuli/objects/089b.jpg,stimuli/objects/045b.jpg,stimuli/objects/089a.jpg,stimuli/objects/045a.jpg,lure,dist2,target,dist1,0,0,0,0,0,16,16,17,,,,,144.66796781448647,None,144.66796781448647,None,144.66796781448647,None,144.66796781448647,None,147.66538801509887,None,147.66538801509887,None,147.66538801509887,None,147.66538801509887,None,150.64608819037676,None,,,,,,,pilot,2022_Jun_14_1555,Hippopolis_Updating,2021.1.2,59.98716424132408,
Camponello,stimuli/subj_files/pilot_cityB.csv,./stimuli/leipzig.jpg,./stimuli/street_plate2.png,TELEFON,stimuli/objects/044a.jpg,object,0,stimuli/objects/044a.jpg,stimuli/scenes/039a.jpg,stimuli/objects/044a.jpg,stimuli/scenes/039b.jpg,stimuli/objects/044b.jpg,dist1,target,dist2,lure,0,0,0,0,0,17,17,35,,,,,151.6649389215745,None,151.6649389215745,None,151.6649389215745,None,151.6649389215745,None,154.66289436398074,None,154.66289436398074,None,154.66289436398074,None,154.66289436398074,None,157.6478388463147,None,,,,,,,pilot,2022_Jun_14_1555,Hippopolis_Updating,2021.1.2,59.98716424132408,
Camponello,stimuli/subj_files/pilot_cityB.csv,./stimuli/leipzig.jpg,./stimuli/street_plate2.png,ZEBRA,stimuli/scenes/052a.jpg,scene,0,stimuli/scenes/052a.jpg,stimuli/scenes/004b.jpg,stimuli/scenes/052b.jpg,stimuli/scenes/004a.jpg,stimuli/scenes/052a.jpg,dist2,lure,dist1,target,0,0,0,0,0,18,18,4,,,,,158.6654427521862,None,158.6654427521862,None,158.6654427521862,None,158.6654427521862,None,161.66568533703685,None,161.66568533703685,None,161.66568533703685,None,161.66568533703685,None,164.6497624218464,None,,,,,,,pilot,2022_Jun_14_1555,Hippopolis_Updating,2021.1.2,59.98716424132408,
Camponello,stimuli/subj_files/pilot_cityB.csv,./stimuli/leipzig.jpg,./stimuli/street_plate2.png,ZSÁLYA,stimuli/scenes/069a.jpg,scene,0,stimuli/scenes/069a.jpg,stimuli/scenes/069a.jpg,stimuli/scenes/069b.jpg,stimuli/scenes/047a.jpg,stimuli/scenes/047b.jpg,target,lure,dist1,dist2,0,0,0,0,0,19,19,41,,,,,165.66642304463312,None,165.66642304463312,None,165.66642304463312,None,165.66642304463312,None,168.66885667154565,None,168.66885667154565,None,168.66885667154565,None,168.66885667154565,None,171.64594450499862,None,,,,,,,pilot,2022_Jun_14_1555,Hippopolis_Updating,2021.1.2,59.98716424132408,
Camponello,stimuli/subj_files/pilot_cityB.csv,./stimuli/leipzig.jpg,./stimuli/street_plate2.png,SZEKRÉNY,stimuli/objects/012a.jpg,object,0,stimuli/objects/012a.jpg,stimuli/objects/012a.jpg,stimuli/scenes/048a.jpg,stimuli/scenes/048b.jpg,stimuli/objects/012b.jpg,target,dist1,dist2,lure,0,0,0,0,0,20,20,53,,,,,172.66352010937408,None,172.66352010937408,None,172.66352010937408,None,172.66352010937408,None,175.664546742104,None,175.664546742104,None,175.664546742104,None,175.664546742104,None,178.6457858919166,None,,,,,,,pilot,2022_Jun_14_1555,Hippopolis_Updating,2021.1.2,59.98716424132408,
Camponello,stimuli/subj_files/pilot_cityB.csv,./stimuli/leipzig.jpg,./stimuli/street_plate2.png,MÁLNA,stimuli/objects/082a.jpg,object,1,stimuli/objects/083a.jpg,stimuli/objects/083b.jpg,stimuli/objects/083a.jpg,stimuli/objects/089b.jpg,stimuli/objects/089a.jpg,lure,target,dist2,dist1,0,0,0,0,0,21,21,27,,,,,179.6646838961169,None,179.6646838961169,None,179.6646838961169,None,179.6646838961169,None,182.68103226833045,None,182.68103226833045,None,182.68103226833045,None,182.68103226833045,None,185.65724492957816,None,,,,,,,pilot,2022_Jun_14_1555,Hippopolis_Updating,2021.1.2,59.98716424132408,
Camponello,stimuli/subj_files/pilot_cityB.csv,./stimuli/leipzig.jpg,./stimuli/street_plate2.png,KÖRTE,stimuli/scenes/040a.jpg,scene,0,stimuli/scenes/040a.jpg,stimuli/scenes/040a.jpg,stimuli/scenes/040b.jpg,stimuli/objects/002a.jpg,stimuli/objects/002b.jpg,target,lure,dist1,dist2,0,0,0,0,0,22,22,37,,,,,186.66741049056873,None,186.66741049056873,None,186.66741049056873,None,186.66741049056873,None,189.66556870983914,None,189.66556870983914,None,189.66556870983914,None,189.66556870983914,None,192.64557129750028,None,,,,,,,pilot,2022_Jun_14_1555,Hippopolis_Updating,2021.1.2,59.98716424132408,
Camponello,stimuli/subj_files/pilot_cityB.csv,./stimuli/leipzig.jpg,./stimuli/street_plate2.png,LIMONÁDÉ,stimuli/scenes/049a.jpg,scene,0,stimuli/scenes/049a.jpg,stimuli/objects/067a.jpg,stimuli/objects/067b.jpg,stimuli/scenes/049a.jpg,stimuli/scenes/049b.jpg,dist1,dist2,target,lure,0,0,0,0,0,23,23,34,,,,,193.66242132289335,None,193.66242132289335,None,193.66242132289335,None,193.66242132289335,None,196.66332946252078,None,196.66332946252078,None,196.66332946252078,None,196.66332946252078,None,199.65628267498687,None,,,,,,,pilot,2022_Jun_14_1555,Hippopolis_Updating,2021.1.2,59.98716424132408,
Camponello,stimuli/subj_files/pilot_cityB.csv,./stimuli/leipzig.jpg,./stimuli/street_plate2.png,KOKTÉL,stimuli/scenes/026a.jpg,scene,2,stimuli/objects/099a.jpg,stimuli/scenes/079b.jpg,stimuli/objects/099a.jpg,stimuli/scenes/079a.jpg,stimuli/objects/099b.jpg,dist2,target,dist1,lure,0,0,0,0,0,24,24,29,,,,,200.6686346125789,None,200.6686346125789,None,200.6686346125789,None,200.6686346125789,None,203.691706947051,None,203.691706947051,None,203.691706947051,None,203.691706947051,None,206.66107062157243,None,,,,,,,pilot,2022_Jun_14_1555,Hippopolis_Updating,2021.1.2,59.98716424132408,
Camponello,stimuli/subj_files/pilot_cityB.csv,./stimuli/leipzig.jpg,./stimuli/street_plate2.png,PIZSAMA,stimuli/objects/071a.jpg,object,0,stimuli/objects/071a.jpg,stimuli/scenes/036b.jpg,stimuli/objects/071a.jpg,stimuli/scenes/036a.jpg,stimuli/objects/071b.jpg,dist2,target,dist1,lure,0,0,0,0,0,25,25,9,,,,,207.66166308894753,None,207.66166308894753,None,207.66166308894753,None,207.66166308894753,None,210.66335994098336,None,210.66335994098336,None,210.66335994098336,None,210.66335994098336,None,213.6477738460526,None,,,,,,,pilot,2022_Jun_14_1555,Hippopolis_Updating,2021.1.2,59.98716424132408,
Camponello,stimuli/subj_files/pilot_cityB.csv,./stimuli/leipzig.jpg,./stimuli/street_plate2.png,SZIKLA,stimuli/objects/087a.jpg,object,0,stimuli/objects/087a.jpg,stimuli/scenes/031a.jpg,stimuli/objects/087a.jpg,stimuli/scenes/031b.jpg,stimuli/objects/087b.jpg,dist1,target,dist2,lure,0,0,0,0,0,26,26,31,,,,,214.66478248499334,None,214.66478248499334,None,214.66478248499334,None,214.66478248499334,None,217.66546701081097,None,217.66546701081097,None,217.66546701081097,None,217.66546701081097,None,220.64927600789815,None,,,,,,,pilot,2022_Jun_14_1555,Hippopolis_Updating,2021.1.2,59.98716424132408,
Camponello,stimuli/subj_files/pilot_cityB.csv,./stimuli/leipzig.jpg,./stimuli/street_plate2.png,KECSKE,stimuli/scenes/054a.jpg,scene,1,stimuli/scenes/064a.jpg,stimuli/objects/047b.jpg,stimuli/objects/047a.jpg,stimuli/scenes/064a.jpg,stimuli/scenes/064b.jpg,dist2,dist1,target,lure,0,0,0,0,0,27,27,39,,,,,221.6677563302219,None,221.6677563302219,None,221.6677563302219,None,221.6677563302219,None,224.6577748847194,None,224.6577748847194,None,224.6577748847194,None,224.6577748847194,None,227.64518191711977,None,,,,,,,pilot,2022_Jun_14_1555,Hippopolis_Updating,2021.1.2,59.98716424132408,
Camponello,stimuli/subj_files/pilot_cityB.csv,./stimuli/leipzig.jpg,./stimuli/street_plate2.png,TÁNYÉR,stimuli/scenes/039a.jpg,scene,0,stimuli/scenes/039a.jpg,stimuli/scenes/041a.jpg,stimuli/scenes/041b.jpg,stimuli/scenes/039b.jpg,stimuli/scenes/039a.jpg,dist1,dist2,lure,target,0,0,0,0,0,28,28,15,,,,,228.66286481870338,None,228.66286481870338,None,228.66286481870338,None,228.66286481870338,None,231.6602660473436,None,231.6602660473436,None,231.6602660473436,None,231.6602660473436,None,234.645154859405,None,,,,,,,pilot,2022_Jun_14_1555,Hippopolis_Updating,2021.1.2,59.98716424132408,
Camponello,stimuli/subj_files/pilot_cityB.csv,./stimuli/leipzig.jpg,./stimuli/street_plate2.png,BÖGRE,stimuli/scenes/002a.jpg,scene,1,stimuli/scenes/075a.jpg,stimuli/scenes/023a.jpg,stimuli/scenes/075a.jpg,stimuli/scenes/023b.jpg,stimuli/scenes/075b.jpg,dist1,target,dist2,lure,0,0,0,0,0,29,29,7,,,,,235.66266950638965,None,235.66266950638965,None,235.66266950638965,None,235.66266950638965,None,238.67108067963272,None,238.67108067963272,None,238.67108067963272,None,238.67108067963272,None,241.64756671572104,None,,,,,,,pilot,2022_Jun_14_1555,Hippopolis_Updating,2021.1.2,59.98716424132408,
Camponello,stimuli/subj_files/pilot_cityB.csv,./stimuli/leipzig.jpg,./stimuli/street_plate2.png,PISZTRÁNG,stimuli/objects/072a.jpg,object,0,stimuli/objects/072a.jpg,stimuli/objects/046b.jpg,stimuli/objects/072b.jpg,stimuli/objects/072a.jpg,stimuli/objects/046a.jpg,dist2,lure,target,dist1,0,0,0,0,0,30,30,49,,,,,242.66555906832218,None,242.66555906832218,None,242.66555906832218,None,242.66555906832218,None,245.67151235649362,None,245.67151235649362,None,245.67151235649362,None,245.67151235649362,None,248.6552327168174,None,,,,,,,pilot,2022_Jun_14_1555,Hippopolis_Updating,2021.1.2,59.98716424132408,
Camponello,stimuli/subj_files/pilot_cityB.csv,./stimuli/leipzig.jpg,./stimuli/street_plate2.png,ANANÁSZ,stimuli/scenes/088a.jpg,scene,1,stimuli/scenes/048a.jpg,stimuli/scenes/078a.jpg,stimuli/scenes/048a.jpg,stimuli/scenes/078b.jpg,stimuli/scenes/048b.jpg,dist1,target,dist2,lure,0,0,0,0,0,31,31,36,,,,,249.6617797166109,None,249.6617797166109,None,249.6617797166109,None,249.6617797166109,None,252.65983312623575,None,252.65983312623575,None,252.65983312623575,None,252.65983312623575,None,255.64476734539494,None,,,,,,,pilot,2022_Jun_14_1555,Hippopolis_Updating,2021.1.2,59.98716424132408,
Camponello,stimuli/subj_files/pilot_cityB.csv,./stimuli/leipzig.jpg,./stimuli/street_plate2.png,FECSKE,stimuli/scenes/004a.jpg,scene,0,stimuli/scenes/004a.jpg,stimuli/scenes/083b.jpg,stimuli/scenes/083a.jpg,stimuli/scenes/004b.jpg,stimuli/scenes/004a.jpg,dist2,dist1,lure,target,0,0,0,0,0,32,32,40,,,,,256.66447396669537,None,256.66447396669537,None,256.66447396669537,None,256.66447396669537,None,259.66280510509387,None,259.66280510509387,None,259.66280510509387,None,259.66280510509387,None,262.64636623021215,None,,,,,,,pilot,2022_Jun_14_1555,Hippopolis_Updating,2021.1.2,59.98716424132408,
Camponello,stimuli/subj_files/pilot_cityB.csv,./stimuli/leipzig.jpg,./stimuli/street_plate2.png,LOVAGLÁS,stimuli/objects/021a.jpg,object,0,stimuli/objects/021a.jpg,stimuli/objects/021b.jpg,stimuli/scenes/042b.jpg,stimuli/objects/021a.jpg,stimuli/scenes/042a.jpg,lure,dist2,target,dist1,0,0,0,0,0,33,33,38,,,,,263.6641561179422,None,263.6641561179422,None,263.6641561179422,None,263.6641561179422,None,266.6662146705203,None,266.6662146705203,None,266.6662146705203,None,266.6662146705203,None,269.6430359715596,None,,,,,,,pilot,2022_Jun_14_1555,Hippopolis_Updating,2021.1.2,59.98716424132408,
Camponello,stimuli/subj_files/pilot_cityB.csv,./stimuli/leipzig.jpg,./stimuli/street_plate2.png,KALAPÁCS,stimuli/objects/049a.jpg,object,1,stimuli/objects/048a.jpg,stimuli/objects/022a.jpg,stimuli/objects/048b.jpg,stimuli/objects/048a.jpg,stimuli/objects/022b.jpg,dist1,lure,target,dist2,0,0,0,0,0,34,34,32,,,,,270.6619122051634,None,270.6619122051634,None,270.6619122051634,None,270.6619122051634,None,273.66231247084215,None,273.66231247084215,None,273.66231247084215,None,273.66231247084215,None,276.64662467641756,None,,,,,,,pilot,2022_Jun_14_1555,Hippopolis_Updating,2021.1.2,59.98716424132408,
Camponello,stimuli/subj_files/pilot_cityB.csv,./stimuli/leipzig.jpg,./stimuli/street_plate2.png,HENTES,stimuli/objects/033a.jpg,object,1,stimuli/objects/015a.jpg,stimuli/objects/015b.jpg,stimuli/objects/091b.jpg,stimuli/objects/091a.jpg,stimuli/objects/015a.jpg,lure,dist2,dist1,target,0,0,0,0,0,35,35,42,,,,,277.66733460500836,None,277.66733460500836,None,277.66733460500836,None,277.66733460500836,None,280.68200478563085,None,280.68200478563085,None,280.68200478563085,None,280.68200478563085,None,283.6446270812303,None,,,,,,,pilot,2022_Jun_14_1555,Hippopolis_Updating,2021.1.2,59.98716424132408,
Camponello,stimuli/subj_files/pilot_cityB.csv,./stimuli/leipzig.jpg,./stimuli/street_plate2.png,PETÁRDA,stimuli/scenes/023a.jpg,scene,0,stimuli/scenes/023a.jpg,stimuli/scenes/023a.jpg,stimuli/scenes/019b.jpg,stimuli/scenes/019a.jpg,stimuli/scenes/023b.jpg,target,dist2,dist1,lure,0,0,0,0,0,36,36,51,,,,,284.6700957217254,None,284.6700957217254,None,284.6700957217254,None,284.6700957217254,None,287.6608781083487,None,287.6608781083487,None,287.6608781083487,None,287.6608781083487,None,290.6467845342122,None,,,,,,,pilot,2022_Jun_14_1555,Hippopolis_Updating,2021.1.2,59.98716424132408,
Camponello,stimuli/subj_files/pilot_cityB.csv,./stimuli/leipzig.jpg,./stimuli/street_plate2.png,CSAVARHÚZÓ,stimuli/scenes/037a.jpg,scene,0,stimuli/scenes/037a.jpg,stimuli/objects/072a.jpg,stimuli/objects/072b.jpg,stimuli/scenes/037b.jpg,stimuli/scenes/037a.jpg,dist1,dist2,lure,target,0,0,0,0,0,37,37,57,,,,,291.6662824698724,None,291.6662824698724,None,291.6662824698724,None,291.6662824698724,None,294.6635872866027,None,294.6635872866027,None,294.6635872866027,None,294.6635872866027,None,297.63776409905404,None,,,,,,,pilot,2022_Jun_14_1555,Hippopolis_Updating,2021.1.2,59.98716424132408,
Camponello,stimuli/subj_files/pilot_cityB.csv,./stimuli/leipzig.jpg,./stimuli/street_plate2.png,FÉNYMÁSOLÓ,stimuli/objects/050a.jpg,object,0,stimuli/objects/050a.jpg,stimuli/objects/015b.jpg,stimuli/objects/015a.jpg,stimuli/objects/050b.jpg,stimuli/objects/050a.jpg,dist2,dist1,lure,target,0,0,0,0,0,38,38,14,,,,,298.6586907990277,None,298.6586907990277,None,298.6586907990277,None,298.6586907990277,None,301.66318671032786,None,301.66318671032786,None,301.66318671032786,None,301.66318671032786,None,304.6458117053844,None,,,,,,,pilot,2022_Jun_14_1555,Hippopolis_Updating,2021.1.2,59.98716424132408,
Camponello,stimuli/subj_files/pilot_cityB.csv,./stimuli/leipzig.jpg,./stimuli/street_plate2.png,TIGRIS,stimuli/scenes/003a.jpg,scene,2,stimuli/objects/084a.jpg,stimuli/objects/084b.jpg,stimuli/scenes/076b.jpg,stimuli/objects/084a.jpg,stimuli/scenes/076a.jpg,lure,dist2,target,dist1,0,0,0,0,0,39,39,45,,,,,305.6665076385252,None,305.6665076385252,None,305.6665076385252,None,305.6665076385252,None,308.66445499518886,None,308.66445499518886,None,308.66445499518886,None,308.66445499518886,None,311.6483551170677,None,,,,,,,pilot,2022_Jun_14_1555,Hippopolis_Updating,2021.1.2,59.98716424132408,
Camponello,stimuli/subj_files/pilot_cityB.csv,./stimuli/leipzig.jpg,./stimuli/street_plate2.png,SZÚNYOG,stimuli/scenes/051a.jpg,scene,1,stimuli/scenes/005a.jpg,stimuli/objects/071b.jpg,stimuli/scenes/005a.jpg,stimuli/scenes/005b.jpg,stimuli/objects/071a.jpg,dist2,target,lure,dist1,0,0,0,0,0,40,40,25,,,,,312.66572234686464,None,312.66572234686464,None,312.66572234686464,None,312.66572234686464,None,315.65366275561973,None,315.65366275561973,None,315.65366275561973,None,315.65366275561973,None,318.6440793988295,None,,,,,,,pilot,2022_Jun_14_1555,Hippopolis_Updating,2021.1.2,59.98716424132408,
Camponello,stimuli/subj_files/pilot_cityB.csv,./stimuli/leipzig.jpg,./stimuli/street_plate2.png,KAKAS,stimuli/scenes/083a.jpg,scene,0,stimuli/scenes/083a.jpg,stimuli/scenes/083b.jpg,stimuli/scenes/052a.jpg,stimuli/scenes/052b.jpg,stimuli/scenes/083a.jpg,lure,dist1,dist2,target,0,0,0,0,0,41,41,22,,,,,319.66333910357207,None,319.66333910357207,None,319.66333910357207,None,319.66333910357207,None,322.66189323412254,None,322.66189323412254,None,322.66189323412254,None,322.66189323412254,None,325.6547335512005,None,,,,,,,pilot,2022_Jun_14_1555,Hippopolis_Updating,2021.1.2,59.98716424132408,
Camponello,stimuli/subj_files/pilot_cityB.csv,./stimuli/leipzig.jpg,./stimuli/street_plate2.png,MAJORÁNNA,stimuli/scenes/031a.jpg,scene,0,stimuli/scenes/031a.jpg,stimuli/objects/044b.jpg,stimuli/objects/044a.jpg,stimuli/scenes/031b.jpg,stimuli/scenes/031a.jpg,dist2,dist1,lure,target,0,0,0,0,0,42,42,3,,,,,326.6722780549899,None,326.6722780549899,None,326.6722780549899,None,326.6722780549899,None,329.65698617184535,None,329.65698617184535,None,329.65698617184535,None,329.65698617184535,None,332.6440644701943,None,,,,,,,pilot,2022_Jun_14_1555,Hippopolis_Updating,2021.1.2,59.98716424132408,
Camponello,stimuli/subj_files/pilot_cityB.csv,./stimuli/leipzig.jpg,./stimuli/street_plate2.png,HERING,stimuli/objects/004a.jpg,object,0,stimuli/objects/004a.jpg,stimuli/objects/012a.jpg,stimuli/objects/012b.jpg,stimuli/objects/004b.jpg,stimuli/objects/004a.jpg,dist1,dist2,lure,target,0,0,0,0,0,43,43,21,,,,,333.65931872138754,None,333.65931872138754,None,333.65931872138754,None,333.65931872138754,None,336.66528911469504,None,336.66528911469504,None,336.66528911469504,None,336.66528911469504,None,339.63942674035206,None,,,,,,,pilot,2022_Jun_14_1555,Hippopolis_Updating,2021.1.2,59.98716424132408,
Camponello,stimuli/subj_files/pilot_cityB.csv,./stimuli/leipzig.jpg,./stimuli/street_plate2.png,LÁMPA,stimuli/scenes/008a.jpg,scene,1,stimuli/scenes/076a.jpg,stimuli/scenes/076b.jpg,stimuli/scenes/076a.jpg,stimuli/scenes/032b.jpg,stimuli/scenes/032a.jpg,lure,target,dist2,dist1,0,0,0,0,0,44,44,55,,,,,340.65945307631046,None,340.65945307631046,None,340.65945307631046,None,340.65945307631046,None,343.67421749187633,None,343.67421749187633,None,343.67421749187633,None,343.67421749187633,None,346.6441366239451,None,,,,,,,pilot,2022_Jun_14_1555,Hippopolis_Updating,2021.1.2,59.98716424132408,
Camponello,stimuli/subj_files/pilot_cityB.csv,./stimuli/leipzig.jpg,./stimuli/street_plate2.png,BICIKLI,stimuli/scenes/010a.jpg,scene,0,stimuli/scenes/010a.jpg,stimuli/objects/052a.jpg,stimuli/objects/052b.jpg,stimuli/scenes/010a.jpg,stimuli/scenes/010b.jpg,dist1,dist2,target,lure,0,0,0,0,0,45,45,58,,,,,347.6710414928384,None,347.6710414928384,None,347.6710414928384,None,347.6710414928384,None,350.6721125994809,None,350.6721125994809,None,350.6721125994809,None,350.6721125994809,None,353.6437581288628,None,,,,,,,pilot,2022_Jun_14_1555,Hippopolis_Updating,2021.1.2,59.98716424132408,
Camponello,stimuli/subj_files/pilot_cityB.csv,./stimuli/leipzig.jpg,./stimuli/street_plate2.png,BONBON,stimuli/objects/091a.jpg,object,0,stimuli/objects/091a.jpg,stimuli/objects/091a.jpg,stimuli/objects/091b.jpg,stimuli/scenes/069a.jpg,stimuli/scenes/069b.jpg,target,lure,dist1,dist2,0,0,0,0,0,46,46,24,,,,,354.6607493516058,None,354.6607493516058,None,354.6607493516058,None,354.6607493516058,None,357.66213644109666,None,357.66213644109666,None,357.66213644109666,None,357.66213644109666,None,360.6473057810217,None,,,,,,,pilot,2022_Jun_14_1555,Hippopolis_Updating,2021.1.2,59.98716424132408,
Camponello,stimuli/subj_files/pilot_cityB.csv,./stimuli/leipzig.jpg,./stimuli/street_plate2.png,TISZTÁS,stimuli/objects/053a.jpg,object,1,stimuli/objects/025a.jpg,stimuli/scenes/025b.jpg,stimuli/objects/025b.jpg,stimuli/scenes/025a.jpg,stimuli/objects/025a.jpg,dist2,lure,dist1,target,0,0,0,0,0,47,47,11,,,,,361.6669825455174,None,361.6669825455174,None,361.6669825455174,None,361.6669825455174,None,364.6677267844789,None,364.6677267844789,None,364.6677267844789,None,364.6677267844789,None,367.644422438927,None,,,,,,,pilot,2022_Jun_14_1555,Hippopolis_Updating,2021.1.2,59.98716424132408,
Camponello,stimuli/subj_files/pilot_cityB.csv,./stimuli/leipzig.jpg,./stimuli/street_plate2.png,KABÁT,stimuli/objects/016a.jpg,object,0,stimuli/objects/016a.jpg,stimuli/objects/016a.jpg,stimuli/objects/016b.jpg,stimuli/scenes/029b.jpg,stimuli/scenes/029a.jpg,target,lure,dist2,dist1,0,0,0,0,0,48,48,28,,,,,368.6605434655212,None,368.6605434655212,None,368.6605434655212,None,368.6605434655212,None,371.66420339094475,None,371.66420339094475,None,371.66420339094475,None,371.66420339094475,None,374.6484866729006,None,,,,,,,pilot,2022_Jun_14_1555,Hippopolis_Updating,2021.1.2,59.98716424132408,
Camponello,stimuli/subj_files/pilot_cityB.csv,./stimuli/leipzig.jpg,./stimuli/street_plate2.png,KARTON,stimuli/objects/047a.jpg,object,0,stimuli/objects/047a.jpg,stimuli/objects/047a.jpg,stimuli/objects/004b.jpg,stimuli/objects/047b.jpg,stimuli/objects/004a.jpg,target,dist2,lure,dist1,0,0,0,0,0,49,49,44,,,,,375.66453305771574,None,375.66453305771574,None,375.66453305771574,None,375.66453305771574,None,378.68499977933243,None,378.68499977933243,None,378.68499977933243,None,378.68499977933243,None,381.64358583139256,None,,,,,,,pilot,2022_Jun_14_1555,Hippopolis_Updating,2021.1.2,59.98716424132408,
Camponello,stimuli/subj_files/pilot_cityB.csv,./stimuli/leipzig.jpg,./stimuli/street_plate2.png,TRIATLON,stimuli/objects/039a.jpg,object,2,stimuli/scenes/045a.jpg,stimuli/scenes/006b.jpg,stimuli/scenes/045b.jpg,stimuli/scenes/045a.jpg,stimuli/scenes/006a.jpg,dist2,lure,target,dist1,0,0,0,0,0,50,50,43,,,,,382.65816519781947,None,382.65816519781947,None,382.65816519781947,None,382.65816519781947,None,385.65965212043375,None,385.65965212043375,None,385.65965212043375,None,385.65965212043375,None,388.65693734399974,None,,,,,,,pilot,2022_Jun_14_1555,Hippopolis_Updating,2021.1.2,59.98716424132408,
Camponello,stimuli/subj_files/pilot_cityB.csv,./stimuli/leipzig.jpg,./stimuli/street_plate2.png,TENGER,stimuli/objects/061a.jpg,object,0,stimuli/objects/061a.jpg,stimuli/objects/016a.jpg,stimuli/objects/061a.jpg,stimuli/objects/016b.jpg,stimuli/objects/061b.jpg,dist1,target,dist2,lure,0,0,0,0,0,51,51,18,,,,,389.66474205441773,None,389.66474205441773,None,389.66474205441773,None,389.66474205441773,None,392.65888548921794,None,392.65888548921794,None,392.65888548921794,None,392.65888548921794,None,395.64324465719983,None,,,,,,,pilot,2022_Jun_14_1555,Hippopolis_Updating,2021.1.2,59.98716424132408,
Camponello,stimuli/subj_files/pilot_cityB.csv,./stimuli/leipzig.jpg,./stimuli/street_plate2.png,VITORLA,stimuli/objects/077a.jpg,object,0,stimuli/objects/077a.jpg,stimuli/scenes/040a.jpg,stimuli/scenes/040b.jpg,stimuli/objects/077a.jpg,stimuli/objects/077b.jpg,dist1,dist2,target,lure,0,0,0,0,0,52,52,16,,,,,396.6600981038064,None,396.6600981038064,None,396.6600981038064,None,396.6600981038064,None,399.6596023594029,None,399.6596023594029,None,399.6596023594029,None,399.6596023594029,None,402.64328384399414,None,,,,,,,pilot,2022_Jun_14_1555,Hippopolis_Updating,2021.1.2,59.98716424132408,
Camponello,stimuli/subj_files/pilot_cityB.csv,./stimuli/leipzig.jpg,./stimuli/street_plate2.png,HEGESZTŐ,stimuli/scenes/082a.jpg,scene,2,stimuli/objects/094a.jpg,stimuli/objects/048b.jpg,stimuli/objects/094b.jpg,stimuli/objects/094a.jpg,stimuli/objects/048a.jpg,dist2,lure,target,dist1,0,0,0,0,0,53,53,59,,,,,403.6612808620557,None,403.6612808620557,None,403.6612808620557,None,403.6612808620557,None,406.6799586736597,None,406.6799586736597,None,406.6799586736597,None,406.6799586736597,None,409.64315259922296,None,,,,,,,pilot,2022_Jun_14_1555,Hippopolis_Updating,2021.1.2,59.98716424132408,
Camponello,stimuli/subj_files/pilot_cityB.csv,./stimuli/leipzig.jpg,./stimuli/street_plate2.png,SZŐLŐ,stimuli/objects/068a.jpg,object,0,stimuli/objects/068a.jpg,stimuli/objects/068a.jpg,stimuli/objects/068b.jpg,stimuli/scenes/005a.jpg,stimuli/scenes/005b.jpg,target,lure,dist1,dist2,0,0,0,0,0,54,54,2,,,,,410.6607552608475,None,410.6607552608475,None,410.6607552608475,None,410.6607552608475,None,413.6625547450967,None,413.6625547450967,None,413.6625547450967,None,413.6625547450967,None,416.6466993181966,None,,,,,,,pilot,2022_Jun_14_1555,Hippopolis_Updating,2021.1.2,59.98716424132408,
Camponello,stimuli/subj_files/pilot_cityB.csv,./stimuli/leipzig.jpg,./stimuli/street_plate2.png,SAPKA,stimuli/objects/029a.jpg,object,0,stimuli/objects/029a.jpg,stimuli/objects/029b.jpg,stimuli/objects/029a.jpg,stimuli/scenes/045a.jpg,stimuli/scenes/045b.jpg,lure,target,dist1,dist2,0,0,0,0,0,55,55,13,,,,,417.6603288706392,None,417.6603288706392,None,417.6603288706392,None,417.6603288706392,None,420.6653929911554,None,420.6653929911554,None,420.6653929911554,None,420.6653929911554,None,423.6554019046016,None,,,,,,,pilot,2022_Jun_14_1555,Hippopolis_Updating,2021.1.2,59.98716424132408,
Camponello,stimuli/subj_files/pilot_cityB.csv,./stimuli/leipzig.jpg,./stimuli/street_plate2.png,KÖMÉNYMAG,stimuli/scenes/078a.jpg,scene,0,stimuli/scenes/078a.jpg,stimuli/scenes/078b.jpg,stimuli/objects/087a.jpg,stimuli/scenes/078a.jpg,stimuli/objects/087b.jpg,lure,dist1,target,dist2,0,0,0,0,0,56,56,1,,,,,424.658379170578,None,424.658379170578,None,424.658379170578,None,424.658379170578,None,427.6642637262121,None,427.6642637262121,None,427.6642637262121,None,427.6642637262121,None,430.65073867188767,None,,,,,,,pilot,2022_Jun_14_1555,Hippopolis_Updating,2021.1.2,59.98716424132408,
Camponello,stimuli/subj_files/pilot_cityB.csv,./stimuli/leipzig.jpg,./stimuli/street_plate2.png,KÖNYVTÁR,stimuli/objects/063a.jpg,object,1,stimuli/objects/045a.jpg,stimuli/objects/077a.jpg,stimuli/objects/045b.jpg,stimuli/objects/045a.jpg,stimuli/objects/077b.jpg,dist1,lure,target,dist2,0,0,0,0,0,57,57,19,,,,,431.66693900479004,None,431.66693900479004,None,431.66693900479004,None,431.66693900479004,None,434.681428801734,None,434.681428801734,None,434.681428801734,None,434.681428801734,None,437.642270273529,None,,,,,,,pilot,2022_Jun_14_1555,Hippopolis_Updating,2021.1.2,59.98716424132408,
Camponello,stimuli/subj_files/pilot_cityB.csv,./stimuli/leipzig.jpg,./stimuli/street_plate2.png,RIBIZLI,stimuli/scenes/029a.jpg,scene,0,stimuli/scenes/029a.jpg,stimuli/scenes/029b.jpg,stimuli/objects/094a.jpg,stimuli/objects/094b.jpg,stimuli/scenes/029a.jpg,lure,dist1,dist2,target,0,0,0,0,0,58,58,48,,,,,438.6666311081499,None,438.6666311081499,None,438.6666311081499,None,438.6666311081499,None,441.6590005615726,None,441.6590005615726,None,441.6590005615726,None,441.6590005615726,None,444.64285745378584,None,,,,,,,pilot,2022_Jun_14_1555,Hippopolis_Updating,2021.1.2,59.98716424132408,
Camponello,stimuli/subj_files/pilot_cityB.csv,./stimuli/leipzig.jpg,./stimuli/street_plate2.png,KÍGYÓ,stimuli/scenes/006a.jpg,scene,0,stimuli/scenes/006a.jpg,stimuli/scenes/006b.jpg,stimuli/scenes/006a.jpg,stimuli/objects/099b.jpg,stimuli/objects/099a.jpg,lure,target,dist2,dist1,0,0,0,0,0,59,59,6,,,,,445.65872967476025,None,445.65872967476025,None,445.65872967476025,None,445.65872967476025,None,448.6600912618451,None,448.6600912618451,None,448.6600912618451,None,448.6600912618451,None,451.64613017626107,None,,,,,,,pilot,2022_Jun_14_1555,Hippopolis_Updating,2021.1.2,59.98716424132408,
Hippopolis,stimuli/subj_files/pilot_cityA.csv,./stimuli/frankfurt.jpg,./stimuli/street_plate1.png,REPÜLŐ,stimuli/scenes/015a.jpg,scene,0,stimuli/scenes/015a.jpg,stimuli/scenes/015a.jpg,stimuli/objects/095b.jpg,stimuli/scenes/015b.jpg,stimuli/objects/095a.jpg,target,dist2,lure,dist1,0,1,1,1,0,0,0,35,767.3049851865508,None,767.3049851865508,None,770.3100953358226,None,770.3100953358226,None,770.3100953358226,None,770.3100953358226,None,773.2804184653796,None,773.2804184653796,None,773.2804184653796,None,773.2804184653796,None,776.2557503562421,None,452.6461939327419,None,space,314.5778493019752,452.6461939327419,None,pilot,2022_Jun_14_1555,Hippopolis_Updating,2021.1.2,59.98716424132408,
Hippopolis,stimuli/subj_files/pilot_cityA.csv,./stimuli/frankfurt.jpg,./stimuli/street_plate1.png,SZITAKÖTŐ,stimuli/objects/005a.jpg,object,1,stimuli/objects/010a.jpg,stimuli/objects/010b.jpg,stimuli/objects/010a.jpg,stimuli/objects/034b.jpg,stimuli/objects/034a.jpg,lure,target,dist2,dist1,0,1,1,1,0,1,1,3,,,,,777.272386720404,None,777.272386720404,None,777.272386720404,None,777.272386720404,None,780.2906067301519,None,780.2906067301519,None,780.2906067301519,None,780.2906067301519,None,783.2578515168279,None,,,,,,,pilot,2022_Jun_14_1555,Hippopolis_Updating,2021.1.2,59.98716424132408,
Hippopolis,stimuli/subj_files/pilot_cityA.csv,./stimuli/frankfurt.jpg,./stimuli/street_plate1.png,TOLLTARTÓ,stimuli/objects/057a.jpg,object,0,stimuli/objects/057a.jpg,stimuli/scenes/077a.jpg,stimuli/objects/057a.jpg,stimuli/objects/057b.jpg,stimuli/scenes/077b.jpg,dist1,target,lure,dist2,0,1,1,1,0,2,2,2,,,,,784.2727770339698,None,784.2727770339698,None,784.2727770339698,None,784.2727770339698,None,787.276372580789,None,787.276372580789,None,787.276372580789,None,787.276372580789,None,790.2595070046373,None,,,,,,,pilot,2022_Jun_14_1555,Hippopolis_Updating,2021.1.2,59.98716424132408,
Hippopolis,stimuli/subj_files/pilot_cityA.csv,./stimuli/frankfurt.jpg,./stimuli/street_plate1.png,MANDARIN,stimuli/objects/070a.jpg,object,2,stimuli/scenes/011a.jpg,stimuli/scenes/011b.jpg,stimuli/objects/030a.jpg,stimuli/objects/030b.jpg,stimuli/scenes/011a.jpg,lure,dist1,dist2,target,0,1,1,1,0,3,3,42,,,,,791.2786466609687,None,791.2786466609687,None,791.2786466609687,None,791.2786466609687,None,794.2848437782377,None,794.2848437782377,None,794.2848437782377,None,794.2848437782377,None,797.2553951865993,None,,,,,,,pilot,2022_Jun_14_1555,Hippopolis_Updating,2021.1.2,59.98716424132408,
Hippopolis,stimuli/subj_files/pilot_cityA.csv,./stimuli/frankfurt.jpg,./stimuli/street_plate1.png,EPER,stimuli/objects/085a.jpg,object,1,stimuli/objects/062a.jpg,stimuli/objects/007a.jpg,stimuli/objects/007b.jpg,stimuli/objects/062b.jpg,stimuli/objects/062a.jpg,dist1,dist2,lure,target,0,1,1,1,0,4,4,40,,,,,798.2728949054144,None,798.2728949054144,None,798.2728949054144,None,798.2728949054144,None,801.2925893971696,None,801.2925893971696,None,801.2925893971696,None,801.2925893971696,None,804.2592298979871,None,,,,,,,pilot,2022_Jun_14_1555,Hippopolis_Updating,2021.1.2,59.98716424132408,
Hippopolis,stimuli/subj_files/pilot_cityA.csv,./stimuli/frankfurt.jpg,./stimuli/street_plate1.png,MAJOM,stimuli/scenes/073a.jpg,scene,2,stimuli/objects/065a.jpg,stimuli/objects/065b.jpg,stimuli/scenes/074b.jpg,stimuli/scenes/074a.jpg,stimuli/objects/065a.jpg,lure,dist2,dist1,target,0,1,1,1,0,5,5,57,,,,,805.2794145364314,None,805.2794145364314,None,805.2794145364314,None,805.2794145364314,None,808.2665102509782,None,808.2665102509782,None,808.2665102509782,None,808.2665102509782,None,811.2554552108049,None,,,,,,,pilot,2022_Jun_14_1555,Hippopolis_Updating,2021.1.2,59.98716424132408,
Hippopolis,stimuli/subj_files/pilot_cityA.csv,./stimuli/frankfurt.jpg,./stimuli/street_plate1.png,SZALVÉTA,stimuli/objects/074a.jpg,object,1,stimuli/objects/088a.jpg,stimuli/objects/088a.jpg,stimuli/objects/088b.jpg,stimuli/objects/010b.jpg,stimuli/objects/010a.jpg,target,lure,dist2,dist1,0,1,1,1,0,6,6,50,,,,,812.2742739086971,None,812.2742739086971,None,812.2742739086971,None,812.2742739086971,None,815.2883718367666,None,815.2883718367666,None,815.2883718367666,None,815.2883718367666,None,818.2550446824171,None,,,,,,,pilot,2022_Jun_14_1555,Hippopolis_Updating,2021.1.2,59.98716424132408,
Hippopolis,stimuli/subj_files/pilot_cityA.csv,./stimuli/frankfurt.jpg,./stimuli/street_plate1.png,KAKAÓ,stimuli/objects/014a.jpg,object,1,stimuli/objects/031a.jpg,stimuli/objects/031a.jpg,stimuli/objects/031b.jpg,stimuli/scenes/065a.jpg,stimuli/scenes/065b.jpg,target,lure,dist1,dist2,0,1,1,1,0,7,7,4,,,,,819.2698224713095,None,819.2698224713095,None,819.2698224713095,None,819.2698224713095,None,822.2892056456767,None,822.2892056456767,None,822.2892056456767,None,822.2892056456767,None,825.2558710267767,None,,,,,,,pilot,2022_Jun_14_1555,Hippopolis_Updating,2021.1.2,59.98716424132408,
Hippopolis,stimuli/subj_files/pilot_cityA.csv,./stimuli/frankfurt.jpg,./stimuli/street_plate1.png,KOCSI,stimuli/scenes/087a.jpg,scene,1,stimuli/scenes/066a.jpg,stimuli/scenes/066b.jpg,stimuli/scenes/066a.jpg,stimuli/objects/001a.jpg,stimuli/objects/001b.jpg,lure,target,dist1,dist2,0,1,1,1,0,8,8,56,,,,,826.2731605051085,None,826.2731605051085,None,826.2731605051085,None,826.2731605051085,None,829.2754193455912,None,829.2754193455912,None,829.2754193455912,None,829.2754193455912,None,832.258778938558,None,,,,,,,pilot,2022_Jun_14_1555,Hippopolis_Updating,2021.1.2,59.98716424132408,
Hippopolis,stimuli/subj_files/pilot_cityA.csv,./stimuli/frankfurt.jpg,./stimuli/street_plate1.png,PETREZSELYEM,stimuli/objects/027a.jpg,object,2,stimuli/scenes/060a.jpg,stimuli/scenes/015b.jpg,stimuli/scenes/060b.jpg,stimuli/scenes/060a.jpg,stimuli/scenes/015a.jpg,dist2,lure,target,dist1,0,1,1,1,0,9,9,15,,,,,833.2768888520077,None,833.2768888520077,None,833.2768888520077,None,833.2768888520077,None,836.2797992513515,None,836.2797992513515,None,836.2797992513515,None,836.2797992513515,None,839.2550353519619,None,,,,,,,pilot,2022_Jun_14_1555,Hippopolis_Updating,2021.1.2,59.98716424132408,
Hippopolis,stimuli/subj_files/pilot_cityA.csv,./stimuli/frankfurt.jpg,./stimuli/street_plate1.png,LEPKE,stimuli/scenes/071a.jpg,scene,2,stimuli/objects/017a.jpg,stimuli/objects/017a.jpg,stimuli/scenes/027b.jpg,stimuli/objects/017b.jpg,stimuli/scenes/027a.jpg,target,dist2,lure,dist1,0,1,1,1,0,10,10,10,,,,,840.2721083695069,None,840.2721083695069,None,840.2721083695069,None,840.2721083695069,None,843.2855227058753,None,843.2855227058753,None,843.2855227058753,None,843.2855227058753,None,846.2548702075146,None,,,,,,,pilot,2022_Jun_14_1555,Hippopolis_Updating,2021.1.2,59.98716424132408,
Hippopolis,stimuli/subj_files/pilot_cityA.csv,./stimuli/frankfurt.jpg,./stimuli/street_plate1.png,PULÓVER,stimuli/scenes/020a.jpg,scene,0,stimuli/scenes/020a.jpg,stimuli/objects/088b.jpg,stimuli/objects/088a.jpg,stimuli/scenes/020b.jpg,stimuli/scenes/020a.jpg,dist2,dist1,lure,target,0,1,1,1,0,11,11,39,,,,,847.2721475563012,None,847.2721475563012,None,847.2721475563012,None,847.2721475563012,None,850.2916420712136,None,850.2916420712136,None,850.2916420712136,None,850.2916420712136,None,853.2586228130385,None,,,,,,,pilot,2022_Jun_14_1555,Hippopolis_Updating,2021.1.2,59.98716424132408,
Hippopolis,stimuli/subj_files/pilot_cityA.csv,./stimuli/frankfurt.jpg,./stimuli/street_plate1.png,VÁSÁR,stimuli/objects/013a.jpg,object,1,stimuli/objects/069a.jpg,stimuli/objects/069b.jpg,stimuli/scenes/043a.jpg,stimuli/scenes/043b.jpg,stimuli/objects/069a.jpg,lure,dist1,dist2,target,0,1,1,1,0,12,12,22,,,,,854.278734987136,None,854.278734987136,None,854.278734987136,None,854.278734987136,None,857.282712450251,None,857.282712450251,None,857.282712450251,None,857.282712450251,None,860.254957289435,None,,,,,,,pilot,2022_Jun_14_1555,Hippopolis_Updating,2021.1.2,59.98716424132408,
Hippopolis,stimuli/subj_files/pilot_cityA.csv,./stimuli/frankfurt.jpg,./stimuli/street_plate1.png,ÁRNYÉK,stimuli/scenes/013a.jpg,scene,0,stimuli/scenes/013a.jpg,stimuli/scenes/067a.jpg,stimuli/scenes/013b.jpg,stimuli/scenes/067b.jpg,stimuli/scenes/013a.jpg,dist1,lure,dist2,target,0,1,1,1,0,13,13,17,,,,,861.27160920389,None,861.27160920389,None,861.27160920389,None,861.27160920389,None,864.2716032951139,None,864.2716032951139,None,864.2716032951139,None,864.2716032951139,None,867.2588588669896,None,,,,,,,pilot,2022_Jun_14_1555,Hippopolis_Updating,2021.1.2,59.98716424132408,
Hippopolis,stimuli/subj_files/pilot_cityA.csv,./stimuli/frankfurt.jpg,./stimuli/street_plate1.png,HARMONIKA,stimuli/scenes/001a.jpg,scene,2,stimuli/objects/097a.jpg,stimuli/scenes/028b.jpg,stimuli/objects/097a.jpg,stimuli/objects/097b.jpg,stimuli/scenes/028a.jpg,dist2,target,lure,dist1,0,1,1,1,0,14,14,20,,,,,868.2810327038169,None,868.2810327038169,None,868.2810327038169,None,868.2810327038169,None,871.2831407063641,None,871.2831407063641,None,871.2831407063641,None,871.2831407063641,None,874.2545141051523,None,,,,,,,pilot,2022_Jun_14_1555,Hippopolis_Updating,2021.1.2,59.98716424132408,
Hippopolis,stimuli/subj_files/pilot_cityA.csv,./stimuli/frankfurt.jpg,./stimuli/street_plate1.png,ELEFÁNT,stimuli/scenes/058a.jpg,scene,2,stimuli/objects/018a.jpg,stimuli/objects/018a.jpg,stimuli/scenes/018b.jpg,stimuli/objects/018b.jpg,stimuli/scenes/018a.jpg,target,dist2,lure,dist1,0,1,1,1,0,15,15,41,,,,,875.2740991227329,None,875.2740991227329,None,875.2740991227329,None,875.2740991227329,None,878.293026983738,None,878.293026983738,None,878.293026983738,None,878.293026983738,None,881.2654263931327,None,,,,,,,pilot,2022_Jun_14_1555,Hippopolis_Updating,2021.1.2,59.98716424132408,
Hippopolis,stimuli/subj_files/pilot_cityA.csv,./stimuli/frankfurt.jpg,./stimuli/street_plate1.png,FOLYÓ,stimuli/objects/060a.jpg,object,2,stimuli/scenes/043a.jpg,stimuli/objects/066b.jpg,stimuli/scenes/043a.jpg,stimuli/objects/066a.jpg,stimuli/scenes/043b.jpg,dist2,target,dist1,lure,0,1,1,1,0,16,16,29,,,,,882.2704852260649,None,882.2704852260649,None,882.2704852260649,None,882.2704852260649,None,885.2703897473402,None,885.2703897473402,None,885.2703897473402,None,885.2703897473402,None,888.2567860083655,None,,,,,,,pilot,2022_Jun_14_1555,Hippopolis_Updating,2021.1.2,59.98716424132408,
Hippopolis,stimuli/subj_files/pilot_cityA.csv,./stimuli/frankfurt.jpg,./stimuli/street_plate1.png,MOSODA,stimuli/objects/059a.jpg,object,1,stimuli/objects/064a.jpg,stimuli/objects/064b.jpg,stimuli/objects/064a.jpg,stimuli/scenes/016b.jpg,stimuli/scenes/016a.jpg,lure,target,dist2,dist1,0,1,1,1,0,17,17,11,,,,,889.2785452730022,None,889.2785452730022,None,889.2785452730022,None,889.2785452730022,None,892.2830302990042,None,892.2830302990042,None,892.2830302990042,None,892.2830302990042,None,895.2623828826472,None,,,,,,,pilot,2022_Jun_14_1555,Hippopolis_Updating,2021.1.2,59.98716424132408,
Hippopolis,stimuli/subj_files/pilot_cityA.csv,./stimuli/frankfurt.jpg,./stimuli/street_plate1.png,SÜTŐ,stimuli/scenes/080a.jpg,scene,1,stimuli/scenes/063a.jpg,stimuli/objects/057b.jpg,stimuli/objects/057a.jpg,stimuli/scenes/063a.jpg,stimuli/scenes/063b.jpg,dist2,dist1,target,lure,0,1,1,1,0,18,18,19,,,,,896.2791190799326,None,896.2791190799326,None,896.2791190799326,None,896.2791190799326,None,899.2731698350981,None,899.2731698350981,None,899.2731698350981,None,899.2731698350981,None,902.2542329551652,None,,,,,,,pilot,2022_Jun_14_1555,Hippopolis_Updating,2021.1.2,59.98716424132408,
Hippopolis,stimuli/subj_files/pilot_cityA.csv,./stimuli/frankfurt.jpg,./stimuli/street_plate1.png,ZONGORA,stimuli/scenes/017a.jpg,scene,1,stimuli/scenes/053a.jpg,stimuli/scenes/053b.jpg,stimuli/objects/078b.jpg,stimuli/scenes/053a.jpg,stimuli/objects/078a.jpg,lure,dist2,target,dist1,0,1,1,1,0,19,19,25,,,,,903.2705116616562,None,903.2705116616562,None,903.2705116616562,None,903.2705116616562,None,906.2712375512347,None,906.2712375512347,None,906.2712375512347,None,906.2712375512347,None,909.2519741142169,None,,,,,,,pilot,2022_Jun_14_1555,Hippopolis_Updating,2021.1.2,59.98716424132408,
Hippopolis,stimuli/subj_files/pilot_cityA.csv,./stimuli/frankfurt.jpg,./stimuli/street_plate1.png,KULACS,stimuli/scenes/035a.jpg,scene,2,stimuli/objects/009a.jpg,stimuli/objects/003a.jpg,stimuli/objects/009b.jpg,stimuli/objects/003b.jpg,stimuli/objects/009a.jpg,dist1,lure,dist2,target,0,1,1,1,0,20,20,24,,,,,910.2761561204679,None,910.2761561204679,None,910.2761561204679,None,910.2761561204679,None,913.3136059781536,None,913.3136059781536,None,913.3136059781536,None,913.3136059781536,None,916.2542009213939,None,,,,,,,pilot,2022_Jun_14_1555,Hippopolis_Updating,2021.1.2,59.98716424132408,
Hippopolis,stimuli/subj_files/pilot_cityA.csv,./stimuli/frankfurt.jpg,./stimuli/street_plate1.png,GYŰRŰ,stimuli/scenes/057a.jpg,scene,1,stimuli/scenes/050a.jpg,stimuli/scenes/050b.jpg,stimuli/scenes/050a.jpg,stimuli/scenes/053a.jpg,stimuli/scenes/053b.jpg,lure,target,dist1,dist2,0,1,1,1,0,21,21,9,,,,,917.2810896178707,None,917.2810896178707,None,917.2810896178707,None,917.2810896178707,None,920.2699947687797,None,920.2699947687797,None,920.2699947687797,None,920.2699947687797,None,923.2537039327435,None,,,,,,,pilot,2022_Jun_14_1555,Hippopolis_Updating,2021.1.2,59.98716424132408,
Hippopolis,stimuli/subj_files/pilot_cityA.csv,./stimuli/frankfurt.jpg,./stimuli/street_plate1.png,HÁRFA,stimuli/scenes/014a.jpg,scene,2,stimuli/objects/034a.jpg,stimuli/objects/017b.jpg,stimuli/objects/017a.jpg,stimuli/objects/034b.jpg,stimuli/objects/034a.jpg,dist2,dist1,lure,target,0,1,1,1,0,22,22,7,,,,,924.270561422687,None,924.270561422687,None,924.270561422687,None,924.270561422687,None,927.2716636303812,None,927.2716636303812,None,927.2716636303812,None,927.2716636303812,None,930.2574431649409,None,,,,,,,pilot,2022_Jun_14_1555,Hippopolis_Updating,2021.1.2,59.98716424132408,
Hippopolis,stimuli/subj_files/pilot_cityA.csv,./stimuli/frankfurt.jpg,./stimuli/street_plate1.png,NARANCS,stimuli/scenes/016a.jpg,scene,0,stimuli/scenes/016a.jpg,stimuli/scenes/016b.jpg,stimuli/scenes/013a.jpg,stimuli/scenes/016a.jpg,stimuli/scenes/013b.jpg,lure,dist1,target,dist2,0,1,1,1,0,23,23,32,,,,,931.2769728237763,None,931.2769728237763,None,931.2769728237763,None,931.2769728237763,None,934.2745674988255,None,934.2745674988255,None,934.2745674988255,None,934.2745674988255,None,937.261900822632,None,,,,,,,pilot,2022_Jun_14_1555,Hippopolis_Updating,2021.1.2,59.98716424132408,
Hippopolis,stimuli/subj_files/pilot_cityA.csv,./stimuli/frankfurt.jpg,./stimuli/street_plate1.png,FÉNYKÉP,stimuli/objects/079a.jpg,object,1,stimuli/objects/095a.jpg,stimuli/scenes/061a.jpg,stimuli/objects/095b.jpg,stimuli/objects/095a.jpg,stimuli/scenes/061b.jpg,dist1,lure,target,dist2,0,1,1,1,0,24,24,37,,,,,938.2834514016286,None,938.2834514016286,None,938.2834514016286,None,938.2834514016286,None,941.2810491868295,None,941.2810491868295,None,941.2810491868295,None,941.2810491868295,None,944.2537294356152,None,,,,,,,pilot,2022_Jun_14_1555,Hippopolis_Updating,2021.1.2,59.98716424132408,
Hippopolis,stimuli/subj_files/pilot_cityA.csv,./stimuli/frankfurt.jpg,./stimuli/street_plate1.png,DOMINÓ,stimuli/scenes/081a.jpg,scene,2,stimuli/objects/030a.jpg,stimuli/objects/030a.jpg,stimuli/scenes/066a.jpg,stimuli/objects/030b.jpg,stimuli/scenes/066b.jpg,target,dist1,lure,dist2,0,1,1,1,0,25,25,38,,,,,945.2718804017641,None,945.2718804017641,None,945.2718804017641,None,945.2718804017641,None,948.2709271665663,None,948.2709271665663,None,948.2709271665663,None,948.2709271665663,None,951.2675813576207,None,,,,,,,pilot,2022_Jun_14_1555,Hippopolis_Updating,2021.1.2,59.98716424132408,
Hippopolis,stimuli/subj_files/pilot_cityA.csv,./stimuli/frankfurt.jpg,./stimuli/street_plate1.png,SIVATAG,stimuli/scenes/033a.jpg,scene,2,stimuli/objects/037a.jpg,stimuli/objects/069a.jpg,stimuli/objects/037a.jpg,stimuli/objects/037b.jpg,stimuli/objects/069b.jpg,dist1,target,lure,dist2,0,1,1,1,0,26,26,49,,,,,952.2775422767736,None,952.2775422767736,None,952.2775422767736,None,952.2775422767736,None,955.2672296091914,None,955.2672296091914,None,955.2672296091914,None,955.2672296091914,None,958.2535580708645,None,,,,,,,pilot,2022_Jun_14_1555,Hippopolis_Updating,2021.1.2,59.98716424132408,
Hippopolis,stimuli/subj_files/pilot_cityA.csv,./stimuli/frankfurt.jpg,./stimuli/street_plate1.png,BETON,stimuli/objects/056a.jpg,object,2,stimuli/scenes/056a.jpg,stimuli/scenes/056b.jpg,stimuli/scenes/084b.jpg,stimuli/scenes/084a.jpg,stimuli/scenes/056a.jpg,lure,dist2,dist1,target,0,1,1,1,0,27,27,59,,,,,959.2713616429828,None,959.2713616429828,None,959.2713616429828,None,959.2713616429828,None,962.2857264149934,None,962.2857264149934,None,962.2857264149934,None,962.2857264149934,None,965.2547000870109,None,,,,,,,pilot,2022_Jun_14_1555,Hippopolis_Updating,2021.1.2,59.98716424132408,
Hippopolis,stimuli/subj_files/pilot_cityA.csv,./stimuli/frankfurt.jpg,./stimuli/street_plate1.png,KÓKUSZ,stimuli/objects/073a.jpg,object,0,stimuli/objects/073a.jpg,stimuli/scenes/044a.jpg,stimuli/objects/073a.jpg,stimuli/objects/073b.jpg,stimuli/scenes/044b.jpg,dist1,target,lure,dist2,0,1,1,1,0,28,28,27,,,,,966.2723581078462,None,966.2723581078462,None,966.2723581078462,None,966.2723581078462,None,969.2748925006017,None,969.2748925006017,None,969.2748925006017,None,969.2748925006017,None,972.2524975384586,None,,,,,,,pilot,2022_Jun_14_1555,Hippopolis_Updating,2021.1.2,59.98716424132408,
Hippopolis,stimuli/subj_files/pilot_cityA.csv,./stimuli/frankfurt.jpg,./stimuli/street_plate1.png,ÁLOM,stimuli/scenes/062a.jpg,scene,2,stimuli/objects/096a.jpg,stimuli/objects/096b.jpg,stimuli/scenes/024a.jpg,stimuli/scenes/024b.jpg,stimuli/objects/096a.jpg,lure,dist1,dist2,target,0,1,1,1,0,29,29,51,,,,,973.2676332960837,None,973.2676332960837,None,973.2676332960837,None,973.2676332960837,None,976.2689444995485,None,976.2689444995485,None,976.2689444995485,None,976.2689444995485,None,979.2534128306434,None,,,,,,,pilot,2022_Jun_14_1555,Hippopolis_Updating,2021.1.2,59.98716424132408,
Hippopolis,stimuli/subj_files/pilot_cityA.csv,./stimuli/frankfurt.jpg,./stimuli/street_plate1.png,SZILVA,stimuli/scenes/021a.jpg,scene,1,stimuli/scenes/061a.jpg,stimuli/objects/051b.jpg,stimuli/scenes/061b.jpg,stimuli/scenes/061a.jpg,stimuli/objects/051a.jpg,dist2,lure,target,dist1,0,1,1,1,0,30,30,8,,,,,980.270083094947,None,980.270083094947,None,980.270083094947,None,980.270083094947,None,983.2730460544117,None,983.2730460544117,None,983.2730460544117,None,983.2730460544117,None,986.2572578052059,None,,,,,,,pilot,2022_Jun_14_1555,Hippopolis_Updating,2021.1.2,59.98716424132408,
Hippopolis,stimuli/subj_files/pilot_cityA.csv,./stimuli/frankfurt.jpg,./stimuli/street_plate1.png,MEDVE,stimuli/scenes/034a.jpg,scene,1,stimuli/scenes/022a.jpg,stimuli/scenes/022b.jpg,stimuli/scenes/012a.jpg,stimuli/scenes/012b.jpg,stimuli/scenes/022a.jpg,lure,dist1,dist2,target,0,1,1,1,0,31,31,0,,,,,987.2771653365344,None,987.2771653365344,None,987.2771653365344,None,987.2771653365344,None,990.265886683017,None,990.265886683017,None,990.265886683017,None,990.265886683017,None,993.2532349349931,None,,,,,,,pilot,2022_Jun_14_1555,Hippopolis_Updating,2021.1.2,59.98716424132408,
Hippopolis,stimuli/subj_files/pilot_cityA.csv,./stimuli/frankfurt.jpg,./stimuli/street_plate1.png,FOGÓ,stimuli/scenes/030a.jpg,scene,1,stimuli/scenes/089a.jpg,stimuli/scenes/089a.jpg,stimuli/scenes/050b.jpg,stimuli/scenes/050a.jpg,stimuli/scenes/089b.jpg,target,dist2,dist1,lure,0,1,1,1,0,32,32,36,,,,,994.266786113847,None,994.266786113847,None,994.266786113847,None,994.266786113847,None,997.2883139899932,None,997.2883139899932,None,997.2883139899932,None,997.2883139899932,None,1000.2553090378642,None,,,,,,,pilot,2022_Jun_14_1555,Hippopolis_Updating,2021.1.2,59.98716424132408,
Hippopolis,stimuli/subj_files/pilot_cityA.csv,./stimuli/frankfurt.jpg,./stimuli/street_plate1.png,SZÁMOLÓGÉP,stimuli/scenes/038a.jpg,scene,0,stimuli/scenes/038a.jpg,stimuli/scenes/022a.jpg,stimuli/scenes/038b.jpg,stimuli/scenes/022b.jpg,stimuli/scenes/038a.jpg,dist1,lure,dist2,target,0,1,1,1,0,33,33,28,,,,,1001.2706883135252,None,1001.2706883135252,None,1001.2706883135252,None,1001.2706883135252,None,1004.2887556189671,None,1004.2887556189671,None,1004.2887556189671,None,1004.2887556189671,None,1007.2568852193654,None,,,,,,,pilot,2022_Jun_14_1555,Hippopolis_Updating,2021.1.2,59.98716424132408,
Hippopolis,stimuli/subj_files/pilot_cityA.csv,./stimuli/frankfurt.jpg,./stimuli/street_plate1.png,KULLANCS,stimuli/objects/019a.jpg,object,1,stimuli/objects/003a.jpg,stimuli/objects/003a.jpg,stimuli/objects/003b.jpg,stimuli/scenes/072a.jpg,stimuli/scenes/072b.jpg,target,lure,dist1,dist2,0,1,1,1,0,34,34,14,,,,,1008.2735268706456,None,1008.2735268706456,None,1008.2735268706456,None,1008.2735268706456,None,1011.2869464936666,None,1011.2869464936666,None,1011.2869464936666,None,1011.2869464936666,None,1014.2529923496768,None,,,,,,,pilot,2022_Jun_14_1555,Hippopolis_Updating,2021.1.2,59.98716424132408,
Hippopolis,stimuli/subj_files/pilot_cityA.csv,./stimuli/frankfurt.jpg,./stimuli/street_plate1.png,SZAXOFON,stimuli/objects/058a.jpg,object,0,stimuli/objects/058a.jpg,stimuli/objects/058b.jpg,stimuli/objects/058a.jpg,stimuli/scenes/038b.jpg,stimuli/scenes/038a.jpg,lure,target,dist2,dist1,0,1,1,1,0,35,35,52,,,,,1015.2706621889956,None,1015.2706621889956,None,1015.2706621889956,None,1015.2706621889956,None,1018.2900195498951,None,1018.2900195498951,None,1018.2900195498951,None,1018.2900195498951,None,1021.2527852193452,None,,,,,,,pilot,2022_Jun_14_1555,Hippopolis_Updating,2021.1.2,59.98716424132408,
Hippopolis,stimuli/subj_files/pilot_cityA.csv,./stimuli/frankfurt.jpg,./stimuli/street_plate1.png,MÁRVÁNY,stimuli/objects/054a.jpg,object,0,stimuli/objects/054a.jpg,stimuli/scenes/020a.jpg,stimuli/objects/054b.jpg,stimuli/scenes/020b.jpg,stimuli/objects/054a.jpg,dist1,lure,dist2,target,0,1,1,1,0,36,36,33,,,,,1022.2704513263889,None,1022.2704513263889,None,1022.2704513263889,None,1022.2704513263889,None,1025.2724439455196,None,1025.2724439455196,None,1025.2724439455196,None,1025.2724439455196,None,1028.261945918668,None,,,,,,,pilot,2022_Jun_14_1555,Hippopolis_Updating,2021.1.2,59.98716424132408,
Hippopolis,stimuli/subj_files/pilot_cityA.csv,./stimuli/frankfurt.jpg,./stimuli/street_plate1.png,RÁDIÓ,stimuli/objects/092a.jpg,object,0,stimuli/objects/092a.jpg,stimuli/objects/062b.jpg,stimuli/objects/092b.jpg,stimuli/objects/062a.jpg,stimuli/objects/092a.jpg,dist2,lure,dist1,target,0,1,1,1,0,37,37,6,,,,,1029.269844241906,None,1029.269844241906,None,1029.269844241906,None,1029.269844241906,None,1032.2690800987184,None,1032.2690800987184,None,1032.2690800987184,None,1032.2690800987184,None,1035.2568923723884,None,,,,,,,pilot,2022_Jun_14_1555,Hippopolis_Updating,2021.1.2,59.98716424132408,
Hippopolis,stimuli/subj_files/pilot_cityA.csv,./stimuli/frankfurt.jpg,./stimuli/street_plate1.png,SZÖCSKE,stimuli/objects/035a.jpg,object,2,stimuli/scenes/059a.jpg,stimuli/objects/011a.jpg,stimuli/scenes/059b.jpg,stimuli/scenes/059a.jpg,stimuli/objects/011b.jpg,dist1,lure,target,dist2,0,1,1,1,0,38,38,53,,,,,1036.273572588805,None,1036.273572588805,None,1036.273572588805,None,1036.273572588805,None,1039.2749186251312,None,1039.2749186251312,None,1039.2749186251312,None,1039.2749186251312,None,1042.2514491351321,None,,,,,,,pilot,2022_Jun_14_1555,Hippopolis_Updating,2021.1.2,59.98716424132408,
Hippopolis,stimuli/subj_files/pilot_cityA.csv,./stimuli/frankfurt.jpg,./stimuli/street_plate1.png,BAGOLY,stimuli/scenes/018a.jpg,scene,0,stimuli/scenes/018a.jpg,stimuli/objects/040b.jpg,stimuli/scenes/018b.jpg,stimuli/scenes/018a.jpg,stimuli/objects/040a.jpg,dist2,lure,target,dist1,0,1,1,1,0,39,39,21,,,,,1043.2798829120584,None,1043.2798829120584,None,1043.2798829120584,None,1043.2798829120584,None,1046.2663015658036,None,1046.2663015658036,None,1046.2663015658036,None,1046.2663015658036,None,1049.2525342372246,None,,,,,,,pilot,2022_Jun_14_1555,Hippopolis_Updating,2021.1.2,59.98716424132408,
Hippopolis,stimuli/subj_files/pilot_cityA.csv,./stimuli/frankfurt.jpg,./stimuli/street_plate1.png,FIÓK,stimuli/objects/023a.jpg,object,2,stimuli/scenes/067a.jpg,stimuli/scenes/067b.jpg,stimuli/scenes/067a.jpg,stimuli/objects/064a.jpg,stimuli/objects/064b.jpg,lure,target,dist1,dist2,0,1,1,1,0,40,40,54,,,,,1050.270042352844,None,1050.270042352844,None,1050.270042352844,None,1050.270042352844,None,1053.2702737418003,None,1053.2702737418003,None,1053.2702737418003,None,1053.2702737418003,None,1056.2765877973288,None,,,,,,,pilot,2022_Jun_14_1555,Hippopolis_Updating,2021.1.2,59.98716424132408,
Hippopolis,stimuli/subj_files/pilot_cityA.csv,./stimuli/frankfurt.jpg,./stimuli/street_plate1.png,SIRÁLY,stimuli/objects/042a.jpg,object,2,stimuli/scenes/028a.jpg,stimuli/objects/073a.jpg,stimuli/scenes/028a.jpg,stimuli/scenes/028b.jpg,stimuli/objects/073b.jpg,dist1,target,lure,dist2,0,1,1,1,0,41,41,30,,,,,1057.276153321378,None,1057.276153321378,None,1057.276153321378,None,1057.276153321378,None,1060.2652130424976,None,1060.2652130424976,None,1060.2652130424976,None,1060.2652130424976,None,1063.254508818034,None,,,,,,,pilot,2022_Jun_14_1555,Hippopolis_Updating,2021.1.2,59.98716424132408,
Hippopolis,stimuli/subj_files/pilot_cityA.csv,./stimuli/frankfurt.jpg,./stimuli/street_plate1.png,FEJSZE,stimuli/objects/008a.jpg,object,1,stimuli/objects/098a.jpg,stimuli/objects/058a.jpg,stimuli/objects/098b.jpg,stimuli/objects/058b.jpg,stimuli/objects/098a.jpg,dist1,lure,dist2,target,0,1,1,1,0,42,42,44,,,,,1064.2736864169128,None,1064.2736864169128,None,1064.2736864169128,None,1064.2736864169128,None,1067.2697854614817,None,1067.2697854614817,None,1067.2697854614817,None,1067.2697854614817,None,1070.2522521540523,None,,,,,,,pilot,2022_Jun_14_1555,Hippopolis_Updating,2021.1.2,59.98716424132408,
Hippopolis,stimuli/subj_files/pilot_cityA.csv,./stimuli/frankfurt.jpg,./stimuli/street_plate1.png,PULYKA,stimuli/objects/086a.jpg,object,2,stimuli/scenes/074a.jpg,stimuli/scenes/074b.jpg,stimuli/scenes/059b.jpg,stimuli/scenes/059a.jpg,stimuli/scenes/074a.jpg,lure,dist2,dist1,target,0,1,1,1,0,43,43,18,,,,,1071.2695910823531,None,1071.2695910823531,None,1071.2695910823531,None,1071.2695910823531,None,1074.285549141001,None,1074.285549141001,None,1074.285549141001,None,1074.285549141001,None,1077.2710033631884,None,,,,,,,pilot,2022_Jun_14_1555,Hippopolis_Updating,2021.1.2,59.98716424132408,
Hippopolis,stimuli/subj_files/pilot_cityA.csv,./stimuli/frankfurt.jpg,./stimuli/street_plate1.png,KATONA,stimuli/scenes/085a.jpg,scene,1,stimuli/scenes/024a.jpg,stimuli/scenes/024b.jpg,stimuli/scenes/024a.jpg,stimuli/scenes/063b.jpg,stimuli/scenes/063a.jpg,lure,target,dist2,dist1,0,1,1,1,0,44,44,31,,,,,1078.2712773601525,None,1078.2712773601525,None,1078.2712773601525,None,1078.2712773601525,None,1081.2719149235636,None,1081.2719149235636,None,1081.2719149235636,None,1081.2719149235636,None,1084.2559378934093,None,,,,,,,pilot,2022_Jun_14_1555,Hippopolis_Updating,2021.1.2,59.98716424132408,
Hippopolis,stimuli/subj_files/pilot_cityA.csv,./stimuli/frankfurt.jpg,./stimuli/street_plate1.png,SZOMSZÉD,stimuli/objects/066a.jpg,object,0,stimuli/objects/066a.jpg,stimuli/objects/066b.jpg,stimuli/scenes/011b.jpg,stimuli/scenes/011a.jpg,stimuli/objects/066a.jpg,lure,dist2,dist1,target,0,1,1,1,0,45,45,13,,,,,1085.274425368756,None,1085.274425368756,None,1085.274425368756,None,1085.274425368756,None,1088.27334524272,None,1088.27334524272,None,1088.27334524272,None,1088.27334524272,None,1091.2755250879563,None,,,,,,,pilot,2022_Jun_14_1555,Hippopolis_Updating,2021.1.2,59.98716424132408,
Hippopolis,stimuli/subj_files/pilot_cityA.csv,./stimuli/frankfurt.jpg,./stimuli/street_plate1.png,KESZTYŰ,stimuli/objects/038a.jpg,object,1,stimuli/objects/011a.jpg,stimuli/objects/031a.jpg,stimuli/objects/011a.jpg,stimuli/objects/031b.jpg,stimuli/objects/011b.jpg,dist1,target,dist2,lure,0,1,1,1,0,46,46,16,,,,,1092.27591882227,None,1092.27591882227,None,1092.27591882227,None,1092.27591882227,None,1095.2656692895107,None,1095.2656692895107,None,1095.2656692895107,None,1095.2656692895107,None,1098.2520014829934,None,,,,,,,pilot,2022_Jun_14_1555,Hippopolis_Updating,2021.1.2,59.98716424132408,
Hippopolis,stimuli/subj_files/pilot_cityA.csv,./stimuli/frankfurt.jpg,./stimuli/street_plate1.png,KOCKA,stimuli/objects/001a.jpg,object,0,stimuli/objects/001a.jpg,stimuli/objects/037b.jpg,stimuli/objects/037a.jpg,stimuli/objects/001a.jpg,stimuli/objects/001b.jpg,dist2,dist1,target,lure,0,1,1,1,0,47,47,55,,,,,1099.2699111080728,None,1099.2699111080728,None,1099.2699111080728,None,1099.2699111080728,None,1102.2709113052115,None,1102.2709113052115,None,1102.2709113052115,None,1102.2709113052115,None,1105.251927152276,None,,,,,,,pilot,2022_Jun_14_1555,Hippopolis_Updating,2021.1.2,59.98716424132408,
Hippopolis,stimuli/subj_files/pilot_cityA.csv,./stimuli/frankfurt.jpg,./stimuli/street_plate1.png,KÁRÁSZ,stimuli/objects/020a.jpg,object,2,stimuli/scenes/084a.jpg,stimuli/objects/054a.jpg,stimuli/scenes/084b.jpg,stimuli/scenes/084a.jpg,stimuli/objects/054b.jpg,dist1,lure,target,dist2,0,1,1,1,0,48,48,58,,,,,1106.2683476777747,None,1106.2683476777747,None,1106.2683476777747,None,1106.2683476777747,None,1109.2689199303277,None,1109.2689199303277,None,1109.2689199303277,None,1109.2689199303277,None,1112.2653501965106,None,,,,,,,pilot,2022_Jun_14_1555,Hippopolis_Updating,2021.1.2,59.98716424132408,
Hippopolis,stimuli/subj_files/pilot_cityA.csv,./stimuli/frankfurt.jpg,./stimuli/street_plate1.png,TÖLCSÉR,stimuli/scenes/027a.jpg,scene,0,stimuli/scenes/027a.jpg,stimuli/objects/098b.jpg,stimuli/objects/098a.jpg,stimuli/scenes/027a.jpg,stimuli/scenes/027b.jpg,dist2,dist1,target,lure,0,1,1,1,0,49,49,5,,,,,1113.278117327951,None,1113.278117327951,None,1113.278117327951,None,1113.278117327951,None,1116.2670072396286,None,1116.2670072396286,None,1116.2670072396286,None,1116.2670072396286,None,1119.2520506219007,None,,,,,,,pilot,2022_Jun_14_1555,Hippopolis_Updating,2021.1.2,59.98716424132408,
Hippopolis,stimuli/subj_files/pilot_cityA.csv,./stimuli/frankfurt.jpg,./stimuli/street_plate1.png,EGÉR,stimuli/scenes/055a.jpg,scene,2,stimuli/objects/051a.jpg,stimuli/scenes/086b.jpg,stimuli/scenes/086a.jpg,stimuli/objects/051b.jpg,stimuli/objects/051a.jpg,dist2,dist1,lure,target,0,1,1,1,0,50,50,43,,,,,1120.269271678757,None,1120.269271678757,None,1120.269271678757,None,1120.269271678757,None,1123.2758006397635,None,1123.2758006397635,None,1123.2758006397635,None,1123.2758006397635,None,1126.2556299967691,None,,,,,,,pilot,2022_Jun_14_1555,Hippopolis_Updating,2021.1.2,59.98716424132408,
Hippopolis,stimuli/subj_files/pilot_cityA.csv,./stimuli/frankfurt.jpg,./stimuli/street_plate1.png,KESELYŰ,stimuli/scenes/070a.jpg,scene,1,stimuli/scenes/072a.jpg,stimuli/objects/092b.jpg,stimuli/scenes/072a.jpg,stimuli/scenes/072b.jpg,stimuli/objects/092a.jpg,dist2,target,lure,dist1,0,1,1,1,0,51,51,46,,,,,1127.2748355865479,None,1127.2748355865479,None,1127.2748355865479,None,1127.2748355865479,None,1130.3096272712573,None,1130.3096272712573,None,1130.3096272712573,None,1130.3096272712573,None,1133.254263122566,None,,,,,,,pilot,2022_Jun_14_1555,Hippopolis_Updating,2021.1.2,59.98716424132408,
Hippopolis,stimuli/subj_files/pilot_cityA.csv,./stimuli/frankfurt.jpg,./stimuli/street_plate1.png,MUNKA,stimuli/scenes/077a.jpg,scene,0,stimuli/scenes/077a.jpg,stimuli/scenes/077b.jpg,stimuli/objects/096b.jpg,stimuli/objects/096a.jpg,stimuli/scenes/077a.jpg,lure,dist2,dist1,target,0,1,1,1,0,52,52,23,,,,,1134.2706174040213,None,1134.2706174040213,None,1134.2706174040213,None,1134.2706174040213,None,1137.2662421632558,None,1137.2662421632558,None,1137.2662421632558,None,1137.2662421632558,None,1140.2515726047568,None,,,,,,,pilot,2022_Jun_14_1555,Hippopolis_Updating,2021.1.2,59.98716424132408,
Hippopolis,stimuli/subj_files/pilot_cityA.csv,./stimuli/frankfurt.jpg,./stimuli/street_plate1.png,CSILLAG,stimuli/objects/041a.jpg,object,1,stimuli/objects/078a.jpg,stimuli/objects/078b.jpg,stimuli/objects/009b.jpg,stimuli/objects/078a.jpg,stimuli/objects/009a.jpg,lure,dist2,target,dist1,0,1,1,1,0,53,53,26,,,,,1141.2692713676952,None,1141.2692713676952,None,1141.2692713676952,None,1141.2692713676952,None,1144.2725133001804,None,1144.2725133001804,None,1144.2725133001804,None,1144.2725133001804,None,1147.255484756548,None,,,,,,,pilot,2022_Jun_14_1555,Hippopolis_Updating,2021.1.2,59.98716424132408,
Hippopolis,stimuli/subj_files/pilot_cityA.csv,./stimuli/frankfurt.jpg,./stimuli/street_plate1.png,SZŐNYEG,stimuli/objects/076a.jpg,object,2,stimuli/scenes/044a.jpg,stimuli/scenes/044b.jpg,stimuli/objects/065a.jpg,stimuli/scenes/044a.jpg,stimuli/objects/065b.jpg,lure,dist1,target,dist2,0,1,1,1,0,54,54,47,,,,,1148.2790055628866,None,1148.2790055628866,None,1148.2790055628866,None,1148.2790055628866,None,1151.2805612175725,None,1151.2805612175725,None,1151.2805612175725,None,1151.2805612175725,None,1154.2512516458519,None,,,,,,,pilot,2022_Jun_14_1555,Hippopolis_Updating,2021.1.2,59.98716424132408,
Hippopolis,stimuli/subj_files/pilot_cityA.csv,./stimuli/frankfurt.jpg,./stimuli/street_plate1.png,HARCSA,stimuli/scenes/012a.jpg,scene,0,stimuli/scenes/012a.jpg,stimuli/scenes/060a.jpg,stimuli/scenes/012b.jpg,stimuli/scenes/012a.jpg,stimuli/scenes/060b.jpg,dist1,lure,target,dist2,0,1,1,1,0,55,55,12,,,,,1155.2704709200189,None,1155.2704709200189,None,1155.2704709200189,None,1155.2704709200189,None,1158.2659650566056,None,1158.2659650566056,None,1158.2659650566056,None,1158.2659650566056,None,1161.2513776035048,None,,,,,,,pilot,2022_Jun_14_1555,Hippopolis_Updating,2021.1.2,59.98716424132408,
Hippopolis,stimuli/subj_files/pilot_cityA.csv,./stimuli/frankfurt.jpg,./stimuli/street_plate1.png,BÚJÓCSKA,stimuli/objects/007a.jpg,object,0,stimuli/objects/007a.jpg,stimuli/objects/018b.jpg,stimuli/objects/007a.jpg,stimuli/objects/007b.jpg,stimuli/objects/018a.jpg,dist2,target,lure,dist1,0,1,1,1,0,56,56,48,,,,,1162.2681598300114,None,1162.2681598300114,None,1162.2681598300114,None,1162.2681598300114,None,1165.2753590103239,None,1165.2753590103239,None,1165.2753590103239,None,1165.2753590103239,None,1168.2662583356723,None,,,,,,,pilot,2022_Jun_14_1555,Hippopolis_Updating,2021.1.2,59.98716424132408,
Hippopolis,stimuli/subj_files/pilot_cityA.csv,./stimuli/frankfurt.jpg,./stimuli/street_plate1.png,ÁLLOMÁS,stimuli/scenes/090a.jpg,scene,1,stimuli/scenes/086a.jpg,stimuli/scenes/086b.jpg,stimuli/scenes/056b.jpg,stimuli/scenes/056a.jpg,stimuli/scenes/086a.jpg,lure,dist2,dist1,target,0,1,1,1,0,57,57,34,,,,,1169.276533682365,None,1169.276533682365,None,1169.276533682365,None,1169.276533682365,None,1172.2648923946545,None,1172.2648923946545,None,1172.2648923946545,None,1172.2648923946545,None,1175.2510056397878,None,,,,,,,pilot,2022_Jun_14_1555,Hippopolis_Updating,2021.1.2,59.98716424132408,
Hippopolis,stimuli/subj_files/pilot_cityA.csv,./stimuli/frankfurt.jpg,./stimuli/street_plate1.png,SALÁTA,stimuli/scenes/068a.jpg,scene,1,stimuli/scenes/065a.jpg,stimuli/scenes/089b.jpg,stimuli/scenes/089a.jpg,stimuli/scenes/065a.jpg,stimuli/scenes/065b.jpg,dist2,dist1,target,lure,0,1,1,1,0,58,58,1,,,,,1176.270016850438,None,1176.270016850438,None,1176.270016850438,None,1176.270016850438,None,1179.2652089996263,None,1179.2652089996263,None,1179.2652089996263,None,1179.2652089996263,None,1182.2509608548135,None,,,,,,,pilot,2022_Jun_14_1555,Hippopolis_Updating,2021.1.2,59.98716424132408,
Hippopolis,stimuli/subj_files/pilot_cityA.csv,./stimuli/frankfurt.jpg,./stimuli/street_plate1.png,OROSZLÁN,stimuli/objects/040a.jpg,object,0,stimuli/objects/040a.jpg,stimuli/objects/040a.jpg,stimuli/objects/040b.jpg,stimuli/objects/097a.jpg,stimuli/objects/097b.jpg,target,lure,dist1,dist2,0,1,1,1,0,59,59,45,,,,,1183.2594709279947,None,1183.2594709279947,None,1183.2594709279947,None,1183.2594709279947,None,1186.2683224864304,None,1186.2683224864304,None,1186.2683224864304,None,1186.2683224864304,None,1189.2526878742501,None,,,,,,,pilot,2022_Jun_14_1555,Hippopolis_Updating,2021.1.2,59.98716424132408,
,,,,,,,,,,,,,,,,,,,,,,,,,,,,,,,,,,,,,,,,,,,,,,,1190.2534734769724,None,space,14.181640597060323,1190.2534734769724,None,,,,,,
