CityName,StimuliFile,CityImage,StreetSign,Cue,Image,Category,Novelty,UpdateImage,TestImage1,TestImage2,TestImage3,TestImage4,TestImage1Type,TestImage2Type,TestImage3Type,TestImage4Type,CityBlock.thisRepN,CityBlock.thisTrialN,CityBlock.thisN,CityBlock.thisIndex,LearningTrials.thisRepN,LearningTrials.thisTrialN,LearningTrials.thisN,LearningTrials.thisIndex,learning_instructions_text.started,intro_key.started,intro_key.keys,intro_key.rt,cityname_text.started,city_image.started,fx_cross.started,plate.started,city_text.started,street_text.started,fx_cross_prediction.started,plate_updating.started,city_text_updating.started,street_text_updating.started,updating_image.started,short_break_key.keys,fx_cross.stopped,short_break_text.started,short_break_key.started,short_break_key.rt,break_text.started,break_key_resp.started,break_key_resp.keys,break_key_resp.rt,end_text.started,participant,date,expName,psychopyVersion,frameRate,
,,,,,,,,,,,,,,,,,,,,,,,,,15.61936985142529,15.61936985142529,space,81.54975614324212,,,,,,,,,,,,,,,,,,,,,,pilot1,2022-10-14_15h06.43.688,Hippopolis_Updating,2022.2.2,60.04455661570678,
Hippopolis,stimuli/subj_files/pilot1_cityA.csv,./stimuli/frankfurt.jpg,./stimuli/street_plate1.png,FÜGE UTCA,stimuli/objects/109a.jpg,object,2,stimuli/scenes/104a.jpg,stimuli/scenes/104b.jpg,stimuli/objects/030b.jpg,stimuli/scenes/104a.jpg,stimuli/objects/030a.jpg,lure,dist2,target,dist1,0,0,0,0,0,0,0,9,,,,,97.2581241093576,97.2581241093576,100.22631468623877,101.2482138890773,101.2482138890773,101.2482138890773,101.2482138890773,104.23144349269569,104.23144349269569,104.23144349269569,104.23144349269569,None,,,,,,,,,,pilot1,2022-10-14_15h06.43.688,Hippopolis_Updating,2022.2.2,60.04455661570678,
Hippopolis,stimuli/subj_files/pilot1_cityA.csv,./stimuli/frankfurt.jpg,./stimuli/street_plate1.png,ZSEMLE UTCA,stimuli/objects/035a.jpg,object,2,stimuli/scenes/100a.jpg,stimuli/objects/120a.jpg,stimuli/scenes/100b.jpg,stimuli/objects/120b.jpg,stimuli/scenes/100a.jpg,dist1,lure,dist2,target,0,0,0,0,0,1,1,27,,,,,,,107.19600897841156,108.2203075978905,108.2203075978905,108.2203075978905,108.2203075978905,111.23741916939616,111.23741916939616,111.23741916939616,111.23741916939616,None,,,,,,,,,,pilot1,2022-10-14_15h06.43.688,Hippopolis_Updating,2022.2.2,60.04455661570678,
Hippopolis,stimuli/subj_files/pilot1_cityA.csv,./stimuli/frankfurt.jpg,./stimuli/street_plate1.png,FIÓK UTCA,stimuli/objects/012a.jpg,object,0,stimuli/objects/012a.jpg,stimuli/objects/012a.jpg,stimuli/objects/024b.jpg,stimuli/objects/012b.jpg,stimuli/objects/024a.jpg,target,dist2,lure,dist1,0,0,0,0,0,2,2,31,,,,,,,114.21174963377416,115.23576305992901,115.23576305992901,115.23576305992901,115.23576305992901,118.24330869689584,118.24330869689584,118.24330869689584,118.24330869689584,None,,,,,,,,,,pilot1,2022-10-14_15h06.43.688,Hippopolis_Updating,2022.2.2,60.04455661570678,
Hippopolis,stimuli/subj_files/pilot1_cityA.csv,./stimuli/frankfurt.jpg,./stimuli/street_plate1.png,KÖNYVTÁR UTCA,stimuli/objects/070a.jpg,object,0,stimuli/objects/070a.jpg,stimuli/objects/070a.jpg,stimuli/scenes/100b.jpg,stimuli/scenes/100a.jpg,stimuli/objects/070b.jpg,target,dist2,dist1,lure,0,0,0,0,0,3,3,79,,,,,,,121.2282451018691,122.25491763278842,122.25491763278842,122.25491763278842,122.25491763278842,125.2595342118293,125.2595342118293,125.2595342118293,125.2595342118293,None,,,,,,,,,,pilot1,2022-10-14_15h06.43.688,Hippopolis_Updating,2022.2.2,60.04455661570678,
Hippopolis,stimuli/subj_files/pilot1_cityA.csv,./stimuli/frankfurt.jpg,./stimuli/street_plate1.png,KÖTÉNY UTCA,stimuli/scenes/108a.jpg,scene,2,stimuli/objects/066a.jpg,stimuli/objects/072b.jpg,stimuli/objects/072a.jpg,stimuli/objects/066b.jpg,stimuli/objects/066a.jpg,dist2,dist1,lure,target,0,0,0,0,0,4,4,36,,,,,,,128.24446315318346,129.27283502183855,129.27283502183855,129.27283502183855,129.27283502183855,132.30975707806647,132.30975707806647,132.30975707806647,132.30975707806647,None,,,,,,,,,,pilot1,2022-10-14_15h06.43.688,Hippopolis_Updating,2022.2.2,60.04455661570678,
Hippopolis,stimuli/subj_files/pilot1_cityA.csv,./stimuli/frankfurt.jpg,./stimuli/street_plate1.png,TISZTÁS UTCA,stimuli/objects/021a.jpg,object,2,stimuli/scenes/029a.jpg,stimuli/objects/018b.jpg,stimuli/scenes/029b.jpg,stimuli/scenes/029a.jpg,stimuli/objects/018a.jpg,dist2,lure,target,dist1,0,0,0,0,0,5,5,67,,,,,,,135.24444418214262,136.27116678282619,136.27116678282619,136.27116678282619,136.27116678282619,139.28816359303892,139.28816359303892,139.28816359303892,139.28816359303892,None,,,,,,,,,,pilot1,2022-10-14_15h06.43.688,Hippopolis_Updating,2022.2.2,60.04455661570678,
Hippopolis,stimuli/subj_files/pilot1_cityA.csv,./stimuli/frankfurt.jpg,./stimuli/street_plate1.png,MAJORÁNNA UTCA,stimuli/objects/068a.jpg,object,0,stimuli/objects/068a.jpg,stimuli/objects/068a.jpg,stimuli/scenes/118a.jpg,stimuli/objects/068b.jpg,stimuli/scenes/118b.jpg,target,dist1,lure,dist2,0,0,0,0,0,6,6,57,,,,,,,142.24936025962234,143.28424211405218,143.28424211405218,143.28424211405218,143.28424211405218,146.27849284932017,146.27849284932017,146.27849284932017,146.27849284932017,None,,,,,,,,,,pilot1,2022-10-14_15h06.43.688,Hippopolis_Updating,2022.2.2,60.04455661570678,
Hippopolis,stimuli/subj_files/pilot1_cityA.csv,./stimuli/frankfurt.jpg,./stimuli/street_plate1.png,SZERSZÁM UTCA,stimuli/objects/037a.jpg,object,0,stimuli/objects/037a.jpg,stimuli/objects/037a.jpg,stimuli/scenes/097b.jpg,stimuli/scenes/097a.jpg,stimuli/objects/037b.jpg,target,dist2,dist1,lure,0,0,0,0,0,7,7,19,,,,,,,149.26311513967812,150.2820408102125,150.2820408102125,150.2820408102125,150.2820408102125,153.2974353171885,153.2974353171885,153.2974353171885,153.2974353171885,None,,,,,,,,,,pilot1,2022-10-14_15h06.43.688,Hippopolis_Updating,2022.2.2,60.04455661570678,
Hippopolis,stimuli/subj_files/pilot1_cityA.csv,./stimuli/frankfurt.jpg,./stimuli/street_plate1.png,TEHÉN UTCA,stimuli/objects/006a.jpg,object,1,stimuli/objects/017a.jpg,stimuli/objects/017a.jpg,stimuli/objects/017b.jpg,stimuli/scenes/113b.jpg,stimuli/scenes/113a.jpg,target,lure,dist2,dist1,0,0,0,0,0,8,8,28,,,,,,,156.2793885488063,157.29913776554167,157.29913776554167,157.29913776554167,157.29913776554167,160.3417624346912,160.3417624346912,160.3417624346912,160.3417624346912,None,,,,,,,,,,pilot1,2022-10-14_15h06.43.688,Hippopolis_Updating,2022.2.2,60.04455661570678,
Hippopolis,stimuli/subj_files/pilot1_cityA.csv,./stimuli/frankfurt.jpg,./stimuli/street_plate1.png,KOCKA UTCA,stimuli/scenes/002a.jpg,scene,0,stimuli/scenes/002a.jpg,stimuli/scenes/072a.jpg,stimuli/scenes/002b.jpg,stimuli/scenes/072b.jpg,stimuli/scenes/002a.jpg,dist1,lure,dist2,target,0,0,0,0,0,9,9,73,,,,,,,163.29553133621812,164.31931617110968,164.31931617110968,164.31931617110968,164.31931617110968,167.3323305454105,167.3323305454105,167.3323305454105,167.3323305454105,None,,,,,,,,,,pilot1,2022-10-14_15h06.43.688,Hippopolis_Updating,2022.2.2,60.04455661570678,
Hippopolis,stimuli/subj_files/pilot1_cityA.csv,./stimuli/frankfurt.jpg,./stimuli/street_plate1.png,SZIKLA UTCA,stimuli/objects/077a.jpg,object,1,stimuli/objects/072a.jpg,stimuli/scenes/017b.jpg,stimuli/objects/072a.jpg,stimuli/scenes/017a.jpg,stimuli/objects/072b.jpg,dist2,target,dist1,lure,0,0,0,0,0,10,10,1,,,,,,,170.3117677345872,171.33580230921507,171.33580230921507,171.33580230921507,171.33580230921507,174.3424227014184,174.3424227014184,174.3424227014184,174.3424227014184,None,,,,,,,,,,pilot1,2022-10-14_15h06.43.688,Hippopolis_Updating,2022.2.2,60.04455661570678,
Hippopolis,stimuli/subj_files/pilot1_cityA.csv,./stimuli/frankfurt.jpg,./stimuli/street_plate1.png,SZÖCSKE UTCA,stimuli/objects/057a.jpg,object,0,stimuli/objects/057a.jpg,stimuli/objects/057b.jpg,stimuli/objects/057a.jpg,stimuli/scenes/045b.jpg,stimuli/scenes/045a.jpg,lure,target,dist2,dist1,0,0,0,0,0,11,11,14,,,,,,,177.32203281112015,178.34910809621215,178.34910809621215,178.34910809621215,178.34910809621215,181.34941319189966,181.34941319189966,181.34941319189966,181.34941319189966,None,,,,,,,,,,pilot1,2022-10-14_15h06.43.688,Hippopolis_Updating,2022.2.2,60.04455661570678,
Hippopolis,stimuli/subj_files/pilot1_cityA.csv,./stimuli/frankfurt.jpg,./stimuli/street_plate1.png,EPER UTCA,stimuli/objects/028a.jpg,object,1,stimuli/objects/062a.jpg,stimuli/objects/062a.jpg,stimuli/objects/047b.jpg,stimuli/objects/062b.jpg,stimuli/objects/047a.jpg,target,dist2,lure,dist1,0,0,0,0,0,12,12,39,,,,,,,184.32628271356225,185.3521935902536,185.3521935902536,185.3521935902536,185.3521935902536,188.36016686074436,188.36016686074436,188.36016686074436,188.36016686074436,None,,,,,,,,,,pilot1,2022-10-14_15h06.43.688,Hippopolis_Updating,2022.2.2,60.04455661570678,
Hippopolis,stimuli/subj_files/pilot1_cityA.csv,./stimuli/frankfurt.jpg,./stimuli/street_plate1.png,MUNKA UTCA,stimuli/objects/061a.jpg,object,2,stimuli/scenes/077a.jpg,stimuli/scenes/020a.jpg,stimuli/scenes/020b.jpg,stimuli/scenes/077b.jpg,stimuli/scenes/077a.jpg,dist1,dist2,lure,target,0,0,0,0,0,13,13,25,,,,,,,191.32756126113236,192.34715839661658,192.34715839661658,192.34715839661658,192.34715839661658,195.3647405207157,195.3647405207157,195.3647405207157,195.3647405207157,None,,,,,,,,,,pilot1,2022-10-14_15h06.43.688,Hippopolis_Updating,2022.2.2,60.04455661570678,
Hippopolis,stimuli/subj_files/pilot1_cityA.csv,./stimuli/frankfurt.jpg,./stimuli/street_plate1.png,KORONG UTCA,stimuli/objects/104a.jpg,object,0,stimuli/objects/104a.jpg,stimuli/objects/076b.jpg,stimuli/objects/104a.jpg,stimuli/objects/104b.jpg,stimuli/objects/076a.jpg,dist2,target,lure,dist1,0,0,0,0,0,14,14,5,,,,,,,198.34386328421533,199.3640945609659,199.3640945609659,199.3640945609659,199.3640945609659,202.3784969560802,202.3784969560802,202.3784969560802,202.3784969560802,None,,,,,,,,,,pilot1,2022-10-14_15h06.43.688,Hippopolis_Updating,2022.2.2,60.04455661570678,
Hippopolis,stimuli/subj_files/pilot1_cityA.csv,./stimuli/frankfurt.jpg,./stimuli/street_plate1.png,KOKTÉL UTCA,stimuli/scenes/106a.jpg,scene,1,stimuli/scenes/096a.jpg,stimuli/scenes/096a.jpg,stimuli/scenes/096b.jpg,stimuli/objects/042a.jpg,stimuli/objects/042b.jpg,target,lure,dist1,dist2,0,0,0,0,0,15,15,44,,,,,,,205.35169007070363,206.37812810204923,206.37812810204923,206.37812810204923,206.37812810204923,209.39016373828053,209.39016373828053,209.39016373828053,209.39016373828053,None,,,,,,,,,,pilot1,2022-10-14_15h06.43.688,Hippopolis_Updating,2022.2.2,60.04455661570678,
Hippopolis,stimuli/subj_files/pilot1_cityA.csv,./stimuli/frankfurt.jpg,./stimuli/street_plate1.png,MOTOR UTCA,stimuli/objects/111a.jpg,object,1,stimuli/objects/100a.jpg,stimuli/objects/055a.jpg,stimuli/objects/100b.jpg,stimuli/objects/100a.jpg,stimuli/objects/055b.jpg,dist1,lure,target,dist2,0,0,0,0,0,16,16,55,,,,,,,212.3548828624189,213.38070479035378,213.38070479035378,213.38070479035378,213.38070479035378,216.41741007566452,216.41741007566452,216.41741007566452,216.41741007566452,None,,,,,,,,,,pilot1,2022-10-14_15h06.43.688,Hippopolis_Updating,2022.2.2,60.04455661570678,
Hippopolis,stimuli/subj_files/pilot1_cityA.csv,./stimuli/frankfurt.jpg,./stimuli/street_plate1.png,KULLANCS UTCA,stimuli/scenes/111a.jpg,scene,1,stimuli/scenes/084a.jpg,stimuli/scenes/084b.jpg,stimuli/scenes/084a.jpg,stimuli/objects/054a.jpg,stimuli/objects/054b.jpg,lure,target,dist1,dist2,0,0,0,0,0,17,17,68,,,,,,,219.3683774303645,220.39722700417042,220.39722700417042,220.39722700417042,220.39722700417042,223.39557618275285,223.39557618275285,223.39557618275285,223.39557618275285,None,,,,,,,,,,pilot1,2022-10-14_15h06.43.688,Hippopolis_Updating,2022.2.2,60.04455661570678,
Hippopolis,stimuli/subj_files/pilot1_cityA.csv,./stimuli/frankfurt.jpg,./stimuli/street_plate1.png,PAPRIKA UTCA,stimuli/scenes/118a.jpg,scene,0,stimuli/scenes/118a.jpg,stimuli/scenes/118a.jpg,stimuli/objects/068b.jpg,stimuli/scenes/118b.jpg,stimuli/objects/068a.jpg,target,dist2,lure,dist1,0,0,0,0,0,18,18,20,,,,,,,226.3795814346522,227.4036371577531,227.4036371577531,227.4036371577531,227.4036371577531,230.40129154734313,230.40129154734313,230.40129154734313,230.40129154734313,None,,,,,,,,,,pilot1,2022-10-14_15h06.43.688,Hippopolis_Updating,2022.2.2,60.04455661570678,
Hippopolis,stimuli/subj_files/pilot1_cityA.csv,./stimuli/frankfurt.jpg,./stimuli/street_plate1.png,KENYÉR UTCA,stimuli/scenes/071a.jpg,scene,2,stimuli/objects/055a.jpg,stimuli/objects/033b.jpg,stimuli/objects/055a.jpg,stimuli/objects/055b.jpg,stimuli/objects/033a.jpg,dist2,target,lure,dist1,0,0,0,0,0,19,19,17,,,,,,,233.3869980033487,234.41125992313027,234.41125992313027,234.41125992313027,234.41125992313027,237.4448119159788,237.4448119159788,237.4448119159788,237.4448119159788,None,,,,,,,,,,pilot1,2022-10-14_15h06.43.688,Hippopolis_Updating,2022.2.2,60.04455661570678,
Hippopolis,stimuli/subj_files/pilot1_cityA.csv,./stimuli/frankfurt.jpg,./stimuli/street_plate1.png,MÁLNA UTCA,stimuli/scenes/003a.jpg,scene,2,stimuli/objects/115a.jpg,stimuli/objects/115a.jpg,stimuli/objects/115b.jpg,stimuli/objects/086a.jpg,stimuli/objects/086b.jpg,target,lure,dist1,dist2,0,0,0,0,0,20,20,45,,,,,,,240.38945775292814,241.41633306071162,241.41633306071162,241.41633306071162,241.41633306071162,244.46152881905437,244.46152881905437,244.46152881905437,244.46152881905437,None,,,,,,,,,,pilot1,2022-10-14_15h06.43.688,Hippopolis_Updating,2022.2.2,60.04455661570678,
Hippopolis,stimuli/subj_files/pilot1_cityA.csv,./stimuli/frankfurt.jpg,./stimuli/street_plate1.png,PETREZSELYEM UTCA,stimuli/objects/090a.jpg,object,1,stimuli/objects/040a.jpg,stimuli/objects/040a.jpg,stimuli/objects/053a.jpg,stimuli/objects/053b.jpg,stimuli/objects/040b.jpg,target,dist1,dist2,lure,0,0,0,0,0,21,21,16,,,,,,,247.396853486076,248.41470027714968,248.41470027714968,248.41470027714968,248.41470027714968,251.4385460689664,251.4385460689664,251.4385460689664,251.4385460689664,None,248.41470027714968,,,,,,,,,pilot1,2022-10-14_15h06.43.688,Hippopolis_Updating,2022.2.2,60.04455661570678,
Hippopolis,stimuli/subj_files/pilot1_cityA.csv,./stimuli/frankfurt.jpg,./stimuli/street_plate1.png,EGÉR UTCA,stimuli/objects/013a.jpg,object,1,stimuli/objects/080a.jpg,stimuli/scenes/070a.jpg,stimuli/objects/080a.jpg,stimuli/objects/080b.jpg,stimuli/scenes/070b.jpg,dist1,target,lure,dist2,0,0,0,0,0,22,22,34,,,,,,,254.40736177004874,255.42919130809605,255.42919130809605,255.42919130809605,255.42919130809605,258.45456445403397,258.45456445403397,258.45456445403397,258.45456445403397,None,,,,,,,,,,pilot1,2022-10-14_15h06.43.688,Hippopolis_Updating,2022.2.2,60.04455661570678,
Hippopolis,stimuli/subj_files/pilot1_cityA.csv,./stimuli/frankfurt.jpg,./stimuli/street_plate1.png,POLIP UTCA,stimuli/objects/039a.jpg,object,0,stimuli/objects/039a.jpg,stimuli/objects/101a.jpg,stimuli/objects/039b.jpg,stimuli/objects/101b.jpg,stimuli/objects/039a.jpg,dist1,lure,dist2,target,0,0,0,0,0,23,23,12,,,,,,,261.4095867089927,262.4302232284099,262.4302232284099,262.4302232284099,262.4302232284099,265.43630433641374,265.43630433641374,265.43630433641374,265.43630433641374,None,,,,,,,,,,pilot1,2022-10-14_15h06.43.688,Hippopolis_Updating,2022.2.2,60.04455661570678,
Hippopolis,stimuli/subj_files/pilot1_cityA.csv,./stimuli/frankfurt.jpg,./stimuli/street_plate1.png,MARTINI UTCA,stimuli/scenes/069a.jpg,scene,0,stimuli/scenes/069a.jpg,stimuli/objects/065a.jpg,stimuli/scenes/069b.jpg,stimuli/scenes/069a.jpg,stimuli/objects/065b.jpg,dist1,lure,target,dist2,0,0,0,0,0,24,24,54,,,,,,,268.4106914047152,269.4296503532678,269.4296503532678,269.4296503532678,269.4296503532678,272.42945099808276,272.42945099808276,272.42945099808276,272.42945099808276,None,,,,,,,,,,pilot1,2022-10-14_15h06.43.688,Hippopolis_Updating,2022.2.2,60.04455661570678,
Hippopolis,stimuli/subj_files/pilot1_cityA.csv,./stimuli/frankfurt.jpg,./stimuli/street_plate1.png,ÁLLOMÁS UTCA,stimuli/objects/041a.jpg,object,1,stimuli/objects/022a.jpg,stimuli/objects/022b.jpg,stimuli/objects/022a.jpg,stimuli/objects/062b.jpg,stimuli/objects/062a.jpg,lure,target,dist2,dist1,0,0,0,0,0,25,25,24,,,,,,,275.4259425364435,276.4492322485894,276.4492322485894,276.4492322485894,276.4492322485894,279.4679243545979,279.4679243545979,279.4679243545979,279.4679243545979,None,,,,,,,,,,pilot1,2022-10-14_15h06.43.688,Hippopolis_Updating,2022.2.2,60.04455661570678,
Hippopolis,stimuli/subj_files/pilot1_cityA.csv,./stimuli/frankfurt.jpg,./stimuli/street_plate1.png,KIFLI UTCA,stimuli/scenes/006a.jpg,scene,0,stimuli/scenes/006a.jpg,stimuli/scenes/006a.jpg,stimuli/scenes/006b.jpg,stimuli/scenes/014b.jpg,stimuli/scenes/014a.jpg,target,lure,dist2,dist1,0,0,0,0,0,26,26,62,,,,,,,282.4281422831118,283.4472088422626,283.4472088422626,283.4472088422626,283.4472088422626,286.44871846586466,286.44871846586466,286.44871846586466,286.44871846586466,None,,,,,,,,,,pilot1,2022-10-14_15h06.43.688,Hippopolis_Updating,2022.2.2,60.04455661570678,
Hippopolis,stimuli/subj_files/pilot1_cityA.csv,./stimuli/frankfurt.jpg,./stimuli/street_plate1.png,ZSÁLYA UTCA,stimuli/objects/034a.jpg,object,2,stimuli/scenes/117a.jpg,stimuli/scenes/117b.jpg,stimuli/scenes/001b.jpg,stimuli/scenes/117a.jpg,stimuli/scenes/001a.jpg,lure,dist2,target,dist1,0,0,0,0,0,27,27,33,,,,,,,289.434184204787,290.46502359956503,290.46502359956503,290.46502359956503,290.46502359956503,293.4783328063786,293.4783328063786,293.4783328063786,293.4783328063786,None,,,,,,,,,,pilot1,2022-10-14_15h06.43.688,Hippopolis_Updating,2022.2.2,60.04455661570678,
Hippopolis,stimuli/subj_files/pilot1_cityA.csv,./stimuli/frankfurt.jpg,./stimuli/street_plate1.png,BONBON UTCA,stimuli/scenes/022a.jpg,scene,0,stimuli/scenes/022a.jpg,stimuli/scenes/022a.jpg,stimuli/scenes/022b.jpg,stimuli/scenes/018a.jpg,stimuli/scenes/018b.jpg,target,lure,dist1,dist2,0,0,0,0,0,28,28,43,,,,,,,296.44562270864844,297.4676441382617,297.4676441382617,297.4676441382617,297.4676441382617,300.4739482384175,300.4739482384175,300.4739482384175,300.4739482384175,None,297.4676441382617,,,,,,,,,pilot1,2022-10-14_15h06.43.688,Hippopolis_Updating,2022.2.2,60.04455661570678,
Hippopolis,stimuli/subj_files/pilot1_cityA.csv,./stimuli/frankfurt.jpg,./stimuli/street_plate1.png,TÁBLA UTCA,stimuli/objects/118a.jpg,object,1,stimuli/objects/042a.jpg,stimuli/scenes/084a.jpg,stimuli/scenes/084b.jpg,stimuli/objects/042a.jpg,stimuli/objects/042b.jpg,dist1,dist2,target,lure,0,0,0,0,0,29,29,78,,,,,,,303.45793016441166,304.4867682326585,304.4867682326585,304.4867682326585,304.4867682326585,307.49645670317113,307.49645670317113,307.49645670317113,307.49645670317113,None,,,,,,,,,,pilot1,2022-10-14_15h06.43.688,Hippopolis_Updating,2022.2.2,60.04455661570678,
Hippopolis,stimuli/subj_files/pilot1_cityA.csv,./stimuli/frankfurt.jpg,./stimuli/street_plate1.png,BÚJÓCSKA UTCA,stimuli/objects/025a.jpg,object,2,stimuli/scenes/001a.jpg,stimuli/scenes/096b.jpg,stimuli/scenes/001a.jpg,stimuli/scenes/096a.jpg,stimuli/scenes/001b.jpg,dist2,target,dist1,lure,0,0,0,0,0,30,30,7,,,,,,,310.45985653810203,311.488052688539,311.488052688539,311.488052688539,311.488052688539,314.5198011547327,314.5198011547327,314.5198011547327,314.5198011547327,None,,,,,,,,,,pilot1,2022-10-14_15h06.43.688,Hippopolis_Updating,2022.2.2,60.04455661570678,
Hippopolis,stimuli/subj_files/pilot1_cityA.csv,./stimuli/frankfurt.jpg,./stimuli/street_plate1.png,OROSZLÁN UTCA,stimuli/scenes/054a.jpg,scene,2,stimuli/objects/014a.jpg,stimuli/objects/099a.jpg,stimuli/objects/099b.jpg,stimuli/objects/014b.jpg,stimuli/objects/014a.jpg,dist1,dist2,lure,target,0,0,0,0,0,31,31,52,,,,,,,317.4765336345881,318.5006982088089,318.5006982088089,318.5006982088089,318.5006982088089,321.5258863065392,321.5258863065392,321.5258863065392,321.5258863065392,None,,,,,,,,,,pilot1,2022-10-14_15h06.43.688,Hippopolis_Updating,2022.2.2,60.04455661570678,
Hippopolis,stimuli/subj_files/pilot1_cityA.csv,./stimuli/frankfurt.jpg,./stimuli/street_plate1.png,PÉKSÉG UTCA,stimuli/objects/030a.jpg,object,0,stimuli/objects/030a.jpg,stimuli/objects/030a.jpg,stimuli/objects/073a.jpg,stimuli/objects/030b.jpg,stimuli/objects/073b.jpg,target,dist1,lure,dist2,0,0,0,0,0,32,32,48,,,,,,,324.478918120265,325.5134118385613,325.5134118385613,325.5134118385613,325.5134118385613,328.50971272960305,328.50971272960305,328.50971272960305,328.50971272960305,None,,,,,,,,,,pilot1,2022-10-14_15h06.43.688,Hippopolis_Updating,2022.2.2,60.04455661570678,
Hippopolis,stimuli/subj_files/pilot1_cityA.csv,./stimuli/frankfurt.jpg,./stimuli/street_plate1.png,RIBIZLI UTCA,stimuli/scenes/017a.jpg,scene,0,stimuli/scenes/017a.jpg,stimuli/scenes/068b.jpg,stimuli/scenes/017a.jpg,stimuli/scenes/068a.jpg,stimuli/scenes/017b.jpg,dist2,target,dist1,lure,0,0,0,0,0,33,33,37,,,,,,,331.49548698589206,332.5225632023066,332.5225632023066,332.5225632023066,332.5225632023066,335.51802406460047,335.51802406460047,335.51802406460047,335.51802406460047,None,,,,,,,,,,pilot1,2022-10-14_15h06.43.688,Hippopolis_Updating,2022.2.2,60.04455661570678,
Hippopolis,stimuli/subj_files/pilot1_cityA.csv,./stimuli/frankfurt.jpg,./stimuli/street_plate1.png,NARANCS UTCA,stimuli/scenes/103a.jpg,scene,2,stimuli/objects/097a.jpg,stimuli/objects/097b.jpg,stimuli/objects/046a.jpg,stimuli/objects/046b.jpg,stimuli/objects/097a.jpg,lure,dist1,dist2,target,0,0,0,0,0,34,34,13,,,,,,,338.500302920118,339.5313152335584,339.5313152335584,339.5313152335584,339.5313152335584,342.54008872434497,342.54008872434497,342.54008872434497,342.54008872434497,None,,,,,,,,,,pilot1,2022-10-14_15h06.43.688,Hippopolis_Updating,2022.2.2,60.04455661570678,
Hippopolis,stimuli/subj_files/pilot1_cityA.csv,./stimuli/frankfurt.jpg,./stimuli/street_plate1.png,HARMONIKA UTCA,stimuli/scenes/028a.jpg,scene,2,stimuli/objects/099a.jpg,stimuli/objects/099a.jpg,stimuli/objects/015b.jpg,stimuli/objects/015a.jpg,stimuli/objects/099b.jpg,target,dist2,dist1,lure,0,0,0,0,0,35,35,63,,,,,,,345.50873741321266,346.53442405350506,346.53442405350506,346.53442405350506,346.53442405350506,349.53844754211605,349.53844754211605,349.53844754211605,349.53844754211605,None,,,,,,,,,,pilot1,2022-10-14_15h06.43.688,Hippopolis_Updating,2022.2.2,60.04455661570678,
Hippopolis,stimuli/subj_files/pilot1_cityA.csv,./stimuli/frankfurt.jpg,./stimuli/street_plate1.png,POHÁR UTCA,stimuli/scenes/062a.jpg,scene,1,stimuli/scenes/064a.jpg,stimuli/scenes/064a.jpg,stimuli/scenes/006b.jpg,stimuli/scenes/006a.jpg,stimuli/scenes/064b.jpg,target,dist2,dist1,lure,0,0,0,0,0,36,36,38,,,,,,,352.5104526132345,353.5291733313352,353.5291733313352,353.5291733313352,353.5291733313352,356.54817364551127,356.54817364551127,356.54817364551127,356.54817364551127,None,,,,,,,,,,pilot1,2022-10-14_15h06.43.688,Hippopolis_Updating,2022.2.2,60.04455661570678,
Hippopolis,stimuli/subj_files/pilot1_cityA.csv,./stimuli/frankfurt.jpg,./stimuli/street_plate1.png,PAPAGÁJ UTCA,stimuli/scenes/023a.jpg,scene,1,stimuli/scenes/113a.jpg,stimuli/objects/070b.jpg,stimuli/scenes/113b.jpg,stimuli/objects/070a.jpg,stimuli/scenes/113a.jpg,dist2,lure,dist1,target,0,0,0,0,0,37,37,53,,,,,,,359.5227644238621,360.5482165645808,360.5482165645808,360.5482165645808,360.5482165645808,363.57643261924386,363.57643261924386,363.57643261924386,363.57643261924386,None,,,,,,,,,,pilot1,2022-10-14_15h06.43.688,Hippopolis_Updating,2022.2.2,60.04455661570678,
Hippopolis,stimuli/subj_files/pilot1_cityA.csv,./stimuli/frankfurt.jpg,./stimuli/street_plate1.png,TELEFON UTCA,stimuli/objects/102a.jpg,object,2,stimuli/scenes/004a.jpg,stimuli/objects/057a.jpg,stimuli/scenes/004b.jpg,stimuli/scenes/004a.jpg,stimuli/objects/057b.jpg,dist1,lure,target,dist2,0,0,0,0,0,38,38,66,,,,,,,366.5266815498471,367.556693976745,367.556693976745,367.556693976745,367.556693976745,370.55986499786377,370.55986499786377,370.55986499786377,370.55986499786377,None,,,,,,,,,,pilot1,2022-10-14_15h06.43.688,Hippopolis_Updating,2022.2.2,60.04455661570678,
Hippopolis,stimuli/subj_files/pilot1_cityA.csv,./stimuli/frankfurt.jpg,./stimuli/street_plate1.png,TORONY UTCA,stimuli/scenes/059a.jpg,scene,2,stimuli/objects/120a.jpg,stimuli/scenes/104b.jpg,stimuli/objects/120b.jpg,stimuli/scenes/104a.jpg,stimuli/objects/120a.jpg,dist2,lure,dist1,target,0,0,0,0,0,39,39,6,,,,,,,373.52820921316743,374.54851046577096,374.54851046577096,374.54851046577096,374.54851046577096,377.6334083676338,377.6334083676338,377.6334083676338,377.6334083676338,None,374.54851046577096,,,,,,,,,pilot1,2022-10-14_15h06.43.688,Hippopolis_Updating,2022.2.2,60.04455661570678,
Hippopolis,stimuli/subj_files/pilot1_cityA.csv,./stimuli/frankfurt.jpg,./stimuli/street_plate1.png,POGÁCSA UTCA,stimuli/objects/093a.jpg,object,1,stimuli/objects/018a.jpg,stimuli/scenes/064a.jpg,stimuli/scenes/064b.jpg,stimuli/objects/018b.jpg,stimuli/objects/018a.jpg,dist1,dist2,lure,target,0,0,0,0,0,40,40,10,,,,,,,380.5443019270897,381.5739088021219,381.5739088021219,381.5739088021219,381.5739088021219,384.5801846012473,384.5801846012473,384.5801846012473,384.5801846012473,None,,,,,,,,,,pilot1,2022-10-14_15h06.43.688,Hippopolis_Updating,2022.2.2,60.04455661570678,
Hippopolis,stimuli/subj_files/pilot1_cityA.csv,./stimuli/frankfurt.jpg,./stimuli/street_plate1.png,KABÁT UTCA,stimuli/scenes/032a.jpg,scene,1,stimuli/scenes/105a.jpg,stimuli/scenes/105a.jpg,stimuli/scenes/024b.jpg,stimuli/scenes/024a.jpg,stimuli/scenes/105b.jpg,target,dist2,dist1,lure,0,0,0,0,0,41,41,50,,,,,,,387.5528511814773,388.5781680345535,388.5781680345535,388.5781680345535,388.5781680345535,391.5917817186564,391.5917817186564,391.5917817186564,391.5917817186564,None,,,,,,,,,,pilot1,2022-10-14_15h06.43.688,Hippopolis_Updating,2022.2.2,60.04455661570678,
Hippopolis,stimuli/subj_files/pilot1_cityA.csv,./stimuli/frankfurt.jpg,./stimuli/street_plate1.png,SIVATAG UTCA,stimuli/scenes/085a.jpg,scene,2,stimuli/objects/038a.jpg,stimuli/objects/012b.jpg,stimuli/objects/038a.jpg,stimuli/objects/038b.jpg,stimuli/objects/012a.jpg,dist2,target,lure,dist1,0,0,0,0,0,42,42,35,,,,,,,394.56048296764493,395.57932622358203,395.57932622358203,395.57932622358203,395.57932622358203,398.60123817808926,398.60123817808926,398.60123817808926,398.60123817808926,None,395.57932622358203,,,,,,,,,pilot1,2022-10-14_15h06.43.688,Hippopolis_Updating,2022.2.2,60.04455661570678,
Hippopolis,stimuli/subj_files/pilot1_cityA.csv,./stimuli/frankfurt.jpg,./stimuli/street_plate1.png,FOGÓ UTCA,stimuli/scenes/072a.jpg,scene,0,stimuli/scenes/072a.jpg,stimuli/scenes/072b.jpg,stimuli/scenes/072a.jpg,stimuli/objects/104b.jpg,stimuli/objects/104a.jpg,lure,target,dist2,dist1,0,0,0,0,0,43,43,70,,,,,,,401.5753416083753,402.5983734987676,402.5983734987676,402.5983734987676,402.5983734987676,405.60631193593144,405.60631193593144,405.60631193593144,405.60631193593144,None,,,,,,,,,,pilot1,2022-10-14_15h06.43.688,Hippopolis_Updating,2022.2.2,60.04455661570678,
Hippopolis,stimuli/subj_files/pilot1_cityA.csv,./stimuli/frankfurt.jpg,./stimuli/street_plate1.png,KIRAKÓ UTCA,stimuli/scenes/021a.jpg,scene,1,stimuli/scenes/020a.jpg,stimuli/objects/022b.jpg,stimuli/objects/022a.jpg,stimuli/scenes/020a.jpg,stimuli/scenes/020b.jpg,dist2,dist1,target,lure,0,0,0,0,0,44,44,59,,,,,,,408.5908894408494,409.61618763394654,409.61618763394654,409.61618763394654,409.61618763394654,412.62566151097417,412.62566151097417,412.62566151097417,412.62566151097417,space,,415.5982730425894,415.5982730425894,12.766718557104468,,,,,,pilot1,2022-10-14_15h06.43.688,Hippopolis_Updating,2022.2.2,60.04455661570678,
Hippopolis,stimuli/subj_files/pilot1_cityA.csv,./stimuli/frankfurt.jpg,./stimuli/street_plate1.png,ÁLOM UTCA,stimuli/scenes/031a.jpg,scene,1,stimuli/scenes/114a.jpg,stimuli/scenes/114b.jpg,stimuli/scenes/080b.jpg,stimuli/scenes/114a.jpg,stimuli/scenes/080a.jpg,lure,dist2,target,dist1,0,0,0,0,0,45,45,15,,,,,,,428.3881785850972,429.4159153793007,429.4159153793007,429.4159153793007,429.4159153793007,432.4390306174755,432.4390306174755,432.4390306174755,432.4390306174755,None,,,,,,,,,,pilot1,2022-10-14_15h06.43.688,Hippopolis_Updating,2022.2.2,60.04455661570678,
Hippopolis,stimuli/subj_files/pilot1_cityA.csv,./stimuli/frankfurt.jpg,./stimuli/street_plate1.png,KERET UTCA,stimuli/objects/046a.jpg,object,0,stimuli/objects/046a.jpg,stimuli/objects/046b.jpg,stimuli/scenes/022b.jpg,stimuli/scenes/022a.jpg,stimuli/objects/046a.jpg,lure,dist2,dist1,target,0,0,0,0,0,46,46,29,,,,,,,435.4027022719383,436.4293996822089,436.4293996822089,436.4293996822089,436.4293996822089,439.4326353929937,439.4326353929937,439.4326353929937,439.4326353929937,None,,,,,,,,,,pilot1,2022-10-14_15h06.43.688,Hippopolis_Updating,2022.2.2,60.04455661570678,
Hippopolis,stimuli/subj_files/pilot1_cityA.csv,./stimuli/frankfurt.jpg,./stimuli/street_plate1.png,SZILVA UTCA,stimuli/objects/059a.jpg,object,2,stimuli/scenes/070a.jpg,stimuli/scenes/114b.jpg,stimuli/scenes/070a.jpg,stimuli/scenes/070b.jpg,stimuli/scenes/114a.jpg,dist2,target,lure,dist1,0,0,0,0,0,47,47,71,,,,,,,442.40789856761694,443.42790218628943,443.42790218628943,443.42790218628943,443.42790218628943,446.452120564878,446.452120564878,446.452120564878,446.452120564878,None,,,,,,,,,,pilot1,2022-10-14_15h06.43.688,Hippopolis_Updating,2022.2.2,60.04455661570678,
Hippopolis,stimuli/subj_files/pilot1_cityA.csv,./stimuli/frankfurt.jpg,./stimuli/street_plate1.png,DOBOZ UTCA,stimuli/scenes/030a.jpg,scene,1,stimuli/scenes/060a.jpg,stimuli/scenes/051a.jpg,stimuli/scenes/060b.jpg,stimuli/scenes/060a.jpg,stimuli/scenes/051b.jpg,dist1,lure,target,dist2,0,0,0,0,0,48,48,21,,,,,,,449.4120346400887,450.4482802581042,450.4482802581042,450.4482802581042,450.4482802581042,453.4611783158034,453.4611783158034,453.4611783158034,453.4611783158034,None,,,,,,,,,,pilot1,2022-10-14_15h06.43.688,Hippopolis_Updating,2022.2.2,60.04455661570678,
Hippopolis,stimuli/subj_files/pilot1_cityA.csv,./stimuli/frankfurt.jpg,./stimuli/street_plate1.png,MENTA UTCA,stimuli/objects/088a.jpg,object,1,stimuli/objects/054a.jpg,stimuli/scenes/088b.jpg,stimuli/scenes/088a.jpg,stimuli/objects/054b.jpg,stimuli/objects/054a.jpg,dist2,dist1,lure,target,0,0,0,0,0,49,49,26,,,,,,,456.4231770671904,457.44495839998126,457.44495839998126,457.44495839998126,457.44495839998126,460.46173004060984,460.46173004060984,460.46173004060984,460.46173004060984,None,,,,,,,,,,pilot1,2022-10-14_15h06.43.688,Hippopolis_Updating,2022.2.2,60.04455661570678,
Hippopolis,stimuli/subj_files/pilot1_cityA.csv,./stimuli/frankfurt.jpg,./stimuli/street_plate1.png,LOVAGLÁS UTCA,stimuli/objects/110a.jpg,object,1,stimuli/objects/010a.jpg,stimuli/objects/010b.jpg,stimuli/scenes/007a.jpg,stimuli/objects/010a.jpg,stimuli/scenes/007b.jpg,lure,dist1,target,dist2,0,0,0,0,0,50,50,22,,,,,,,463.4245579354465,464.4448395948857,464.4448395948857,464.4448395948857,464.4448395948857,467.4702820945531,467.4702820945531,467.4702820945531,467.4702820945531,None,,,,,,,,,,pilot1,2022-10-14_15h06.43.688,Hippopolis_Updating,2022.2.2,60.04455661570678,
Hippopolis,stimuli/subj_files/pilot1_cityA.csv,./stimuli/frankfurt.jpg,./stimuli/street_plate1.png,TÉRKÉP UTCA,stimuli/scenes/061a.jpg,scene,2,stimuli/objects/065a.jpg,stimuli/objects/065a.jpg,stimuli/scenes/060b.jpg,stimuli/scenes/060a.jpg,stimuli/objects/065b.jpg,target,dist2,dist1,lure,0,0,0,0,0,51,51,72,,,,,,,470.4288933649659,471.46319146081805,471.46319146081805,471.46319146081805,471.46319146081805,474.4621654506773,474.4621654506773,474.4621654506773,474.4621654506773,None,,,,,,,,,,pilot1,2022-10-14_15h06.43.688,Hippopolis_Updating,2022.2.2,60.04455661570678,
Hippopolis,stimuli/subj_files/pilot1_cityA.csv,./stimuli/frankfurt.jpg,./stimuli/street_plate1.png,DARU UTCA,stimuli/scenes/035a.jpg,scene,1,stimuli/scenes/080a.jpg,stimuli/scenes/080b.jpg,stimuli/objects/010b.jpg,stimuli/objects/010a.jpg,stimuli/scenes/080a.jpg,lure,dist2,dist1,target,0,0,0,0,0,52,52,41,,,,,,,477.44107455201447,478.4601317793131,478.4601317793131,478.4601317793131,478.4601317793131,481.4965481404215,481.4965481404215,481.4965481404215,481.4965481404215,None,,,,,,,,,,pilot1,2022-10-14_15h06.43.688,Hippopolis_Updating,2022.2.2,60.04455661570678,
Hippopolis,stimuli/subj_files/pilot1_cityA.csv,./stimuli/frankfurt.jpg,./stimuli/street_plate1.png,LEPKE UTCA,stimuli/scenes/046a.jpg,scene,0,stimuli/scenes/046a.jpg,stimuli/scenes/094a.jpg,stimuli/scenes/046a.jpg,stimuli/scenes/046b.jpg,stimuli/scenes/094b.jpg,dist1,target,lure,dist2,0,0,0,0,0,53,53,61,,,,,,,484.4577137045562,485.4774411506951,485.4774411506951,485.4774411506951,485.4774411506951,488.49029846675694,488.49029846675694,488.49029846675694,488.49029846675694,None,,,,,,,,,,pilot1,2022-10-14_15h06.43.688,Hippopolis_Updating,2022.2.2,60.04455661570678,
Hippopolis,stimuli/subj_files/pilot1_cityA.csv,./stimuli/frankfurt.jpg,./stimuli/street_plate1.png,TENISZ UTCA,stimuli/objects/089a.jpg,object,2,stimuli/scenes/120a.jpg,stimuli/objects/040a.jpg,stimuli/objects/040b.jpg,stimuli/scenes/120b.jpg,stimuli/scenes/120a.jpg,dist1,dist2,lure,target,0,0,0,0,0,54,54,0,,,,,,,491.46573020517826,492.4849127680063,492.4849127680063,492.4849127680063,492.4849127680063,495.51471713371575,495.51471713371575,495.51471713371575,495.51471713371575,None,492.4849127680063,,,,,,,,,pilot1,2022-10-14_15h06.43.688,Hippopolis_Updating,2022.2.2,60.04455661570678,
Hippopolis,stimuli/subj_files/pilot1_cityA.csv,./stimuli/frankfurt.jpg,./stimuli/street_plate1.png,TETŐ UTCA,stimuli/scenes/067a.jpg,scene,2,stimuli/objects/047a.jpg,stimuli/objects/047a.jpg,stimuli/objects/047b.jpg,stimuli/objects/097b.jpg,stimuli/objects/097a.jpg,target,lure,dist2,dist1,0,0,0,0,0,55,55,8,,,,,,,498.4769478943199,499.51177625730634,499.51177625730634,499.51177625730634,499.51177625730634,502.50559904798865,502.50559904798865,502.50559904798865,502.50559904798865,None,,,,,,,,,,pilot1,2022-10-14_15h06.43.688,Hippopolis_Updating,2022.2.2,60.04455661570678,
Hippopolis,stimuli/subj_files/pilot1_cityA.csv,./stimuli/frankfurt.jpg,./stimuli/street_plate1.png,PADLÓ UTCA,stimuli/objects/053a.jpg,object,0,stimuli/objects/053a.jpg,stimuli/objects/053a.jpg,stimuli/objects/053b.jpg,stimuli/objects/064b.jpg,stimuli/objects/064a.jpg,target,lure,dist2,dist1,0,0,0,0,0,56,56,74,,,,,,,505.4901482500136,506.5101434737444,506.5101434737444,506.5101434737444,506.5101434737444,509.533913070336,509.533913070336,509.533913070336,509.533913070336,None,,,,,,,,,,pilot1,2022-10-14_15h06.43.688,Hippopolis_Updating,2022.2.2,60.04455661570678,
Hippopolis,stimuli/subj_files/pilot1_cityA.csv,./stimuli/frankfurt.jpg,./stimuli/street_plate1.png,TOLLTARTÓ UTCA,stimuli/objects/117a.jpg,object,2,stimuli/scenes/045a.jpg,stimuli/scenes/045b.jpg,stimuli/scenes/120b.jpg,stimuli/scenes/045a.jpg,stimuli/scenes/120a.jpg,lure,dist2,target,dist1,0,0,0,0,0,57,57,58,,,,,,,512.5026799421757,513.5273284427822,513.5273284427822,513.5273284427822,513.5273284427822,516.5290902927518,516.5290902927518,516.5290902927518,516.5290902927518,None,,,,,,,,,,pilot1,2022-10-14_15h06.43.688,Hippopolis_Updating,2022.2.2,60.04455661570678,
Hippopolis,stimuli/subj_files/pilot1_cityA.csv,./stimuli/frankfurt.jpg,./stimuli/street_plate1.png,TÖLCSÉR UTCA,stimuli/scenes/068a.jpg,scene,0,stimuli/scenes/068a.jpg,stimuli/objects/039a.jpg,stimuli/scenes/068a.jpg,stimuli/scenes/068b.jpg,stimuli/objects/039b.jpg,dist1,target,lure,dist2,0,0,0,0,0,58,58,46,,,,,,,519.5055670142174,520.5266743954271,520.5266743954271,520.5266743954271,520.5266743954271,523.519507875666,523.519507875666,523.519507875666,523.519507875666,None,,,,,,,,,,pilot1,2022-10-14_15h06.43.688,Hippopolis_Updating,2022.2.2,60.04455661570678,
Hippopolis,stimuli/subj_files/pilot1_cityA.csv,./stimuli/frankfurt.jpg,./stimuli/street_plate1.png,MANDARIN UTCA,stimuli/scenes/047a.jpg,scene,1,stimuli/scenes/024a.jpg,stimuli/scenes/024a.jpg,stimuli/scenes/024b.jpg,stimuli/scenes/069a.jpg,stimuli/scenes/069b.jpg,target,lure,dist1,dist2,0,0,0,0,0,59,59,60,,,,,,,526.5065214931965,527.5276518892497,527.5276518892497,527.5276518892497,527.5276518892497,530.5517573729157,530.5517573729157,530.5517573729157,530.5517573729157,None,,,,,,,,,,pilot1,2022-10-14_15h06.43.688,Hippopolis_Updating,2022.2.2,60.04455661570678,
Hippopolis,stimuli/subj_files/pilot1_cityA.csv,./stimuli/frankfurt.jpg,./stimuli/street_plate1.png,GYŰRŰ UTCA,stimuli/scenes/007a.jpg,scene,0,stimuli/scenes/007a.jpg,stimuli/scenes/076a.jpg,stimuli/scenes/007b.jpg,stimuli/scenes/007a.jpg,stimuli/scenes/076b.jpg,dist1,lure,target,dist2,0,0,0,0,0,60,60,76,,,,,,,533.5174129363149,534.5458392314613,534.5458392314613,534.5458392314613,534.5458392314613,537.5360512379557,537.5360512379557,537.5360512379557,537.5360512379557,None,,,,,,,,,,pilot1,2022-10-14_15h06.43.688,Hippopolis_Updating,2022.2.2,60.04455661570678,
Hippopolis,stimuli/subj_files/pilot1_cityA.csv,./stimuli/frankfurt.jpg,./stimuli/street_plate1.png,ÁRNYÉK UTCA,stimuli/scenes/088a.jpg,scene,0,stimuli/scenes/088a.jpg,stimuli/scenes/088a.jpg,stimuli/objects/038a.jpg,stimuli/objects/038b.jpg,stimuli/scenes/088b.jpg,target,dist1,dist2,lure,0,0,0,0,0,61,61,42,,,,,,,540.5325642339885,541.5639385599643,541.5639385599643,541.5639385599643,541.5639385599643,544.5635793469846,544.5635793469846,544.5635793469846,544.5635793469846,None,,,,,,,,,,pilot1,2022-10-14_15h06.43.688,Hippopolis_Updating,2022.2.2,60.04455661570678,
Hippopolis,stimuli/subj_files/pilot1_cityA.csv,./stimuli/frankfurt.jpg,./stimuli/street_plate1.png,SÜTEMÉNY UTCA,stimuli/scenes/043a.jpg,scene,2,stimuli/objects/033a.jpg,stimuli/objects/033b.jpg,stimuli/scenes/026a.jpg,stimuli/scenes/026b.jpg,stimuli/objects/033a.jpg,lure,dist1,dist2,target,0,0,0,0,0,62,62,2,,,,,,,547.539697477594,548.5596619099379,548.5596619099379,548.5596619099379,548.5596619099379,551.5889120623469,551.5889120623469,551.5889120623469,551.5889120623469,None,,,,,,,,,,pilot1,2022-10-14_15h06.43.688,Hippopolis_Updating,2022.2.2,60.04455661570678,
Hippopolis,stimuli/subj_files/pilot1_cityA.csv,./stimuli/frankfurt.jpg,./stimuli/street_plate1.png,ASZTAL UTCA,stimuli/objects/016a.jpg,object,0,stimuli/objects/016a.jpg,stimuli/objects/016a.jpg,stimuli/scenes/046b.jpg,stimuli/scenes/046a.jpg,stimuli/objects/016b.jpg,target,dist2,dist1,lure,0,0,0,0,0,63,63,56,,,,,,,554.5519850291312,555.5772689152509,555.5772689152509,555.5772689152509,555.5772689152509,558.5793367978185,558.5793367978185,558.5793367978185,558.5793367978185,None,,,,,,,,,,pilot1,2022-10-14_15h06.43.688,Hippopolis_Updating,2022.2.2,60.04455661570678,
Hippopolis,stimuli/subj_files/pilot1_cityA.csv,./stimuli/frankfurt.jpg,./stimuli/street_plate1.png,VÁSÁR UTCA,stimuli/objects/060a.jpg,object,1,stimuli/objects/076a.jpg,stimuli/objects/076b.jpg,stimuli/objects/076a.jpg,stimuli/objects/080b.jpg,stimuli/objects/080a.jpg,lure,target,dist2,dist1,0,0,0,0,0,64,64,40,,,,,,,561.5585898719728,562.5813499409705,562.5813499409705,562.5813499409705,562.5813499409705,565.5850275922567,565.5850275922567,565.5850275922567,565.5850275922567,None,,,,,,,,,,pilot1,2022-10-14_15h06.43.688,Hippopolis_Updating,2022.2.2,60.04455661570678,
Hippopolis,stimuli/subj_files/pilot1_cityA.csv,./stimuli/frankfurt.jpg,./stimuli/street_plate1.png,BICIKLI UTCA,stimuli/objects/027a.jpg,object,2,stimuli/scenes/026a.jpg,stimuli/scenes/029b.jpg,stimuli/scenes/026b.jpg,stimuli/scenes/029a.jpg,stimuli/scenes/026a.jpg,dist2,lure,dist1,target,0,0,0,0,0,65,65,47,,,,,,,568.5723879821599,569.5913730561733,569.5913730561733,569.5913730561733,569.5913730561733,572.6027095504105,572.6027095504105,572.6027095504105,572.6027095504105,None,,,,,,,,,,pilot1,2022-10-14_15h06.43.688,Hippopolis_Updating,2022.2.2,60.04455661570678,
Hippopolis,stimuli/subj_files/pilot1_cityA.csv,./stimuli/frankfurt.jpg,./stimuli/street_plate1.png,KECSKE UTCA,stimuli/objects/011a.jpg,object,1,stimuli/objects/086a.jpg,stimuli/objects/086b.jpg,stimuli/objects/066a.jpg,stimuli/objects/086a.jpg,stimuli/objects/066b.jpg,lure,dist1,target,dist2,0,0,0,0,0,66,66,64,,,,,,,575.5803649835289,576.614550806582,576.614550806582,576.614550806582,576.614550806582,579.612676370889,579.612676370889,579.612676370889,579.612676370889,None,,,,,,,,,,pilot1,2022-10-14_15h06.43.688,Hippopolis_Updating,2022.2.2,60.04455661570678,
Hippopolis,stimuli/subj_files/pilot1_cityA.csv,./stimuli/frankfurt.jpg,./stimuli/street_plate1.png,KESELYŰ UTCA,stimuli/scenes/027a.jpg,scene,2,stimuli/objects/101a.jpg,stimuli/scenes/044a.jpg,stimuli/objects/101a.jpg,stimuli/objects/101b.jpg,stimuli/scenes/044b.jpg,dist1,target,lure,dist2,0,0,0,0,0,67,67,4,,,,,,,582.5927041620016,583.6120926123112,583.6120926123112,583.6120926123112,583.6120926123112,586.6408579051495,586.6408579051495,586.6408579051495,586.6408579051495,None,583.6120926123112,,,,,,,,,pilot1,2022-10-14_15h06.43.688,Hippopolis_Updating,2022.2.2,60.04455661570678,
Hippopolis,stimuli/subj_files/pilot1_cityA.csv,./stimuli/frankfurt.jpg,./stimuli/street_plate1.png,KULACS UTCA,stimuli/objects/045a.jpg,object,1,stimuli/objects/073a.jpg,stimuli/objects/073a.jpg,stimuli/objects/073b.jpg,stimuli/scenes/002a.jpg,stimuli/scenes/002b.jpg,target,lure,dist1,dist2,0,0,0,0,0,68,68,51,,,,,,,589.6053829602897,590.6310515627265,590.6310515627265,590.6310515627265,590.6310515627265,593.6367367580533,593.6367367580533,593.6367367580533,593.6367367580533,None,,,,,,,,,,pilot1,2022-10-14_15h06.43.688,Hippopolis_Updating,2022.2.2,60.04455661570678,
Hippopolis,stimuli/subj_files/pilot1_cityA.csv,./stimuli/frankfurt.jpg,./stimuli/street_plate1.png,FECSKE UTCA,stimuli/objects/106a.jpg,object,2,stimuli/scenes/051a.jpg,stimuli/scenes/116b.jpg,stimuli/scenes/051b.jpg,stimuli/scenes/116a.jpg,stimuli/scenes/051a.jpg,dist2,lure,dist1,target,0,0,0,0,0,69,69,49,,,,,,,596.6176714450121,597.6386534906924,597.6386534906924,597.6386534906924,597.6386534906924,600.6458461359143,600.6458461359143,600.6458461359143,600.6458461359143,None,597.6386534906924,,,,,,,,,pilot1,2022-10-14_15h06.43.688,Hippopolis_Updating,2022.2.2,60.04455661570678,
Hippopolis,stimuli/subj_files/pilot1_cityA.csv,./stimuli/frankfurt.jpg,./stimuli/street_plate1.png,LÁNDZSA UTCA,stimuli/scenes/041a.jpg,scene,1,stimuli/scenes/116a.jpg,stimuli/scenes/116b.jpg,stimuli/scenes/116a.jpg,stimuli/objects/100a.jpg,stimuli/objects/100b.jpg,lure,target,dist1,dist2,0,0,0,0,0,70,70,32,,,,,,,603.6272579059005,604.6605268809944,604.6605268809944,604.6605268809944,604.6605268809944,607.6843403298408,607.6843403298408,607.6843403298408,607.6843403298408,None,,,,,,,,,,pilot1,2022-10-14_15h06.43.688,Hippopolis_Updating,2022.2.2,60.04455661570678,
Hippopolis,stimuli/subj_files/pilot1_cityA.csv,./stimuli/frankfurt.jpg,./stimuli/street_plate1.png,TOLMÁCS UTCA,stimuli/objects/049a.jpg,object,2,stimuli/scenes/097a.jpg,stimuli/scenes/097b.jpg,stimuli/scenes/077a.jpg,stimuli/scenes/097a.jpg,stimuli/scenes/077b.jpg,lure,dist1,target,dist2,0,0,0,0,0,71,71,23,,,,,,,610.6389697846025,611.6607560943812,611.6607560943812,611.6607560943812,611.6607560943812,614.6851032283157,614.6851032283157,614.6851032283157,614.6851032283157,None,,,,,,,,,,pilot1,2022-10-14_15h06.43.688,Hippopolis_Updating,2022.2.2,60.04455661570678,
Hippopolis,stimuli/subj_files/pilot1_cityA.csv,./stimuli/frankfurt.jpg,./stimuli/street_plate1.png,SZITAKÖTŐ UTCA,stimuli/objects/064a.jpg,object,0,stimuli/objects/064a.jpg,stimuli/objects/037b.jpg,stimuli/objects/064a.jpg,stimuli/objects/064b.jpg,stimuli/objects/037a.jpg,dist2,target,lure,dist1,0,0,0,0,0,72,72,3,,,,,,,617.6392422262579,618.6619674637914,618.6619674637914,618.6619674637914,618.6619674637914,621.6700601615012,621.6700601615012,621.6700601615012,621.6700601615012,None,,,,,,,,,,pilot1,2022-10-14_15h06.43.688,Hippopolis_Updating,2022.2.2,60.04455661570678,
Hippopolis,stimuli/subj_files/pilot1_cityA.csv,./stimuli/frankfurt.jpg,./stimuli/street_plate1.png,VITORLA UTCA,stimuli/scenes/086a.jpg,scene,2,stimuli/objects/015a.jpg,stimuli/objects/015b.jpg,stimuli/objects/115a.jpg,stimuli/objects/015a.jpg,stimuli/objects/115b.jpg,lure,dist1,target,dist2,0,0,0,0,0,73,73,77,,,,,,,624.6485179923475,625.6750934887677,625.6750934887677,625.6750934887677,625.6750934887677,628.6983035840094,628.6983035840094,628.6983035840094,628.6983035840094,None,,,,,,,,,,pilot1,2022-10-14_15h06.43.688,Hippopolis_Updating,2022.2.2,60.04455661570678,
Hippopolis,stimuli/subj_files/pilot1_cityA.csv,./stimuli/frankfurt.jpg,./stimuli/street_plate1.png,SZŐNYEG UTCA,stimuli/scenes/044a.jpg,scene,0,stimuli/scenes/044a.jpg,stimuli/scenes/044a.jpg,stimuli/scenes/004b.jpg,stimuli/scenes/004a.jpg,stimuli/scenes/044b.jpg,target,dist2,dist1,lure,0,0,0,0,0,74,74,11,,,,,,,631.6553327646106,632.676646342501,632.676646342501,632.676646342501,632.676646342501,635.681514525786,635.681514525786,635.681514525786,635.681514525786,None,,,,,,,,,,pilot1,2022-10-14_15h06.43.688,Hippopolis_Updating,2022.2.2,60.04455661570678,
Hippopolis,stimuli/subj_files/pilot1_cityA.csv,./stimuli/frankfurt.jpg,./stimuli/street_plate1.png,TRIATLON UTCA,stimuli/objects/119a.jpg,object,2,stimuli/scenes/018a.jpg,stimuli/objects/017a.jpg,stimuli/objects/017b.jpg,stimuli/scenes/018b.jpg,stimuli/scenes/018a.jpg,dist1,dist2,lure,target,0,0,0,0,0,75,75,75,,,,,,,638.6710982993245,639.6964646037668,639.6964646037668,639.6964646037668,639.6964646037668,642.7105699870735,642.7105699870735,642.7105699870735,642.7105699870735,None,,,,,,,,,,pilot1,2022-10-14_15h06.43.688,Hippopolis_Updating,2022.2.2,60.04455661570678,
Hippopolis,stimuli/subj_files/pilot1_cityA.csv,./stimuli/frankfurt.jpg,./stimuli/street_plate1.png,LEGELŐ UTCA,stimuli/scenes/012a.jpg,scene,1,stimuli/scenes/014a.jpg,stimuli/scenes/014b.jpg,stimuli/objects/016b.jpg,stimuli/scenes/014a.jpg,stimuli/objects/016a.jpg,lure,dist2,target,dist1,0,0,0,0,0,76,76,65,,,,,,,645.6805591136217,646.7094419673085,646.7094419673085,646.7094419673085,646.7094419673085,649.7158847749233,649.7158847749233,649.7158847749233,649.7158847749233,None,,,,,,,,,,pilot1,2022-10-14_15h06.43.688,Hippopolis_Updating,2022.2.2,60.04455661570678,
Hippopolis,stimuli/subj_files/pilot1_cityA.csv,./stimuli/frankfurt.jpg,./stimuli/street_plate1.png,FÜZET UTCA,stimuli/scenes/008a.jpg,scene,2,stimuli/objects/024a.jpg,stimuli/objects/024b.jpg,stimuli/scenes/117a.jpg,stimuli/objects/024a.jpg,stimuli/scenes/117b.jpg,lure,dist1,target,dist2,0,0,0,0,0,77,77,69,,,,,,,652.6887049935758,653.708249880001,653.708249880001,653.708249880001,653.708249880001,656.7277135923505,656.7277135923505,656.7277135923505,656.7277135923505,None,,,,,,,,,,pilot1,2022-10-14_15h06.43.688,Hippopolis_Updating,2022.2.2,60.04455661570678,
Hippopolis,stimuli/subj_files/pilot1_cityA.csv,./stimuli/frankfurt.jpg,./stimuli/street_plate1.png,KÁRTYA UTCA,stimuli/scenes/079a.jpg,scene,1,stimuli/scenes/094a.jpg,stimuli/scenes/094a.jpg,stimuli/scenes/105a.jpg,stimuli/scenes/105b.jpg,stimuli/scenes/094b.jpg,target,dist1,dist2,lure,0,0,0,0,0,78,78,30,,,,,,,659.6964188851416,660.7279219664633,660.7279219664633,660.7279219664633,660.7279219664633,663.7206304222345,663.7206304222345,663.7206304222345,663.7206304222345,None,,,,,,,,,,pilot1,2022-10-14_15h06.43.688,Hippopolis_Updating,2022.2.2,60.04455661570678,
Hippopolis,stimuli/subj_files/pilot1_cityA.csv,./stimuli/frankfurt.jpg,./stimuli/street_plate1.png,KAKAS UTCA,stimuli/scenes/057a.jpg,scene,1,stimuli/scenes/076a.jpg,stimuli/scenes/076b.jpg,stimuli/objects/014b.jpg,stimuli/objects/014a.jpg,stimuli/scenes/076a.jpg,lure,dist2,dist1,target,0,0,0,0,0,79,79,18,,,,,,,666.7127485871315,667.7404552139342,667.7404552139342,667.7404552139342,667.7404552139342,670.754748756066,670.754748756066,670.754748756066,670.754748756066,None,,,,,,,,,,pilot1,2022-10-14_15h06.43.688,Hippopolis_Updating,2022.2.2,60.04455661570678,
Camponello,stimuli/subj_files/pilot1_cityB.csv,./stimuli/leipzig.jpg,./stimuli/street_plate2.png,ZEBRA UTCA,stimuli/objects/036a.jpg,object,1,stimuli/objects/026a.jpg,stimuli/objects/026b.jpg,stimuli/objects/071b.jpg,stimuli/objects/071a.jpg,stimuli/objects/026a.jpg,lure,dist2,dist1,target,0,1,1,1,0,0,0,28,,,,,714.7390790097415,714.7390790097415,717.7358342800289,718.7326539289206,718.7326539289206,718.7326539289206,718.7326539289206,721.7162470985204,721.7162470985204,721.7162470985204,721.7162470985204,None,,,,,673.7203694880009,673.7203694880009,space,40.94575094245374,,pilot1,2022-10-14_15h06.43.688,Hippopolis_Updating,2022.2.2,60.04455661570678,
Camponello,stimuli/subj_files/pilot1_cityB.csv,./stimuli/leipzig.jpg,./stimuli/street_plate2.png,AKÁC UTCA,stimuli/scenes/015a.jpg,scene,0,stimuli/scenes/015a.jpg,stimuli/scenes/015b.jpg,stimuli/objects/075b.jpg,stimuli/scenes/015a.jpg,stimuli/objects/075a.jpg,lure,dist2,target,dist1,0,1,1,1,0,1,1,75,,,,,,,724.7030047569424,725.726124972105,725.726124972105,725.726124972105,725.726124972105,728.7452049031854,728.7452049031854,728.7452049031854,728.7452049031854,None,,,,,,,,,,pilot1,2022-10-14_15h06.43.688,Hippopolis_Updating,2022.2.2,60.04455661570678,
Camponello,stimuli/subj_files/pilot1_cityB.csv,./stimuli/leipzig.jpg,./stimuli/street_plate2.png,SZALVÉTA UTCA,stimuli/scenes/098a.jpg,scene,2,stimuli/objects/043a.jpg,stimuli/objects/003a.jpg,stimuli/objects/043b.jpg,stimuli/objects/043a.jpg,stimuli/objects/003b.jpg,dist1,lure,target,dist2,0,1,1,1,0,2,2,23,,,,,,,731.7162088435143,732.7356921508908,732.7356921508908,732.7356921508908,732.7356921508908,735.7480670940131,735.7480670940131,735.7480670940131,735.7480670940131,None,,,,,,,,,,pilot1,2022-10-14_15h06.43.688,Hippopolis_Updating,2022.2.2,60.04455661570678,
Camponello,stimuli/subj_files/pilot1_cityB.csv,./stimuli/leipzig.jpg,./stimuli/street_plate2.png,TELEP UTCA,stimuli/scenes/033a.jpg,scene,0,stimuli/scenes/033a.jpg,stimuli/scenes/033a.jpg,stimuli/scenes/011a.jpg,stimuli/scenes/011b.jpg,stimuli/scenes/033b.jpg,target,dist1,dist2,lure,0,1,1,1,0,3,3,17,,,,,,,738.7234425414354,739.7457497864962,739.7457497864962,739.7457497864962,739.7457497864962,742.7500743307173,742.7500743307173,742.7500743307173,742.7500743307173,None,,,,,,,,,,pilot1,2022-10-14_15h06.43.688,Hippopolis_Updating,2022.2.2,60.04455661570678,
Camponello,stimuli/subj_files/pilot1_cityB.csv,./stimuli/leipzig.jpg,./stimuli/street_plate2.png,FÉNYKÉP UTCA,stimuli/scenes/011a.jpg,scene,0,stimuli/scenes/011a.jpg,stimuli/scenes/011a.jpg,stimuli/scenes/011b.jpg,stimuli/scenes/065b.jpg,stimuli/scenes/065a.jpg,target,lure,dist2,dist1,0,1,1,1,0,4,4,29,,,,,,,745.7359297592193,746.7596352882683,746.7596352882683,746.7596352882683,746.7596352882683,749.7563296016306,749.7563296016306,749.7563296016306,749.7563296016306,None,,,,,,,,,,pilot1,2022-10-14_15h06.43.688,Hippopolis_Updating,2022.2.2,60.04455661570678,
Camponello,stimuli/subj_files/pilot1_cityB.csv,./stimuli/leipzig.jpg,./stimuli/street_plate2.png,KATONA UTCA,stimuli/objects/004a.jpg,object,0,stimuli/objects/004a.jpg,stimuli/objects/004b.jpg,stimuli/scenes/083b.jpg,stimuli/objects/004a.jpg,stimuli/scenes/083a.jpg,lure,dist2,target,dist1,0,1,1,1,0,5,5,32,,,,,,,752.7451803330332,753.7739465590566,753.7739465590566,753.7739465590566,753.7739465590566,756.7691505290568,756.7691505290568,756.7691505290568,756.7691505290568,None,,,,,,,,,,pilot1,2022-10-14_15h06.43.688,Hippopolis_Updating,2022.2.2,60.04455661570678,
Camponello,stimuli/subj_files/pilot1_cityB.csv,./stimuli/leipzig.jpg,./stimuli/street_plate2.png,LÁMPA UTCA,stimuli/objects/009a.jpg,object,2,stimuli/scenes/039a.jpg,stimuli/objects/005b.jpg,stimuli/scenes/039a.jpg,stimuli/scenes/039b.jpg,stimuli/objects/005a.jpg,dist2,target,lure,dist1,0,1,1,1,0,6,6,55,,,,,,,759.7443626970053,760.7793810851872,760.7793810851872,760.7793810851872,760.7793810851872,763.7857931032777,763.7857931032777,763.7857931032777,763.7857931032777,None,,,,,,,,,,pilot1,2022-10-14_15h06.43.688,Hippopolis_Updating,2022.2.2,60.04455661570678,
Camponello,stimuli/subj_files/pilot1_cityB.csv,./stimuli/leipzig.jpg,./stimuli/street_plate2.png,KÖMÉNYMAG UTCA,stimuli/scenes/093a.jpg,scene,0,stimuli/scenes/093a.jpg,stimuli/scenes/093b.jpg,stimuli/objects/007b.jpg,stimuli/scenes/093a.jpg,stimuli/objects/007a.jpg,lure,dist2,target,dist1,0,1,1,1,0,7,7,15,,,,,,,766.7572439610958,767.7743573989719,767.7743573989719,767.7743573989719,767.7743573989719,770.7885937150568,770.7885937150568,770.7885937150568,770.7885937150568,None,767.7743573989719,,,,,,,,,pilot1,2022-10-14_15h06.43.688,Hippopolis_Updating,2022.2.2,60.04455661570678,
Camponello,stimuli/subj_files/pilot1_cityB.csv,./stimuli/leipzig.jpg,./stimuli/street_plate2.png,FEJSZE UTCA,stimuli/objects/079a.jpg,object,2,stimuli/scenes/101a.jpg,stimuli/objects/083b.jpg,stimuli/scenes/101b.jpg,stimuli/scenes/101a.jpg,stimuli/objects/083a.jpg,dist2,lure,target,dist1,0,1,1,1,0,8,8,48,,,,,,,773.7701242901385,774.7917936611921,774.7917936611921,774.7917936611921,774.7917936611921,777.8401442691684,777.8401442691684,777.8401442691684,777.8401442691684,None,,,,,,,,,,pilot1,2022-10-14_15h06.43.688,Hippopolis_Updating,2022.2.2,60.04455661570678,
Camponello,stimuli/subj_files/pilot1_cityB.csv,./stimuli/leipzig.jpg,./stimuli/street_plate2.png,HAJÓ UTCA,stimuli/objects/078a.jpg,object,1,stimuli/objects/083a.jpg,stimuli/scenes/066b.jpg,stimuli/objects/083a.jpg,stimuli/objects/083b.jpg,stimuli/scenes/066a.jpg,dist2,target,lure,dist1,0,1,1,1,0,9,9,78,,,,,,,780.7812996823341,781.8079687915742,781.8079687915742,781.8079687915742,781.8079687915742,784.8147042579949,784.8147042579949,784.8147042579949,784.8147042579949,None,,,,,,,,,,pilot1,2022-10-14_15h06.43.688,Hippopolis_Updating,2022.2.2,60.04455661570678,
Camponello,stimuli/subj_files/pilot1_cityB.csv,./stimuli/leipzig.jpg,./stimuli/street_plate2.png,KÁRÁSZ UTCA,stimuli/objects/005a.jpg,object,0,stimuli/objects/005a.jpg,stimuli/objects/087a.jpg,stimuli/objects/087b.jpg,stimuli/objects/005a.jpg,stimuli/objects/005b.jpg,dist1,dist2,target,lure,0,1,1,1,0,10,10,47,,,,,,,787.7950004469603,788.8232780825347,788.8232780825347,788.8232780825347,788.8232780825347,791.8271081261337,791.8271081261337,791.8271081261337,791.8271081261337,None,,,,,,,,,,pilot1,2022-10-14_15h06.43.688,Hippopolis_Updating,2022.2.2,60.04455661570678,
Camponello,stimuli/subj_files/pilot1_cityB.csv,./stimuli/leipzig.jpg,./stimuli/street_plate2.png,ORVOS UTCA,stimuli/scenes/058a.jpg,scene,0,stimuli/scenes/058a.jpg,stimuli/scenes/058b.jpg,stimuli/objects/056b.jpg,stimuli/objects/056a.jpg,stimuli/scenes/058a.jpg,lure,dist2,dist1,target,0,1,1,1,0,11,11,0,,,,,,,794.80782915093,795.8315971922129,795.8315971922129,795.8315971922129,795.8315971922129,798.8346186187118,798.8346186187118,798.8346186187118,798.8346186187118,None,,,,,,,,,,pilot1,2022-10-14_15h06.43.688,Hippopolis_Updating,2022.2.2,60.04455661570678,
Camponello,stimuli/subj_files/pilot1_cityB.csv,./stimuli/leipzig.jpg,./stimuli/street_plate2.png,BAGOLY UTCA,stimuli/objects/056a.jpg,object,0,stimuli/objects/056a.jpg,stimuli/scenes/073a.jpg,stimuli/objects/056b.jpg,stimuli/objects/056a.jpg,stimuli/scenes/073b.jpg,dist1,lure,target,dist2,0,1,1,1,0,12,12,61,,,,,,,801.8107476346195,802.8398534785956,802.8398534785956,802.8398534785956,802.8398534785956,805.838864788413,805.838864788413,805.838864788413,805.838864788413,None,,,,,,,,,,pilot1,2022-10-14_15h06.43.688,Hippopolis_Updating,2022.2.2,60.04455661570678,
Camponello,stimuli/subj_files/pilot1_cityB.csv,./stimuli/leipzig.jpg,./stimuli/street_plate2.png,FÉNYMÁSOLÓ UTCA,stimuli/objects/075a.jpg,object,0,stimuli/objects/075a.jpg,stimuli/objects/075b.jpg,stimuli/objects/029a.jpg,stimuli/objects/075a.jpg,stimuli/objects/029b.jpg,lure,dist1,target,dist2,0,1,1,1,0,13,13,39,,,,,,,808.8112866077572,809.8396062273532,809.8396062273532,809.8396062273532,809.8396062273532,812.8334252871573,812.8334252871573,812.8334252871573,812.8334252871573,None,,,,,,,,,,pilot1,2022-10-14_15h06.43.688,Hippopolis_Updating,2022.2.2,60.04455661570678,
Camponello,stimuli/subj_files/pilot1_cityB.csv,./stimuli/leipzig.jpg,./stimuli/street_plate2.png,MOSODA UTCA,stimuli/objects/002a.jpg,object,0,stimuli/objects/002a.jpg,stimuli/objects/002b.jpg,stimuli/objects/092a.jpg,stimuli/objects/002a.jpg,stimuli/objects/092b.jpg,lure,dist1,target,dist2,0,1,1,1,0,14,14,2,,,,,,,815.8350792191923,816.8588432166725,816.8588432166725,816.8588432166725,816.8588432166725,819.8617231361568,819.8617231361568,819.8617231361568,819.8617231361568,None,,,,,,,,,,pilot1,2022-10-14_15h06.43.688,Hippopolis_Updating,2022.2.2,60.04455661570678,
Camponello,stimuli/subj_files/pilot1_cityB.csv,./stimuli/leipzig.jpg,./stimuli/street_plate2.png,SZOMSZÉD UTCA,stimuli/scenes/038a.jpg,scene,0,stimuli/scenes/038a.jpg,stimuli/scenes/038b.jpg,stimuli/scenes/016b.jpg,stimuli/scenes/038a.jpg,stimuli/scenes/016a.jpg,lure,dist2,target,dist1,0,1,1,1,0,15,15,1,,,,,,,822.840818842873,823.8731896318495,823.8731896318495,823.8731896318495,823.8731896318495,826.8682663999498,826.8682663999498,826.8682663999498,826.8682663999498,None,,,,,,,,,,pilot1,2022-10-14_15h06.43.688,Hippopolis_Updating,2022.2.2,60.04455661570678,
Camponello,stimuli/subj_files/pilot1_cityB.csv,./stimuli/leipzig.jpg,./stimuli/street_plate2.png,BETON UTCA,stimuli/objects/116a.jpg,object,0,stimuli/objects/116a.jpg,stimuli/objects/116b.jpg,stimuli/objects/116a.jpg,stimuli/objects/001b.jpg,stimuli/objects/001a.jpg,lure,target,dist2,dist1,0,1,1,1,0,16,16,52,,,,,,,829.8445985019207,830.8734791781753,830.8734791781753,830.8734791781753,830.8734791781753,833.8728783149272,833.8728783149272,833.8728783149272,833.8728783149272,None,,,,,,,,,,pilot1,2022-10-14_15h06.43.688,Hippopolis_Updating,2022.2.2,60.04455661570678,
Camponello,stimuli/subj_files/pilot1_cityB.csv,./stimuli/leipzig.jpg,./stimuli/street_plate2.png,SZŐLŐ UTCA,stimuli/objects/071a.jpg,object,0,stimuli/objects/071a.jpg,stimuli/objects/096b.jpg,stimuli/objects/071b.jpg,stimuli/objects/096a.jpg,stimuli/objects/071a.jpg,dist2,lure,dist1,target,0,1,1,1,0,17,17,9,,,,,,,836.8444143868983,837.8724954649806,837.8724954649806,837.8724954649806,837.8724954649806,840.886468982324,840.886468982324,840.886468982324,840.886468982324,None,,,,,,,,,,pilot1,2022-10-14_15h06.43.688,Hippopolis_Updating,2022.2.2,60.04455661570678,
Camponello,stimuli/subj_files/pilot1_cityB.csv,./stimuli/leipzig.jpg,./stimuli/street_plate2.png,SIRÁLY UTCA,stimuli/scenes/013a.jpg,scene,0,stimuli/scenes/013a.jpg,stimuli/scenes/013a.jpg,stimuli/scenes/102a.jpg,stimuli/scenes/102b.jpg,stimuli/scenes/013b.jpg,target,dist1,dist2,lure,0,1,1,1,0,18,18,40,,,,,,,843.8525428492576,844.8729741033167,844.8729741033167,844.8729741033167,844.8729741033167,847.8836705461144,847.8836705461144,847.8836705461144,847.8836705461144,None,,,,,,,,,,pilot1,2022-10-14_15h06.43.688,Hippopolis_Updating,2022.2.2,60.04455661570678,
Camponello,stimuli/subj_files/pilot1_cityB.csv,./stimuli/leipzig.jpg,./stimuli/street_plate2.png,CSILLAG UTCA,stimuli/scenes/109a.jpg,scene,1,stimuli/scenes/049a.jpg,stimuli/objects/050a.jpg,stimuli/scenes/049a.jpg,stimuli/scenes/049b.jpg,stimuli/objects/050b.jpg,dist1,target,lure,dist2,0,1,1,1,0,19,19,68,,,,,,,850.8684414960444,851.8919150158763,851.8919150158763,851.8919150158763,851.8919150158763,854.9071851186454,854.9071851186454,854.9071851186454,854.9071851186454,None,,,,,,,,,,pilot1,2022-10-14_15h06.43.688,Hippopolis_Updating,2022.2.2,60.04455661570678,
Camponello,stimuli/subj_files/pilot1_cityB.csv,./stimuli/leipzig.jpg,./stimuli/street_plate2.png,ÜVEG UTCA,stimuli/objects/103a.jpg,object,0,stimuli/objects/103a.jpg,stimuli/objects/103b.jpg,stimuli/objects/103a.jpg,stimuli/scenes/025a.jpg,stimuli/scenes/025b.jpg,lure,target,dist1,dist2,0,1,1,1,0,20,20,79,,,,,,,857.8691117148846,858.8892857674509,858.8892857674509,858.8892857674509,858.8892857674509,861.9085924215615,861.9085924215615,861.9085924215615,861.9085924215615,None,,,,,,,,,,pilot1,2022-10-14_15h06.43.688,Hippopolis_Updating,2022.2.2,60.04455661570678,
Camponello,stimuli/subj_files/pilot1_cityB.csv,./stimuli/leipzig.jpg,./stimuli/street_plate2.png,CUKOR UTCA,stimuli/scenes/065a.jpg,scene,0,stimuli/scenes/065a.jpg,stimuli/objects/052b.jpg,stimuli/scenes/065a.jpg,stimuli/objects/052a.jpg,stimuli/scenes/065b.jpg,dist2,target,dist1,lure,0,1,1,1,0,21,21,49,,,,,,,864.8719655107707,865.8937711007893,865.8937711007893,865.8937711007893,865.8937711007893,868.8922493476421,868.8922493476421,868.8922493476421,868.8922493476421,None,,,,,,,,,,pilot1,2022-10-14_15h06.43.688,Hippopolis_Updating,2022.2.2,60.04455661570678,
Camponello,stimuli/subj_files/pilot1_cityB.csv,./stimuli/leipzig.jpg,./stimuli/street_plate2.png,ELEFÁNT UTCA,stimuli/scenes/099a.jpg,scene,0,stimuli/scenes/099a.jpg,stimuli/scenes/099b.jpg,stimuli/scenes/099a.jpg,stimuli/objects/116b.jpg,stimuli/objects/116a.jpg,lure,target,dist2,dist1,0,1,1,1,0,22,22,51,,,,,,,871.8783370982856,872.9095898196101,872.9095898196101,872.9095898196101,872.9095898196101,875.9162030592561,875.9162030592561,875.9162030592561,875.9162030592561,None,,,,,,,,,,pilot1,2022-10-14_15h06.43.688,Hippopolis_Updating,2022.2.2,60.04455661570678,
Camponello,stimuli/subj_files/pilot1_cityB.csv,./stimuli/leipzig.jpg,./stimuli/street_plate2.png,MÁRVÁNY UTCA,stimuli/scenes/036a.jpg,scene,2,stimuli/objects/029a.jpg,stimuli/objects/029a.jpg,stimuli/objects/108b.jpg,stimuli/objects/108a.jpg,stimuli/objects/029b.jpg,target,dist2,dist1,lure,0,1,1,1,0,23,23,71,,,,,,,878.8867765683681,879.9096507765353,879.9096507765353,879.9096507765353,879.9096507765353,882.9299112875015,882.9299112875015,882.9299112875015,882.9299112875015,None,,,,,,,,,,pilot1,2022-10-14_15h06.43.688,Hippopolis_Updating,2022.2.2,60.04455661570678,
Camponello,stimuli/subj_files/pilot1_cityB.csv,./stimuli/leipzig.jpg,./stimuli/street_plate2.png,PELIKÁN UTCA,stimuli/objects/058a.jpg,object,0,stimuli/objects/058a.jpg,stimuli/objects/112b.jpg,stimuli/objects/112a.jpg,stimuli/objects/058a.jpg,stimuli/objects/058b.jpg,dist2,dist1,target,lure,0,1,1,1,0,24,24,65,,,,,,,885.902726219967,886.9268189519644,886.9268189519644,886.9268189519644,886.9268189519644,889.9324099142104,889.9324099142104,889.9324099142104,889.9324099142104,None,,,,,,,,,,pilot1,2022-10-14_15h06.43.688,Hippopolis_Updating,2022.2.2,60.04455661570678,
Camponello,stimuli/subj_files/pilot1_cityB.csv,./stimuli/leipzig.jpg,./stimuli/street_plate2.png,KÍGYÓ UTCA,stimuli/objects/023a.jpg,object,0,stimuli/objects/023a.jpg,stimuli/scenes/107b.jpg,stimuli/objects/023a.jpg,stimuli/objects/023b.jpg,stimuli/scenes/107a.jpg,dist2,target,lure,dist1,0,1,1,1,0,25,25,45,,,,,,,892.9154659751803,893.945696728304,893.945696728304,893.945696728304,893.945696728304,896.9337777197361,896.9337777197361,896.9337777197361,896.9337777197361,None,,,,,,,,,,pilot1,2022-10-14_15h06.43.688,Hippopolis_Updating,2022.2.2,60.04455661570678,
Camponello,stimuli/subj_files/pilot1_cityB.csv,./stimuli/leipzig.jpg,./stimuli/street_plate2.png,SALÁTA UTCA,stimuli/objects/108a.jpg,object,0,stimuli/objects/108a.jpg,stimuli/objects/108b.jpg,stimuli/objects/026b.jpg,stimuli/objects/108a.jpg,stimuli/objects/026a.jpg,lure,dist2,target,dist1,0,1,1,1,0,26,26,30,,,,,,,899.9298478420824,900.9552502222359,900.9552502222359,900.9552502222359,900.9552502222359,903.9530725553632,903.9530725553632,903.9530725553632,903.9530725553632,None,,,,,,,,,,pilot1,2022-10-14_15h06.43.688,Hippopolis_Updating,2022.2.2,60.04455661570678,
Camponello,stimuli/subj_files/pilot1_cityB.csv,./stimuli/leipzig.jpg,./stimuli/street_plate2.png,FOGAS UTCA,stimuli/objects/094a.jpg,object,1,stimuli/objects/007a.jpg,stimuli/scenes/015a.jpg,stimuli/objects/007b.jpg,stimuli/objects/007a.jpg,stimuli/scenes/015b.jpg,dist1,lure,target,dist2,0,1,1,1,0,27,27,60,,,,,,,906.9394081793725,907.9707106612623,907.9707106612623,907.9707106612623,907.9707106612623,910.9889306593686,910.9889306593686,910.9889306593686,910.9889306593686,None,,,,,,,,,,pilot1,2022-10-14_15h06.43.688,Hippopolis_Updating,2022.2.2,60.04455661570678,
Camponello,stimuli/subj_files/pilot1_cityB.csv,./stimuli/leipzig.jpg,./stimuli/street_plate2.png,SZÁMOLÓGÉP UTCA,stimuli/objects/051a.jpg,object,0,stimuli/objects/051a.jpg,stimuli/objects/051b.jpg,stimuli/objects/051a.jpg,stimuli/scenes/039b.jpg,stimuli/scenes/039a.jpg,lure,target,dist2,dist1,0,1,1,1,0,28,28,5,,,,,,,913.9472645111382,914.9740959666669,914.9740959666669,914.9740959666669,914.9740959666669,917.9935018327087,917.9935018327087,917.9935018327087,917.9935018327087,None,,,,,,,,,,pilot1,2022-10-14_15h06.43.688,Hippopolis_Updating,2022.2.2,60.04455661570678,
Camponello,stimuli/subj_files/pilot1_cityB.csv,./stimuli/leipzig.jpg,./stimuli/street_plate2.png,PÁLMAFA UTCA,stimuli/scenes/074a.jpg,scene,2,stimuli/objects/067a.jpg,stimuli/objects/067a.jpg,stimuli/scenes/053a.jpg,stimuli/objects/067b.jpg,stimuli/scenes/053b.jpg,target,dist1,lure,dist2,0,1,1,1,0,29,29,25,,,,,,,920.9599902704358,921.9887347258627,921.9887347258627,921.9887347258627,921.9887347258627,924.9976385273039,924.9976385273039,924.9976385273039,924.9976385273039,None,,,,,,,,,,pilot1,2022-10-14_15h06.43.688,Hippopolis_Updating,2022.2.2,60.04455661570678,
Camponello,stimuli/subj_files/pilot1_cityB.csv,./stimuli/leipzig.jpg,./stimuli/street_plate2.png,KALAPÁCS UTCA,stimuli/objects/069a.jpg,object,1,stimuli/objects/096a.jpg,stimuli/objects/031a.jpg,stimuli/objects/031b.jpg,stimuli/objects/096b.jpg,stimuli/objects/096a.jpg,dist1,dist2,lure,target,0,1,1,1,0,30,30,36,,,,,,,927.9692840762436,928.993591401726,928.993591401726,928.993591401726,928.993591401726,931.9986452553421,931.9986452553421,931.9986452553421,931.9986452553421,None,,,,,,,,,,pilot1,2022-10-14_15h06.43.688,Hippopolis_Updating,2022.2.2,60.04455661570678,
Camponello,stimuli/subj_files/pilot1_cityB.csv,./stimuli/leipzig.jpg,./stimuli/street_plate2.png,FOLYÓ UTCA,stimuli/scenes/089a.jpg,scene,2,stimuli/objects/114a.jpg,stimuli/objects/008b.jpg,stimuli/objects/114a.jpg,stimuli/objects/008a.jpg,stimuli/objects/114b.jpg,dist2,target,dist1,lure,0,1,1,1,0,31,31,12,,,,,,,934.9861567933112,936.0048632062972,936.0048632062972,936.0048632062972,936.0048632062972,939.0344791021198,939.0344791021198,939.0344791021198,939.0344791021198,None,,,,,,,,,,pilot1,2022-10-14_15h06.43.688,Hippopolis_Updating,2022.2.2,60.04455661570678,
Camponello,stimuli/subj_files/pilot1_cityB.csv,./stimuli/leipzig.jpg,./stimuli/street_plate2.png,RÁDIÓ UTCA,stimuli/scenes/115a.jpg,scene,0,stimuli/scenes/115a.jpg,stimuli/objects/095b.jpg,stimuli/scenes/115a.jpg,stimuli/scenes/115b.jpg,stimuli/objects/095a.jpg,dist2,target,lure,dist1,0,1,1,1,0,32,32,72,,,,,,,942.0021076891571,943.0222792532295,943.0222792532295,943.0222792532295,943.0222792532295,946.0252692680806,946.0252692680806,946.0252692680806,946.0252692680806,None,,,,,,,,,,pilot1,2022-10-14_15h06.43.688,Hippopolis_Updating,2022.2.2,60.04455661570678,
Camponello,stimuli/subj_files/pilot1_cityB.csv,./stimuli/leipzig.jpg,./stimuli/street_plate2.png,REPÜLŐ UTCA,stimuli/scenes/056a.jpg,scene,0,stimuli/scenes/056a.jpg,stimuli/scenes/055b.jpg,stimuli/scenes/056a.jpg,stimuli/scenes/055a.jpg,stimuli/scenes/056b.jpg,dist2,target,dist1,lure,0,1,1,1,0,33,33,22,,,,,,,949.0167178381234,950.0381412021816,950.0381412021816,950.0381412021816,950.0381412021816,953.0382457002997,953.0382457002997,953.0382457002997,953.0382457002997,None,,,,,,,,,,pilot1,2022-10-14_15h06.43.688,Hippopolis_Updating,2022.2.2,60.04455661570678,
Camponello,stimuli/subj_files/pilot1_cityB.csv,./stimuli/leipzig.jpg,./stimuli/street_plate2.png,KANÁL UTCA,stimuli/scenes/005a.jpg,scene,0,stimuli/scenes/005a.jpg,stimuli/scenes/005b.jpg,stimuli/objects/113b.jpg,stimuli/objects/113a.jpg,stimuli/scenes/005a.jpg,lure,dist2,dist1,target,0,1,1,1,0,34,34,14,,,,,,,956.0181677490473,957.0481366366148,957.0481366366148,957.0481366366148,957.0481366366148,960.0407757367939,960.0407757367939,960.0407757367939,960.0407757367939,None,,,,,,,,,,pilot1,2022-10-14_15h06.43.688,Hippopolis_Updating,2022.2.2,60.04455661570678,
Camponello,stimuli/subj_files/pilot1_cityB.csv,./stimuli/leipzig.jpg,./stimuli/street_plate2.png,BOLYGÓ UTCA,stimuli/objects/113a.jpg,object,0,stimuli/objects/113a.jpg,stimuli/objects/113a.jpg,stimuli/scenes/112a.jpg,stimuli/objects/113b.jpg,stimuli/scenes/112b.jpg,target,dist1,lure,dist2,0,1,1,1,0,35,35,64,,,,,,,963.0255473088473,964.0549526512623,964.0549526512623,964.0549526512623,964.0549526512623,967.0654780417681,967.0654780417681,967.0654780417681,967.0654780417681,None,,,,,,,,,,pilot1,2022-10-14_15h06.43.688,Hippopolis_Updating,2022.2.2,60.04455661570678,
Camponello,stimuli/subj_files/pilot1_cityB.csv,./stimuli/leipzig.jpg,./stimuli/street_plate2.png,BÖGRE UTCA,stimuli/scenes/081a.jpg,scene,1,stimuli/scenes/083a.jpg,stimuli/scenes/040b.jpg,stimuli/scenes/083a.jpg,stimuli/scenes/040a.jpg,stimuli/scenes/083b.jpg,dist2,target,dist1,lure,0,1,1,1,0,36,36,24,,,,,,,970.029693024233,971.0575896743685,971.0575896743685,971.0575896743685,971.0575896743685,974.0776741579175,974.0776741579175,974.0776741579175,974.0776741579175,None,,,,,,,,,,pilot1,2022-10-14_15h06.43.688,Hippopolis_Updating,2022.2.2,60.04455661570678,
Camponello,stimuli/subj_files/pilot1_cityB.csv,./stimuli/leipzig.jpg,./stimuli/street_plate2.png,KÓKUSZ UTCA,stimuli/objects/091a.jpg,object,2,stimuli/scenes/078a.jpg,stimuli/objects/032b.jpg,stimuli/scenes/078a.jpg,stimuli/scenes/078b.jpg,stimuli/objects/032a.jpg,dist2,target,lure,dist1,0,1,1,1,0,37,37,13,,,,,,,977.0425211042166,978.0717622358352,978.0717622358352,978.0717622358352,978.0717622358352,981.0658714640886,981.0658714640886,981.0658714640886,981.0658714640886,None,,,,,,,,,,pilot1,2022-10-14_15h06.43.688,Hippopolis_Updating,2022.2.2,60.04455661570678,
Camponello,stimuli/subj_files/pilot1_cityB.csv,./stimuli/leipzig.jpg,./stimuli/street_plate2.png,PISZTRÁNG UTCA,stimuli/scenes/025a.jpg,scene,0,stimuli/scenes/025a.jpg,stimuli/scenes/025a.jpg,stimuli/scenes/095b.jpg,stimuli/scenes/025b.jpg,stimuli/scenes/095a.jpg,target,dist2,lure,dist1,0,1,1,1,0,38,38,27,,,,,,,984.0514756012708,985.0707884747535,985.0707884747535,985.0707884747535,985.0707884747535,988.0819495618343,988.0819495618343,988.0819495618343,988.0819495618343,None,,,,,,,,,,pilot1,2022-10-14_15h06.43.688,Hippopolis_Updating,2022.2.2,60.04455661570678,
Camponello,stimuli/subj_files/pilot1_cityB.csv,./stimuli/leipzig.jpg,./stimuli/street_plate2.png,FÓKA UTCA,stimuli/scenes/034a.jpg,scene,0,stimuli/scenes/034a.jpg,stimuli/scenes/034a.jpg,stimuli/objects/004a.jpg,stimuli/scenes/034b.jpg,stimuli/objects/004b.jpg,target,dist1,lure,dist2,0,1,1,1,0,39,39,70,,,,,,,991.0591468848288,992.0868034381419,992.0868034381419,992.0868034381419,992.0868034381419,995.0798816811293,995.0798816811293,995.0798816811293,995.0798816811293,None,,,,,,,,,,pilot1,2022-10-14_15h06.43.688,Hippopolis_Updating,2022.2.2,60.04455661570678,
Camponello,stimuli/subj_files/pilot1_cityB.csv,./stimuli/leipzig.jpg,./stimuli/street_plate2.png,SÜTŐ UTCA,stimuli/scenes/073a.jpg,scene,0,stimuli/scenes/073a.jpg,stimuli/objects/019a.jpg,stimuli/objects/019b.jpg,stimuli/scenes/073b.jpg,stimuli/scenes/073a.jpg,dist1,dist2,lure,target,0,1,1,1,0,40,40,38,,,,,,,998.0676998700947,999.0880424883217,999.0880424883217,999.0880424883217,999.0880424883217,1002.098537709564,1002.098537709564,1002.098537709564,1002.098537709564,None,,,,,,,,,,pilot1,2022-10-14_15h06.43.688,Hippopolis_Updating,2022.2.2,60.04455661570678,
Camponello,stimuli/subj_files/pilot1_cityB.csv,./stimuli/leipzig.jpg,./stimuli/street_plate2.png,KOCSI UTCA,stimuli/scenes/066a.jpg,scene,0,stimuli/scenes/066a.jpg,stimuli/scenes/066a.jpg,stimuli/objects/058b.jpg,stimuli/objects/058a.jpg,stimuli/scenes/066b.jpg,target,dist2,dist1,lure,0,1,1,1,0,41,41,73,,,,,,,1005.0750872064382,1006.103874579072,1006.103874579072,1006.103874579072,1006.103874579072,1009.0886333994567,1009.0886333994567,1009.0886333994567,1009.0886333994567,None,,,,,,,,,,pilot1,2022-10-14_15h06.43.688,Hippopolis_Updating,2022.2.2,60.04455661570678,
Camponello,stimuli/subj_files/pilot1_cityB.csv,./stimuli/leipzig.jpg,./stimuli/street_plate2.png,MEDVE UTCA,stimuli/scenes/063a.jpg,scene,0,stimuli/scenes/063a.jpg,stimuli/scenes/063b.jpg,stimuli/scenes/063a.jpg,stimuli/scenes/101b.jpg,stimuli/scenes/101a.jpg,lure,target,dist2,dist1,0,1,1,1,0,42,42,74,,,,,,,1012.0882004797459,1013.1159954313189,1013.1159954313189,1013.1159954313189,1013.1159954313189,1016.113654486835,1016.113654486835,1016.113654486835,1016.113654486835,None,,,,,,,,,,pilot1,2022-10-14_15h06.43.688,Hippopolis_Updating,2022.2.2,60.04455661570678,
Camponello,stimuli/subj_files/pilot1_cityB.csv,./stimuli/leipzig.jpg,./stimuli/street_plate2.png,LIGET UTCA,stimuli/scenes/095a.jpg,scene,0,stimuli/scenes/095a.jpg,stimuli/scenes/115b.jpg,stimuli/scenes/115a.jpg,stimuli/scenes/095b.jpg,stimuli/scenes/095a.jpg,dist2,dist1,lure,target,0,1,1,1,0,43,43,54,,,,,,,1019.1006494425237,1020.120537057519,1020.120537057519,1020.120537057519,1020.120537057519,1023.1389545463026,1023.1389545463026,1023.1389545463026,1023.1389545463026,None,,,,,,,,,,pilot1,2022-10-14_15h06.43.688,Hippopolis_Updating,2022.2.2,60.04455661570678,
Camponello,stimuli/subj_files/pilot1_cityB.csv,./stimuli/leipzig.jpg,./stimuli/street_plate2.png,DOMINÓ UTCA,stimuli/scenes/052a.jpg,scene,0,stimuli/scenes/052a.jpg,stimuli/scenes/052a.jpg,stimuli/scenes/052b.jpg,stimuli/scenes/090a.jpg,stimuli/scenes/090b.jpg,target,lure,dist1,dist2,0,1,1,1,0,44,44,31,,,,,,,1026.1175252720714,1027.1381020769477,1027.1381020769477,1027.1381020769477,1027.1381020769477,1030.1468814760447,1030.1468814760447,1030.1468814760447,1030.1468814760447,space,,1033.1328675281256,1033.1328675281256,11.065242705866694,,,,,,pilot1,2022-10-14_15h06.43.688,Hippopolis_Updating,2022.2.2,60.04455661570678,
Camponello,stimuli/subj_files/pilot1_cityB.csv,./stimuli/leipzig.jpg,./stimuli/street_plate2.png,MAJOM UTCA,stimuli/objects/048a.jpg,object,1,stimuli/objects/107a.jpg,stimuli/scenes/087a.jpg,stimuli/objects/107b.jpg,stimuli/scenes/087b.jpg,stimuli/objects/107a.jpg,dist1,lure,dist2,target,0,1,1,1,0,45,45,8,,,,,,,1044.2252255417407,1045.2541497573256,1045.2541497573256,1045.2541497573256,1045.2541497573256,1048.265192039311,1048.265192039311,1048.265192039311,1048.265192039311,None,,,,,,,,,,pilot1,2022-10-14_15h06.43.688,Hippopolis_Updating,2022.2.2,60.04455661570678,
Camponello,stimuli/subj_files/pilot1_cityB.csv,./stimuli/leipzig.jpg,./stimuli/street_plate2.png,PIZSAMA UTCA,stimuli/objects/087a.jpg,object,0,stimuli/objects/087a.jpg,stimuli/objects/087a.jpg,stimuli/objects/051b.jpg,stimuli/objects/087b.jpg,stimuli/objects/051a.jpg,target,dist2,lure,dist1,0,1,1,1,0,46,46,4,,,,,,,1051.244518822059,1052.2701675202698,1052.2701675202698,1052.2701675202698,1052.2701675202698,1055.2889914922416,1055.2889914922416,1055.2889914922416,1055.2889914922416,None,,,,,,,,,,pilot1,2022-10-14_15h06.43.688,Hippopolis_Updating,2022.2.2,60.04455661570678,
Camponello,stimuli/subj_files/pilot1_cityB.csv,./stimuli/leipzig.jpg,./stimuli/street_plate2.png,ZONGORA UTCA,stimuli/scenes/110a.jpg,scene,2,stimuli/objects/074a.jpg,stimuli/scenes/048a.jpg,stimuli/objects/074a.jpg,stimuli/objects/074b.jpg,stimuli/scenes/048b.jpg,dist1,target,lure,dist2,0,1,1,1,0,47,47,21,,,,,,,1058.2527900375426,1059.270606039092,1059.270606039092,1059.270606039092,1059.270606039092,1062.3271681498736,1062.3271681498736,1062.3271681498736,1062.3271681498736,None,1059.270606039092,,,,,,,,,pilot1,2022-10-14_15h06.43.688,Hippopolis_Updating,2022.2.2,60.04455661570678,
Camponello,stimuli/subj_files/pilot1_cityB.csv,./stimuli/leipzig.jpg,./stimuli/street_plate2.png,TÁNYÉR UTCA,stimuli/scenes/040a.jpg,scene,0,stimuli/scenes/040a.jpg,stimuli/scenes/040a.jpg,stimuli/objects/044b.jpg,stimuli/scenes/040b.jpg,stimuli/objects/044a.jpg,target,dist2,lure,dist1,0,1,1,1,0,48,48,35,,,,,,,1065.2606529016048,1066.287045525387,1066.287045525387,1066.287045525387,1066.287045525387,1069.2831436395645,1069.2831436395645,1069.2831436395645,1069.2831436395645,None,,,,,,,,,,pilot1,2022-10-14_15h06.43.688,Hippopolis_Updating,2022.2.2,60.04455661570678,
Camponello,stimuli/subj_files/pilot1_cityB.csv,./stimuli/leipzig.jpg,./stimuli/street_plate2.png,ANANÁSZ UTCA,stimuli/scenes/092a.jpg,scene,1,stimuli/scenes/087a.jpg,stimuli/scenes/087b.jpg,stimuli/scenes/119a.jpg,stimuli/scenes/087a.jpg,stimuli/scenes/119b.jpg,lure,dist1,target,dist2,0,1,1,1,0,49,49,69,,,,,,,1072.2626150418073,1073.2871739715338,1073.2871739715338,1073.2871739715338,1073.2871739715338,1076.3164340741932,1076.3164340741932,1076.3164340741932,1076.3164340741932,None,,,,,,,,,,pilot1,2022-10-14_15h06.43.688,Hippopolis_Updating,2022.2.2,60.04455661570678,
Camponello,stimuli/subj_files/pilot1_cityB.csv,./stimuli/leipzig.jpg,./stimuli/street_plate2.png,TIGRIS UTCA,stimuli/scenes/048a.jpg,scene,0,stimuli/scenes/048a.jpg,stimuli/scenes/048b.jpg,stimuli/objects/084b.jpg,stimuli/objects/084a.jpg,stimuli/scenes/048a.jpg,lure,dist2,dist1,target,0,1,1,1,0,50,50,44,,,,,,,1079.2746522314847,1080.298369890079,1080.298369890079,1080.298369890079,1080.298369890079,1083.294305037707,1083.294305037707,1083.294305037707,1083.294305037707,None,,,,,,,,,,pilot1,2022-10-14_15h06.43.688,Hippopolis_Updating,2022.2.2,60.04455661570678,
Camponello,stimuli/subj_files/pilot1_cityB.csv,./stimuli/leipzig.jpg,./stimuli/street_plate2.png,SZAXOFON UTCA,stimuli/scenes/107a.jpg,scene,0,stimuli/scenes/107a.jpg,stimuli/scenes/063a.jpg,stimuli/scenes/063b.jpg,stimuli/scenes/107b.jpg,stimuli/scenes/107a.jpg,dist1,dist2,lure,target,0,1,1,1,0,51,51,37,,,,,,,1086.2831958886236,1087.305680718273,1087.305680718273,1087.305680718273,1087.305680718273,1090.3184661902487,1090.3184661902487,1090.3184661902487,1090.3184661902487,None,,,,,,,,,,pilot1,2022-10-14_15h06.43.688,Hippopolis_Updating,2022.2.2,60.04455661570678,
Camponello,stimuli/subj_files/pilot1_cityB.csv,./stimuli/leipzig.jpg,./stimuli/street_plate2.png,HÁRFA UTCA,stimuli/scenes/075a.jpg,scene,0,stimuli/scenes/075a.jpg,stimuli/scenes/034a.jpg,stimuli/scenes/075a.jpg,stimuli/scenes/034b.jpg,stimuli/scenes/075b.jpg,dist1,target,dist2,lure,0,1,1,1,0,52,52,6,,,,,,,1093.3001799471676,1094.3202019166201,1094.3202019166201,1094.3202019166201,1094.3202019166201,1097.3290404081345,1097.3290404081345,1097.3290404081345,1097.3290404081345,None,,,,,,,,,,pilot1,2022-10-14_15h06.43.688,Hippopolis_Updating,2022.2.2,60.04455661570678,
Camponello,stimuli/subj_files/pilot1_cityB.csv,./stimuli/leipzig.jpg,./stimuli/street_plate2.png,TÁSKA UTCA,stimuli/scenes/055a.jpg,scene,0,stimuli/scenes/055a.jpg,stimuli/scenes/055a.jpg,stimuli/scenes/055b.jpg,stimuli/objects/074a.jpg,stimuli/objects/074b.jpg,target,lure,dist1,dist2,0,1,1,1,0,53,53,67,,,,,,,1100.302789291367,1101.3289925139397,1101.3289925139397,1101.3289925139397,1101.3289925139397,1104.3405084572732,1104.3405084572732,1104.3405084572732,1104.3405084572732,None,,,,,,,,,,pilot1,2022-10-14_15h06.43.688,Hippopolis_Updating,2022.2.2,60.04455661570678,
Camponello,stimuli/subj_files/pilot1_cityB.csv,./stimuli/leipzig.jpg,./stimuli/street_plate2.png,PETÁRDA UTCA,stimuli/scenes/112a.jpg,scene,0,stimuli/scenes/112a.jpg,stimuli/scenes/058a.jpg,stimuli/scenes/112a.jpg,stimuli/scenes/058b.jpg,stimuli/scenes/112b.jpg,dist1,target,dist2,lure,0,1,1,1,0,54,54,26,,,,,,,1107.307219889015,1108.3243529200554,1108.3243529200554,1108.3243529200554,1108.3243529200554,1111.3550878148526,1111.3550878148526,1111.3550878148526,1111.3550878148526,None,,,,,,,,,,pilot1,2022-10-14_15h06.43.688,Hippopolis_Updating,2022.2.2,60.04455661570678,
Camponello,stimuli/subj_files/pilot1_cityB.csv,./stimuli/leipzig.jpg,./stimuli/street_plate2.png,FŰRÉSZ UTCA,stimuli/objects/044a.jpg,object,0,stimuli/objects/044a.jpg,stimuli/scenes/038b.jpg,stimuli/scenes/038a.jpg,stimuli/objects/044a.jpg,stimuli/objects/044b.jpg,dist2,dist1,target,lure,0,1,1,1,0,55,55,42,,,,,,,1114.3199120592326,1115.3386240694672,1115.3386240694672,1115.3386240694672,1115.3386240694672,1118.3554955441505,1118.3554955441505,1118.3554955441505,1118.3554955441505,None,1115.3386240694672,,,,,,,,,pilot1,2022-10-14_15h06.43.688,Hippopolis_Updating,2022.2.2,60.04455661570678,
Camponello,stimuli/subj_files/pilot1_cityB.csv,./stimuli/leipzig.jpg,./stimuli/street_plate2.png,KAKAÓ UTCA,stimuli/scenes/016a.jpg,scene,0,stimuli/scenes/016a.jpg,stimuli/scenes/075b.jpg,stimuli/scenes/075a.jpg,stimuli/scenes/016a.jpg,stimuli/scenes/016b.jpg,dist2,dist1,target,lure,0,1,1,1,0,56,56,18,,,,,,,1121.3331509791315,1122.3537128567696,1122.3537128567696,1122.3537128567696,1122.3537128567696,1125.3521609343588,1125.3521609343588,1125.3521609343588,1125.3521609343588,None,,,,,,,,,,pilot1,2022-10-14_15h06.43.688,Hippopolis_Updating,2022.2.2,60.04455661570678,
Camponello,stimuli/subj_files/pilot1_cityB.csv,./stimuli/leipzig.jpg,./stimuli/street_plate2.png,SZÚNYOG UTCA,stimuli/objects/084a.jpg,object,0,stimuli/objects/084a.jpg,stimuli/objects/084b.jpg,stimuli/objects/023b.jpg,stimuli/objects/084a.jpg,stimuli/objects/023a.jpg,lure,dist2,target,dist1,0,1,1,1,0,57,57,63,,,,,,,1128.3357820939273,1129.354870421812,1129.354870421812,1129.354870421812,1129.354870421812,1132.3665832336992,1132.3665832336992,1132.3665832336992,1132.3665832336992,None,1129.354870421812,,,,,,,,,pilot1,2022-10-14_15h06.43.688,Hippopolis_Updating,2022.2.2,60.04455661570678,
Camponello,stimuli/subj_files/pilot1_cityB.csv,./stimuli/leipzig.jpg,./stimuli/street_plate2.png,HEGESZTŐ UTCA,stimuli/objects/052a.jpg,object,0,stimuli/objects/052a.jpg,stimuli/objects/052a.jpg,stimuli/objects/067a.jpg,stimuli/objects/067b.jpg,stimuli/objects/052b.jpg,target,dist1,dist2,lure,0,1,1,1,0,58,58,66,,,,,,,1135.3501201104373,1136.3733180761337,1136.3733180761337,1136.3733180761337,1136.3733180761337,1139.3918472155929,1139.3918472155929,1139.3918472155929,1139.3918472155929,None,,,,,,,,,,pilot1,2022-10-14_15h06.43.688,Hippopolis_Updating,2022.2.2,60.04455661570678,
Camponello,stimuli/subj_files/pilot1_cityB.csv,./stimuli/leipzig.jpg,./stimuli/street_plate2.png,KÖRTE UTCA,stimuli/scenes/050a.jpg,scene,1,stimuli/scenes/019a.jpg,stimuli/scenes/019a.jpg,stimuli/objects/114b.jpg,stimuli/scenes/019b.jpg,stimuli/objects/114a.jpg,target,dist2,lure,dist1,0,1,1,1,0,59,59,20,,,,,,,1142.357644598931,1143.379126433283,1143.379126433283,1143.379126433283,1143.379126433283,1146.401515159756,1146.401515159756,1146.401515159756,1146.401515159756,None,,,,,,,,,,pilot1,2022-10-14_15h06.43.688,Hippopolis_Updating,2022.2.2,60.04455661570678,
Camponello,stimuli/subj_files/pilot1_cityB.csv,./stimuli/leipzig.jpg,./stimuli/street_plate2.png,KERÉK UTCA,stimuli/objects/085a.jpg,object,2,stimuli/scenes/053a.jpg,stimuli/scenes/052b.jpg,stimuli/scenes/053b.jpg,stimuli/scenes/052a.jpg,stimuli/scenes/053a.jpg,dist2,lure,dist1,target,0,1,1,1,0,60,60,43,,,,,,,1149.3656682521105,1150.3868969269097,1150.3868969269097,1150.3868969269097,1150.3868969269097,1153.405200585723,1153.405200585723,1153.405200585723,1153.405200585723,None,,,,,,,,,,pilot1,2022-10-14_15h06.43.688,Hippopolis_Updating,2022.2.2,60.04455661570678,
Camponello,stimuli/subj_files/pilot1_cityB.csv,./stimuli/leipzig.jpg,./stimuli/street_plate2.png,KESZTYŰ UTCA,stimuli/objects/082a.jpg,object,0,stimuli/objects/082a.jpg,stimuli/scenes/078a.jpg,stimuli/objects/082b.jpg,stimuli/scenes/078b.jpg,stimuli/objects/082a.jpg,dist1,lure,dist2,target,0,1,1,1,0,61,61,16,,,,,,,1156.3687801826745,1157.3871068563312,1157.3871068563312,1157.3871068563312,1157.3871068563312,1160.4036054350436,1160.4036054350436,1160.4036054350436,1160.4036054350436,None,1157.3871068563312,,,,,,,,,pilot1,2022-10-14_15h06.43.688,Hippopolis_Updating,2022.2.2,60.04455661570678,
Camponello,stimuli/subj_files/pilot1_cityB.csv,./stimuli/leipzig.jpg,./stimuli/street_plate2.png,TENGER UTCA,stimuli/scenes/037a.jpg,scene,1,stimuli/scenes/119a.jpg,stimuli/objects/081a.jpg,stimuli/objects/081b.jpg,stimuli/scenes/119a.jpg,stimuli/scenes/119b.jpg,dist1,dist2,target,lure,0,1,1,1,0,62,62,59,,,,,,,1163.3734269291162,1164.401107430458,1164.401107430458,1164.401107430458,1164.401107430458,1167.4043415859342,1167.4043415859342,1167.4043415859342,1167.4043415859342,None,,,,,,,,,,pilot1,2022-10-14_15h06.43.688,Hippopolis_Updating,2022.2.2,60.04455661570678,
Camponello,stimuli/subj_files/pilot1_cityB.csv,./stimuli/leipzig.jpg,./stimuli/street_plate2.png,MOCSÁR UTCA,stimuli/objects/031a.jpg,object,0,stimuli/objects/031a.jpg,stimuli/scenes/013a.jpg,stimuli/scenes/013b.jpg,stimuli/objects/031a.jpg,stimuli/objects/031b.jpg,dist1,dist2,target,lure,0,1,1,1,0,63,63,58,,,,,,,1170.3759392388165,1171.400970587507,1171.400970587507,1171.400970587507,1171.400970587507,1174.4222312960774,1174.4222312960774,1174.4222312960774,1174.4222312960774,None,,,,,,,,,,pilot1,2022-10-14_15h06.43.688,Hippopolis_Updating,2022.2.2,60.04455661570678,
Camponello,stimuli/subj_files/pilot1_cityB.csv,./stimuli/leipzig.jpg,./stimuli/street_plate2.png,HERING UTCA,stimuli/objects/032a.jpg,object,0,stimuli/objects/032a.jpg,stimuli/objects/032a.jpg,stimuli/scenes/082b.jpg,stimuli/scenes/082a.jpg,stimuli/objects/032b.jpg,target,dist2,dist1,lure,0,1,1,1,0,64,64,57,,,,,,,1177.3818464949727,1178.4027246646583,1178.4027246646583,1178.4027246646583,1178.4027246646583,1181.416006192565,1181.416006192565,1181.416006192565,1181.416006192565,None,,,,,,,,,,pilot1,2022-10-14_15h06.43.688,Hippopolis_Updating,2022.2.2,60.04455661570678,
Camponello,stimuli/subj_files/pilot1_cityB.csv,./stimuli/leipzig.jpg,./stimuli/street_plate2.png,LIMONÁDÉ UTCA,stimuli/scenes/082a.jpg,scene,0,stimuli/scenes/082a.jpg,stimuli/objects/002b.jpg,stimuli/scenes/082b.jpg,stimuli/scenes/082a.jpg,stimuli/objects/002a.jpg,dist2,lure,target,dist1,0,1,1,1,0,65,65,11,,,,,,,1184.3988361507654,1185.4282841030508,1185.4282841030508,1185.4282841030508,1185.4282841030508,1188.429168915376,1188.429168915376,1188.429168915376,1188.429168915376,None,,,,,,,,,,pilot1,2022-10-14_15h06.43.688,Hippopolis_Updating,2022.2.2,60.04455661570678,
Camponello,stimuli/subj_files/pilot1_cityB.csv,./stimuli/leipzig.jpg,./stimuli/street_plate2.png,TERASZ UTCA,stimuli/objects/050a.jpg,object,0,stimuli/objects/050a.jpg,stimuli/scenes/049a.jpg,stimuli/objects/050a.jpg,stimuli/objects/050b.jpg,stimuli/scenes/049b.jpg,dist1,target,lure,dist2,0,1,1,1,0,66,66,62,,,,,,,1191.4148703962564,1192.4358365815133,1192.4358365815133,1192.4358365815133,1192.4358365815133,1195.4469261374325,1195.4469261374325,1195.4469261374325,1195.4469261374325,None,,,,,,,,,,pilot1,2022-10-14_15h06.43.688,Hippopolis_Updating,2022.2.2,60.04455661570678,
Camponello,stimuli/subj_files/pilot1_cityB.csv,./stimuli/leipzig.jpg,./stimuli/street_plate2.png,LEVÉL UTCA,stimuli/objects/008a.jpg,object,0,stimuli/objects/008a.jpg,stimuli/objects/008b.jpg,stimuli/objects/008a.jpg,stimuli/objects/103a.jpg,stimuli/objects/103b.jpg,lure,target,dist1,dist2,0,1,1,1,0,67,67,41,,,,,,,1198.4369182623923,1199.468947255984,1199.468947255984,1199.468947255984,1199.468947255984,1202.4605180490762,1202.4605180490762,1202.4605180490762,1202.4605180490762,None,,,,,,,,,,pilot1,2022-10-14_15h06.43.688,Hippopolis_Updating,2022.2.2,60.04455661570678,
Camponello,stimuli/subj_files/pilot1_cityB.csv,./stimuli/leipzig.jpg,./stimuli/street_plate2.png,HARCSA UTCA,stimuli/objects/020a.jpg,object,0,stimuli/objects/020a.jpg,stimuli/objects/020a.jpg,stimuli/scenes/056a.jpg,stimuli/objects/020b.jpg,stimuli/scenes/056b.jpg,target,dist1,lure,dist2,0,1,1,1,0,68,68,19,,,,,,,1205.4486671499908,1206.4708188921213,1206.4708188921213,1206.4708188921213,1206.4708188921213,1209.4880679287016,1209.4880679287016,1209.4880679287016,1209.4880679287016,None,,,,,,,,,,pilot1,2022-10-14_15h06.43.688,Hippopolis_Updating,2022.2.2,60.04455661570678,
Camponello,stimuli/subj_files/pilot1_cityB.csv,./stimuli/leipzig.jpg,./stimuli/street_plate2.png,ÁLLOMÁS UTCA,stimuli/objects/001a.jpg,object,0,stimuli/objects/001a.jpg,stimuli/objects/001b.jpg,stimuli/objects/001a.jpg,stimuli/objects/107b.jpg,stimuli/objects/107a.jpg,lure,target,dist2,dist1,0,1,1,1,0,69,69,76,,,,,,,1212.4645399842411,1213.4852940626442,1213.4852940626442,1213.4852940626442,1213.4852940626442,1216.493644895032,1216.493644895032,1216.493644895032,1216.493644895032,None,,,,,,,,,,pilot1,2022-10-14_15h06.43.688,Hippopolis_Updating,2022.2.2,60.04455661570678,
Camponello,stimuli/subj_files/pilot1_cityB.csv,./stimuli/leipzig.jpg,./stimuli/street_plate2.png,KARTON UTCA,stimuli/objects/095a.jpg,object,0,stimuli/objects/095a.jpg,stimuli/scenes/005b.jpg,stimuli/scenes/005a.jpg,stimuli/objects/095a.jpg,stimuli/objects/095b.jpg,dist2,dist1,target,lure,0,1,1,1,0,70,70,77,,,,,,,1219.4737411085516,1220.5033206157386,1220.5033206157386,1220.5033206157386,1220.5033206157386,1223.4955697134137,1223.4955697134137,1223.4955697134137,1223.4955697134137,None,,,,,,,,,,pilot1,2022-10-14_15h06.43.688,Hippopolis_Updating,2022.2.2,60.04455661570678,
Camponello,stimuli/subj_files/pilot1_cityB.csv,./stimuli/leipzig.jpg,./stimuli/street_plate2.png,LÉPCSŐ UTCA,stimuli/objects/003a.jpg,object,0,stimuli/objects/003a.jpg,stimuli/scenes/010a.jpg,stimuli/scenes/010b.jpg,stimuli/objects/003b.jpg,stimuli/objects/003a.jpg,dist1,dist2,lure,target,0,1,1,1,0,71,71,34,,,,,,,1226.4905074629933,1227.5225286800414,1227.5225286800414,1227.5225286800414,1227.5225286800414,1230.5079972185194,1230.5079972185194,1230.5079972185194,1230.5079972185194,None,,,,,,,,,,pilot1,2022-10-14_15h06.43.688,Hippopolis_Updating,2022.2.2,60.04455661570678,
Camponello,stimuli/subj_files/pilot1_cityB.csv,./stimuli/leipzig.jpg,./stimuli/street_plate2.png,PALACK UTCA,stimuli/scenes/010a.jpg,scene,0,stimuli/scenes/010a.jpg,stimuli/scenes/010b.jpg,stimuli/scenes/010a.jpg,stimuli/scenes/033a.jpg,stimuli/scenes/033b.jpg,lure,target,dist1,dist2,0,1,1,1,0,72,72,46,,,,,,,1233.495367558673,1234.5159079767764,1234.5159079767764,1234.5159079767764,1234.5159079767764,1237.5128772184253,1237.5128772184253,1237.5128772184253,1237.5128772184253,None,,,,,,,,,,pilot1,2022-10-14_15h06.43.688,Hippopolis_Updating,2022.2.2,60.04455661570678,
Camponello,stimuli/subj_files/pilot1_cityB.csv,./stimuli/leipzig.jpg,./stimuli/street_plate2.png,PULÓVER UTCA,stimuli/scenes/091a.jpg,scene,1,stimuli/scenes/042a.jpg,stimuli/scenes/099b.jpg,stimuli/scenes/099a.jpg,stimuli/scenes/042a.jpg,stimuli/scenes/042b.jpg,dist2,dist1,target,lure,0,1,1,1,0,73,73,7,,,,,,,1240.4986048247665,1241.520230654627,1241.520230654627,1241.520230654627,1241.520230654627,1244.5194885935634,1244.5194885935634,1244.5194885935634,1244.5194885935634,None,,,,,,,,,,pilot1,2022-10-14_15h06.43.688,Hippopolis_Updating,2022.2.2,60.04455661570678,
Camponello,stimuli/subj_files/pilot1_cityB.csv,./stimuli/leipzig.jpg,./stimuli/street_plate2.png,CSAVARHÚZÓ UTCA,stimuli/objects/105a.jpg,object,2,stimuli/scenes/102a.jpg,stimuli/scenes/102b.jpg,stimuli/scenes/102a.jpg,stimuli/objects/082b.jpg,stimuli/objects/082a.jpg,lure,target,dist2,dist1,0,1,1,1,0,74,74,10,,,,,,,1247.5151929724962,1248.5432886686176,1248.5432886686176,1248.5432886686176,1248.5432886686176,1251.5763744618744,1251.5763744618744,1251.5763744618744,1251.5763744618744,None,,,,,,,,,,pilot1,2022-10-14_15h06.43.688,Hippopolis_Updating,2022.2.2,60.04455661570678,
Camponello,stimuli/subj_files/pilot1_cityB.csv,./stimuli/leipzig.jpg,./stimuli/street_plate2.png,PULYKA UTCA,stimuli/scenes/009a.jpg,scene,2,stimuli/objects/081a.jpg,stimuli/objects/081a.jpg,stimuli/objects/043b.jpg,stimuli/objects/043a.jpg,stimuli/objects/081b.jpg,target,dist2,dist1,lure,0,1,1,1,0,75,75,50,,,,,,,1254.5303380507976,1255.5566501244903,1255.5566501244903,1255.5566501244903,1255.5566501244903,1258.5536896549165,1258.5536896549165,1258.5536896549165,1258.5536896549165,None,,,,,,,,,,pilot1,2022-10-14_15h06.43.688,Hippopolis_Updating,2022.2.2,60.04455661570678,
Camponello,stimuli/subj_files/pilot1_cityB.csv,./stimuli/leipzig.jpg,./stimuli/street_plate2.png,SAPKA UTCA,stimuli/objects/092a.jpg,object,0,stimuli/objects/092a.jpg,stimuli/scenes/093a.jpg,stimuli/scenes/093b.jpg,stimuli/objects/092a.jpg,stimuli/objects/092b.jpg,dist1,dist2,target,lure,0,1,1,1,0,76,76,53,,,,,,,1261.5316626280546,1262.551197560504,1262.551197560504,1262.551197560504,1262.551197560504,1265.568296071142,1265.568296071142,1265.568296071142,1265.568296071142,None,,,,,,,,,,pilot1,2022-10-14_15h06.43.688,Hippopolis_Updating,2022.2.2,60.04455661570678,
Camponello,stimuli/subj_files/pilot1_cityB.csv,./stimuli/leipzig.jpg,./stimuli/street_plate2.png,HENTES UTCA,stimuli/objects/063a.jpg,object,2,stimuli/scenes/090a.jpg,stimuli/scenes/090a.jpg,stimuli/scenes/019b.jpg,stimuli/scenes/019a.jpg,stimuli/scenes/090b.jpg,target,dist2,dist1,lure,0,1,1,1,0,77,77,56,,,,,,,1268.5337373502553,1269.5521840732545,1269.5521840732545,1269.5521840732545,1269.5521840732545,1272.5837782789022,1272.5837782789022,1272.5837782789022,1272.5837782789022,None,,,,,,,,,,pilot1,2022-10-14_15h06.43.688,Hippopolis_Updating,2022.2.2,60.04455661570678,
Camponello,stimuli/subj_files/pilot1_cityB.csv,./stimuli/leipzig.jpg,./stimuli/street_plate2.png,SUGÁR UTCA,stimuli/objects/098a.jpg,object,1,stimuli/objects/019a.jpg,stimuli/objects/019b.jpg,stimuli/scenes/042a.jpg,stimuli/scenes/042b.jpg,stimuli/objects/019a.jpg,lure,dist1,dist2,target,0,1,1,1,0,78,78,3,,,,,,,1275.5502894222736,1276.5680621936917,1276.5680621936917,1276.5680621936917,1276.5680621936917,1279.586210038513,1279.586210038513,1279.586210038513,1279.586210038513,None,,,,,,,,,,pilot1,2022-10-14_15h06.43.688,Hippopolis_Updating,2022.2.2,60.04455661570678,
Camponello,stimuli/subj_files/pilot1_cityB.csv,./stimuli/leipzig.jpg,./stimuli/street_plate2.png,SZEKRÉNY UTCA,stimuli/objects/112a.jpg,object,0,stimuli/objects/112a.jpg,stimuli/objects/112a.jpg,stimuli/objects/020a.jpg,stimuli/objects/020b.jpg,stimuli/objects/112b.jpg,target,dist1,dist2,lure,0,1,1,1,0,79,79,33,,,,,,,1282.5505736824125,1283.570353999734,1283.570353999734,1283.570353999734,1283.570353999734,1286.5780445653945,1286.5780445653945,1286.5780445653945,1286.5780445653945,None,1283.570353999734,,,,,,,,,pilot1,2022-10-14_15h06.43.688,Hippopolis_Updating,2022.2.2,60.04455661570678,
,,,,,,,,,,,,,,,,,,,,,,,,,,,,,,,,,,,,,,,,,,,,,,,None,,1289.5642921738327,,,,,,
