CityName,StimuliFile,CityImage,StreetSign,Cue,Image,Category,Novelty,UpdateImage,TestImage1,TestImage2,TestImage3,TestImage4,TestImage1Type,TestImage2Type,TestImage3Type,TestImage4Type,CityBlock.thisRepN,CityBlock.thisTrialN,CityBlock.thisN,CityBlock.thisIndex,LearningTrials.thisRepN,LearningTrials.thisTrialN,LearningTrials.thisN,LearningTrials.thisIndex,trials.thisRepN,trials.thisTrialN,trials.thisN,trials.thisIndex,learning_instructions_text.started,learning_instructions_text.stopped,intro_key.keys,intro_key.rt,intro_key.started,intro_key.stopped,cityname_text.started,cityname_text.stopped,city_image.started,city_image.stopped,plate.started,plate.stopped,city_text.started,city_text.stopped,street_text.started,street_text.stopped,learning_image.started,learning_image.stopped,fx_cross.started,fx_cross.stopped,short_break_text.started,short_break_text.stopped,short_break_key.keys,short_break_key.started,short_break_key.stopped,short_break_key.rt,test_text.started,test_text.stopped,key_resp.keys,key_resp.rt,key_resp.started,key_resp.stopped,plate_test.started,plate_test.stopped,city_text_test.started,city_text_test.stopped,street_text_test.started,street_text_test.stopped,test_question.started,test_question.stopped,test_key_resp.keys,test_key_resp.started,test_key_resp.stopped,button_image.started,button_image.stopped,plate_verbal.started,plate_verbal.stopped,street_text_verbal.started,street_text_verbal.stopped,city_text_verbal.started,city_text_verbal.stopped,question_verbal.started,question_verbal.stopped,verbal_test_key_resp.keys,verbal_test_key_resp.started,verbal_test_key_resp.stopped,test_key_resp.rt,verbal_test_key_resp.rt,break_text.started,break_text.stopped,break_key_resp.keys,break_key_resp.rt,break_key_resp.started,break_key_resp.stopped,end_text.started,end_text.stopped,participant,date,expName,psychopyVersion,frameRate
,,,,,,,,,,,,,,,,,,,,,,,,,,,,,18.56567619,None,space,18.26297722,18.56567619,None,,,,,,,,,,,,,,,,,,,,,,,,,,,,,,,,,,,,,,,,,,,,,,,,,,,,,,,,,,,,,pilot1,2022_Jun_16_0904,Hippopolis_Learning,2021.1.4,59.99488753
Hippopolis,stimuli/subj_files/pilot1_cityA.csv,./stimuli/frankfurt.jpg,./stimuli/street_plate1.png,HARMONIKA UTCA,stimuli/scenes/028a.jpg,scene,2,stimuli/objects/099a.jpg,stimuli/objects/099a.jpg,stimuli/objects/015b.jpg,stimuli/objects/015a.jpg,stimuli/objects/099b.jpg,target,dist2,dist1,lure,0,0,0,0,0,0,0,63,,,,,,,,,,,37.08985509,None,37.08985509,None,39.98286914,None,39.98286914,None,39.98286914,None,39.98286914,None,42.8730496,None,None,None,None,None,None,,,,,,,,,,,,,,,,,,,,,,,,,,,,,,,,,,,,,,,,,,pilot1,2022_Jun_16_0904,Hippopolis_Learning,2021.1.4,59.99488753
Hippopolis,stimuli/subj_files/pilot1_cityA.csv,./stimuli/frankfurt.jpg,./stimuli/street_plate1.png,VITORLA UTCA,stimuli/scenes/086a.jpg,scene,2,stimuli/objects/015a.jpg,stimuli/objects/015b.jpg,stimuli/objects/115a.jpg,stimuli/objects/015a.jpg,stimuli/objects/115b.jpg,lure,dist1,target,dist2,0,0,0,0,0,1,1,77,,,,,,,,,,,,,,,43.93435055,None,43.93435055,None,43.93435055,None,43.93435055,None,46.88615946,None,None,None,None,None,None,,,,,,,,,,,,,,,,,,,,,,,,,,,,,,,,,,,,,,,,,,pilot1,2022_Jun_16_0904,Hippopolis_Learning,2021.1.4,59.99488753
Hippopolis,stimuli/subj_files/pilot1_cityA.csv,./stimuli/frankfurt.jpg,./stimuli/street_plate1.png,LOVAGLÁS UTCA,stimuli/objects/110a.jpg,object,1,stimuli/objects/010a.jpg,stimuli/objects/010b.jpg,stimuli/scenes/007a.jpg,stimuli/objects/010a.jpg,stimuli/scenes/007b.jpg,lure,dist1,target,dist2,0,0,0,0,0,2,2,22,,,,,,,,,,,,,,,47.92115703,None,47.92115703,None,47.92115703,None,47.92115703,None,50.90278992,None,None,None,None,None,None,,,,,,,,,,,,,,,,,,,,,,,,,,,,,,,,,,,,,,,,,,pilot1,2022_Jun_16_0904,Hippopolis_Learning,2021.1.4,59.99488753
Hippopolis,stimuli/subj_files/pilot1_cityA.csv,./stimuli/frankfurt.jpg,./stimuli/street_plate1.png,MAJORÁNNA UTCA,stimuli/objects/068a.jpg,object,0,stimuli/objects/068a.jpg,stimuli/objects/068a.jpg,stimuli/scenes/118a.jpg,stimuli/objects/068b.jpg,stimuli/scenes/118b.jpg,target,dist1,lure,dist2,0,0,0,0,0,3,3,57,,,,,,,,,,,,,,,51.96488051,None,51.96488051,None,51.96488051,None,51.96488051,None,54.90818899,None,None,None,None,None,None,,,,,,,,,,,,,,,,,,,,,,,,,,,,,,,,,,,,,,,,,,pilot1,2022_Jun_16_0904,Hippopolis_Learning,2021.1.4,59.99488753
Hippopolis,stimuli/subj_files/pilot1_cityA.csv,./stimuli/frankfurt.jpg,./stimuli/street_plate1.png,TÁBLA UTCA,stimuli/objects/118a.jpg,object,1,stimuli/objects/042a.jpg,stimuli/scenes/084a.jpg,stimuli/scenes/084b.jpg,stimuli/objects/042a.jpg,stimuli/objects/042b.jpg,dist1,dist2,target,lure,0,0,0,0,0,4,4,78,,,,,,,,,,,,,,,55.91995717,None,55.91995717,None,55.91995717,None,55.91995717,None,58.90731537,None,None,None,None,None,None,,,,,,,,,,,,,,,,,,,,,,,,,,,,,,,,,,,,,,,,,,pilot1,2022_Jun_16_0904,Hippopolis_Learning,2021.1.4,59.99488753
Hippopolis,stimuli/subj_files/pilot1_cityA.csv,./stimuli/frankfurt.jpg,./stimuli/street_plate1.png,DARU UTCA,stimuli/scenes/035a.jpg,scene,1,stimuli/scenes/080a.jpg,stimuli/scenes/080b.jpg,stimuli/objects/010b.jpg,stimuli/objects/010a.jpg,stimuli/scenes/080a.jpg,lure,dist2,dist1,target,0,0,0,0,0,5,5,41,,,,,,,,,,,,,,,59.95265889,None,59.95265889,None,59.95265889,None,59.95265889,None,62.92297331,None,None,None,None,None,None,,,,,,,,,,,,,,,,,,,,,,,,,,,,,,,,,,,,,,,,,,pilot1,2022_Jun_16_0904,Hippopolis_Learning,2021.1.4,59.99488753
Hippopolis,stimuli/subj_files/pilot1_cityA.csv,./stimuli/frankfurt.jpg,./stimuli/street_plate1.png,FOGÓ UTCA,stimuli/scenes/072a.jpg,scene,0,stimuli/scenes/072a.jpg,stimuli/scenes/072b.jpg,stimuli/scenes/072a.jpg,stimuli/objects/104b.jpg,stimuli/objects/104a.jpg,lure,target,dist2,dist1,0,0,0,0,0,6,6,70,,,,,,,,,,,,,,,63.95796,None,63.95796,None,63.95796,None,63.95796,None,66.93118077,None,None,None,None,None,None,,,,,,,,,,,,,,,,,,,,,,,,,,,,,,,,,,,,,,,,,,pilot1,2022_Jun_16_0904,Hippopolis_Learning,2021.1.4,59.99488753
Hippopolis,stimuli/subj_files/pilot1_cityA.csv,./stimuli/frankfurt.jpg,./stimuli/street_plate1.png,MARTINI UTCA,stimuli/scenes/069a.jpg,scene,0,stimuli/scenes/069a.jpg,stimuli/objects/065a.jpg,stimuli/scenes/069b.jpg,stimuli/scenes/069a.jpg,stimuli/objects/065b.jpg,dist1,lure,target,dist2,0,0,0,0,0,7,7,54,,,,,,,,,,,,,,,67.99630213,None,67.99630213,None,67.99630213,None,67.99630213,None,70.93999004,None,None,None,None,None,None,,,,,,,,,,,,,,,,,,,,,,,,,,,,,,,,,,,,,,,,,,pilot1,2022_Jun_16_0904,Hippopolis_Learning,2021.1.4,59.99488753
Hippopolis,stimuli/subj_files/pilot1_cityA.csv,./stimuli/frankfurt.jpg,./stimuli/street_plate1.png,VÁSÁR UTCA,stimuli/objects/060a.jpg,object,1,stimuli/objects/076a.jpg,stimuli/objects/076b.jpg,stimuli/objects/076a.jpg,stimuli/objects/080b.jpg,stimuli/objects/080a.jpg,lure,target,dist2,dist1,0,0,0,0,0,8,8,40,,,,,,,,,,,,,,,71.99923648,None,71.99923648,None,71.99923648,None,71.99923648,None,74.96029503,None,None,None,None,None,None,,,,,,,,,,,,,,,,,,,,,,,,,,,,,,,,,,,,,,,,,,pilot1,2022_Jun_16_0904,Hippopolis_Learning,2021.1.4,59.99488753
Hippopolis,stimuli/subj_files/pilot1_cityA.csv,./stimuli/frankfurt.jpg,./stimuli/street_plate1.png,POHÁR UTCA,stimuli/scenes/062a.jpg,scene,1,stimuli/scenes/064a.jpg,stimuli/scenes/064a.jpg,stimuli/scenes/006b.jpg,stimuli/scenes/006a.jpg,stimuli/scenes/064b.jpg,target,dist2,dist1,lure,0,0,0,0,0,9,9,38,,,,,,,,,,,,,,,75.98537771,None,75.98537771,None,75.98537771,None,75.98537771,None,78.95726707,None,None,None,None,None,None,,,,,,,,,,,,,,,,,,,,,,,,,,,,,,,,,,,,,,,,,,pilot1,2022_Jun_16_0904,Hippopolis_Learning,2021.1.4,59.99488753
Hippopolis,stimuli/subj_files/pilot1_cityA.csv,./stimuli/frankfurt.jpg,./stimuli/street_plate1.png,MANDARIN UTCA,stimuli/scenes/047a.jpg,scene,1,stimuli/scenes/024a.jpg,stimuli/scenes/024a.jpg,stimuli/scenes/024b.jpg,stimuli/scenes/069a.jpg,stimuli/scenes/069b.jpg,target,lure,dist1,dist2,0,0,0,0,0,10,10,60,,,,,,,,,,,,,,,79.99751661,None,79.99751661,None,79.99751661,None,79.99751661,None,82.97639429,None,None,None,None,None,None,,,,,,,,,,,,,,,,,,,,,,,,,,,,,,,,,,,,,,,,,,pilot1,2022_Jun_16_0904,Hippopolis_Learning,2021.1.4,59.99488753
Hippopolis,stimuli/subj_files/pilot1_cityA.csv,./stimuli/frankfurt.jpg,./stimuli/street_plate1.png,ZSÁLYA UTCA,stimuli/objects/034a.jpg,object,2,stimuli/scenes/117a.jpg,stimuli/scenes/117b.jpg,stimuli/scenes/001b.jpg,stimuli/scenes/117a.jpg,stimuli/scenes/001a.jpg,lure,dist2,target,dist1,0,0,0,0,0,11,11,33,,,,,,,,,,,,,,,84.04348183,None,84.04348183,None,84.04348183,None,84.04348183,None,86.99207058,None,None,None,None,None,None,,,,,,,,,,,,,,,,,,,,,,,,,,,,,,,,,,,,,,,,,,pilot1,2022_Jun_16_0904,Hippopolis_Learning,2021.1.4,59.99488753
Hippopolis,stimuli/subj_files/pilot1_cityA.csv,./stimuli/frankfurt.jpg,./stimuli/street_plate1.png,LÁNDZSA UTCA,stimuli/scenes/041a.jpg,scene,1,stimuli/scenes/116a.jpg,stimuli/scenes/116b.jpg,stimuli/scenes/116a.jpg,stimuli/objects/100a.jpg,stimuli/objects/100b.jpg,lure,target,dist1,dist2,0,0,0,0,0,12,12,32,,,,,,,,,,,,,,,88.02562134,None,88.02562134,None,88.02562134,None,88.02562134,None,90.99768829,None,None,None,None,None,None,,,,,,,,,,,,,,,,,,,,,,,,,,,,,,,,,,,,,,,,,,pilot1,2022_Jun_16_0904,Hippopolis_Learning,2021.1.4,59.99488753
Hippopolis,stimuli/subj_files/pilot1_cityA.csv,./stimuli/frankfurt.jpg,./stimuli/street_plate1.png,PÉKSÉG UTCA,stimuli/objects/030a.jpg,object,0,stimuli/objects/030a.jpg,stimuli/objects/030a.jpg,stimuli/objects/073a.jpg,stimuli/objects/030b.jpg,stimuli/objects/073b.jpg,target,dist1,lure,dist2,0,0,0,0,0,13,13,48,,,,,,,,,,,,,,,92.0366739,None,92.0366739,None,92.0366739,None,92.0366739,None,95.00831974,None,None,None,None,None,None,,,,,,,,,,,,,,,,,,,,,,,,,,,,,,,,,,,,,,,,,,pilot1,2022_Jun_16_0904,Hippopolis_Learning,2021.1.4,59.99488753
Hippopolis,stimuli/subj_files/pilot1_cityA.csv,./stimuli/frankfurt.jpg,./stimuli/street_plate1.png,TEHÉN UTCA,stimuli/objects/006a.jpg,object,1,stimuli/objects/017a.jpg,stimuli/objects/017a.jpg,stimuli/objects/017b.jpg,stimuli/scenes/113b.jpg,stimuli/scenes/113a.jpg,target,lure,dist2,dist1,0,0,0,0,0,14,14,28,,,,,,,,,,,,,,,96.03467537,None,96.03467537,None,96.03467537,None,96.03467537,None,99.01004769,None,None,None,None,None,None,,,,,,,,,,,,,,,,,,,,,,,,,,,,,,,,,,,,,,,,,,pilot1,2022_Jun_16_0904,Hippopolis_Learning,2021.1.4,59.99488753
Hippopolis,stimuli/subj_files/pilot1_cityA.csv,./stimuli/frankfurt.jpg,./stimuli/street_plate1.png,SZÖCSKE UTCA,stimuli/objects/057a.jpg,object,0,stimuli/objects/057a.jpg,stimuli/objects/057b.jpg,stimuli/objects/057a.jpg,stimuli/scenes/045b.jpg,stimuli/scenes/045a.jpg,lure,target,dist2,dist1,0,0,0,0,0,15,15,14,,,,,,,,,,,,,,,100.0276065,None,100.0276065,None,100.0276065,None,100.0276065,None,103.0263503,None,None,None,None,None,None,,,,,,,,,,,,,,,,,,,,,,,,,,,,,,,,,,,,,,,,,,pilot1,2022_Jun_16_0904,Hippopolis_Learning,2021.1.4,59.99488753
Hippopolis,stimuli/subj_files/pilot1_cityA.csv,./stimuli/frankfurt.jpg,./stimuli/street_plate1.png,TRIATLON UTCA,stimuli/objects/119a.jpg,object,2,stimuli/scenes/018a.jpg,stimuli/objects/017a.jpg,stimuli/objects/017b.jpg,stimuli/scenes/018b.jpg,stimuli/scenes/018a.jpg,dist1,dist2,lure,target,0,0,0,0,0,16,16,75,,,,,,,,,,,,,,,104.0598765,None,104.0598765,None,104.0598765,None,104.0598765,None,107.050625,None,None,None,None,None,None,,,,,,,,,,,,,,,,,,,,,,,,,,,,,,,,,,,,,,,,,,pilot1,2022_Jun_16_0904,Hippopolis_Learning,2021.1.4,59.99488753
Hippopolis,stimuli/subj_files/pilot1_cityA.csv,./stimuli/frankfurt.jpg,./stimuli/street_plate1.png,ÁRNYÉK UTCA,stimuli/scenes/088a.jpg,scene,0,stimuli/scenes/088a.jpg,stimuli/scenes/088a.jpg,stimuli/objects/038a.jpg,stimuli/objects/038b.jpg,stimuli/scenes/088b.jpg,target,dist1,dist2,lure,0,0,0,0,0,17,17,42,,,,,,,,,,,,,,,108.0638969,None,108.0638969,None,108.0638969,None,108.0638969,None,111.059749,None,None,None,None,None,None,,,,,,,,,,,,,,,,,,,,,,,,,,,,,,,,,,,,,,,,,,pilot1,2022_Jun_16_0904,Hippopolis_Learning,2021.1.4,59.99488753
Hippopolis,stimuli/subj_files/pilot1_cityA.csv,./stimuli/frankfurt.jpg,./stimuli/street_plate1.png,PADLÓ UTCA,stimuli/objects/053a.jpg,object,0,stimuli/objects/053a.jpg,stimuli/objects/053a.jpg,stimuli/objects/053b.jpg,stimuli/objects/064b.jpg,stimuli/objects/064a.jpg,target,lure,dist2,dist1,0,0,0,0,0,18,18,74,,,,,,,,,,,,,,,112.1028527,None,112.1028527,None,112.1028527,None,112.1028527,None,115.0736995,None,None,None,None,None,None,,,,,,,,,,,,,,,,,,,,,,,,,,,,,,,,,,,,,,,,,,pilot1,2022_Jun_16_0904,Hippopolis_Learning,2021.1.4,59.99488753
Hippopolis,stimuli/subj_files/pilot1_cityA.csv,./stimuli/frankfurt.jpg,./stimuli/street_plate1.png,FECSKE UTCA,stimuli/objects/106a.jpg,object,2,stimuli/scenes/051a.jpg,stimuli/scenes/116b.jpg,stimuli/scenes/051b.jpg,stimuli/scenes/116a.jpg,stimuli/scenes/051a.jpg,dist2,lure,dist1,target,0,0,0,0,0,19,19,49,,,,,,,,,,,,,,,116.0964435,None,116.0964435,None,116.0964435,None,116.0964435,None,119.0794905,None,None,None,None,None,None,,,,,,,,,,,,,,,,,,,,,,,,,,,,,,,,,,,,,,,,,,pilot1,2022_Jun_16_0904,Hippopolis_Learning,2021.1.4,59.99488753
Hippopolis,stimuli/subj_files/pilot1_cityA.csv,./stimuli/frankfurt.jpg,./stimuli/street_plate1.png,KOKTÉL UTCA,stimuli/scenes/106a.jpg,scene,1,stimuli/scenes/096a.jpg,stimuli/scenes/096a.jpg,stimuli/scenes/096b.jpg,stimuli/objects/042a.jpg,stimuli/objects/042b.jpg,target,lure,dist1,dist2,0,0,0,0,0,20,20,44,,,,,,,,,,,,,,,120.0994867,None,120.0994867,None,120.0994867,None,120.0994867,None,123.0828217,None,None,None,None,None,None,,,,,,,,,,,,,,,,,,,,,,,,,,,,,,,,,,,,,,,,,,pilot1,2022_Jun_16_0904,Hippopolis_Learning,2021.1.4,59.99488753
Hippopolis,stimuli/subj_files/pilot1_cityA.csv,./stimuli/frankfurt.jpg,./stimuli/street_plate1.png,ZSEMLE UTCA,stimuli/objects/035a.jpg,object,2,stimuli/scenes/100a.jpg,stimuli/objects/120a.jpg,stimuli/scenes/100b.jpg,stimuli/objects/120b.jpg,stimuli/scenes/100a.jpg,dist1,lure,dist2,target,0,0,0,0,0,21,21,27,,,,,,,,,,,,,,,124.1317169,None,124.1317169,None,124.1317169,None,124.1317169,None,127.1052748,None,None,None,None,None,None,,,,,,,,,,,,,,,,,,,,,,,,,,,,,,,,,,,,,,,,,,pilot1,2022_Jun_16_0904,Hippopolis_Learning,2021.1.4,59.99488753
Hippopolis,stimuli/subj_files/pilot1_cityA.csv,./stimuli/frankfurt.jpg,./stimuli/street_plate1.png,ÁLOM UTCA,stimuli/scenes/031a.jpg,scene,1,stimuli/scenes/114a.jpg,stimuli/scenes/114b.jpg,stimuli/scenes/080b.jpg,stimuli/scenes/114a.jpg,stimuli/scenes/080a.jpg,lure,dist2,target,dist1,0,0,0,0,0,22,22,15,,,,,,,,,,,,,,,128.1357513,None,128.1357513,None,128.1357513,None,128.1357513,None,131.1065163,None,None,None,None,None,None,,,,,,,,,,,,,,,,,,,,,,,,,,,,,,,,,,,,,,,,,,pilot1,2022_Jun_16_0904,Hippopolis_Learning,2021.1.4,59.99488753
Hippopolis,stimuli/subj_files/pilot1_cityA.csv,./stimuli/frankfurt.jpg,./stimuli/street_plate1.png,KIRAKÓ UTCA,stimuli/scenes/021a.jpg,scene,1,stimuli/scenes/020a.jpg,stimuli/objects/022b.jpg,stimuli/objects/022a.jpg,stimuli/scenes/020a.jpg,stimuli/scenes/020b.jpg,dist2,dist1,target,lure,0,0,0,0,0,23,23,59,,,,,,,,,,,,,,,132.1642028,None,132.1642028,None,132.1642028,None,132.1642028,None,135.1260581,None,None,None,None,None,None,,,,,,,,,,,,,,,,,,,,,,,,,,,,,,,,,,,,,,,,,,pilot1,2022_Jun_16_0904,Hippopolis_Learning,2021.1.4,59.99488753
Hippopolis,stimuli/subj_files/pilot1_cityA.csv,./stimuli/frankfurt.jpg,./stimuli/street_plate1.png,BONBON UTCA,stimuli/scenes/022a.jpg,scene,0,stimuli/scenes/022a.jpg,stimuli/scenes/022a.jpg,stimuli/scenes/022b.jpg,stimuli/scenes/018a.jpg,stimuli/scenes/018b.jpg,target,lure,dist1,dist2,0,0,0,0,0,24,24,43,,,,,,,,,,,,,,,136.1444893,None,136.1444893,None,136.1444893,None,136.1444893,None,139.1424849,None,None,None,None,None,None,,,,,,,,,,,,,,,,,,,,,,,,,,,,,,,,,,,,,,,,,,pilot1,2022_Jun_16_0904,Hippopolis_Learning,2021.1.4,59.99488753
Hippopolis,stimuli/subj_files/pilot1_cityA.csv,./stimuli/frankfurt.jpg,./stimuli/street_plate1.png,RIBIZLI UTCA,stimuli/scenes/017a.jpg,scene,0,stimuli/scenes/017a.jpg,stimuli/scenes/068b.jpg,stimuli/scenes/017a.jpg,stimuli/scenes/068a.jpg,stimuli/scenes/017b.jpg,dist2,target,dist1,lure,0,0,0,0,0,25,25,37,,,,,,,,,,,,,,,140.1616895,None,140.1616895,None,140.1616895,None,140.1616895,None,143.1559592,None,None,None,None,None,None,,,,,,,,,,,,,,,,,,,,,,,,,,,,,,,,,,,,,,,,,,pilot1,2022_Jun_16_0904,Hippopolis_Learning,2021.1.4,59.99488753
Hippopolis,stimuli/subj_files/pilot1_cityA.csv,./stimuli/frankfurt.jpg,./stimuli/street_plate1.png,BÚJÓCSKA UTCA,stimuli/objects/025a.jpg,object,2,stimuli/scenes/001a.jpg,stimuli/scenes/096b.jpg,stimuli/scenes/001a.jpg,stimuli/scenes/096a.jpg,stimuli/scenes/001b.jpg,dist2,target,dist1,lure,0,0,0,0,0,26,26,7,,,,,,,,,,,,,,,144.1840795,None,144.1840795,None,144.1840795,None,144.1840795,None,147.1577273,None,None,None,None,None,None,,,,,,,,,,,,,,,,,,,,,,,,,,,,,,,,,,,,,,,,,,pilot1,2022_Jun_16_0904,Hippopolis_Learning,2021.1.4,59.99488753
Hippopolis,stimuli/subj_files/pilot1_cityA.csv,./stimuli/frankfurt.jpg,./stimuli/street_plate1.png,KESELYŰ UTCA,stimuli/scenes/027a.jpg,scene,2,stimuli/objects/101a.jpg,stimuli/scenes/044a.jpg,stimuli/objects/101a.jpg,stimuli/objects/101b.jpg,stimuli/scenes/044b.jpg,dist1,target,lure,dist2,0,0,0,0,0,27,27,4,,,,,,,,,,,,,,,148.1880871,None,148.1880871,None,148.1880871,None,148.1880871,None,151.1745739,None,None,None,None,None,None,,,,,,,,,,,,,,,,,,,,,,,,,,,,,,,,,,,,,,,,,,pilot1,2022_Jun_16_0904,Hippopolis_Learning,2021.1.4,59.99488753
Hippopolis,stimuli/subj_files/pilot1_cityA.csv,./stimuli/frankfurt.jpg,./stimuli/street_plate1.png,TENISZ UTCA,stimuli/objects/089a.jpg,object,2,stimuli/scenes/120a.jpg,stimuli/objects/040a.jpg,stimuli/objects/040b.jpg,stimuli/scenes/120b.jpg,stimuli/scenes/120a.jpg,dist1,dist2,lure,target,0,0,0,0,0,28,28,0,,,,,,,,,,,,,,,152.2219514,None,152.2219514,None,152.2219514,None,152.2219514,None,155.1751502,None,None,None,None,None,None,,,,,,,,,,,,,,,,,,,,,,,,,,,,,,,,,,,,,,,,,,pilot1,2022_Jun_16_0904,Hippopolis_Learning,2021.1.4,59.99488753
Hippopolis,stimuli/subj_files/pilot1_cityA.csv,./stimuli/frankfurt.jpg,./stimuli/street_plate1.png,LEPKE UTCA,stimuli/scenes/046a.jpg,scene,0,stimuli/scenes/046a.jpg,stimuli/scenes/094a.jpg,stimuli/scenes/046a.jpg,stimuli/scenes/046b.jpg,stimuli/scenes/094b.jpg,dist1,target,lure,dist2,0,0,0,0,0,29,29,61,,,,,,,,,,,,,,,156.2142232,None,156.2142232,None,156.2142232,None,156.2142232,None,159.1911596,None,None,None,None,None,None,,,,,,,,,,,,,,,,,,,,,,,,,,,,,,,,,,,,,,,,,,pilot1,2022_Jun_16_0904,Hippopolis_Learning,2021.1.4,59.99488753
Hippopolis,stimuli/subj_files/pilot1_cityA.csv,./stimuli/frankfurt.jpg,./stimuli/street_plate1.png,SZIKLA UTCA,stimuli/objects/077a.jpg,object,1,stimuli/objects/072a.jpg,stimuli/scenes/017b.jpg,stimuli/objects/072a.jpg,stimuli/scenes/017a.jpg,stimuli/objects/072b.jpg,dist2,target,dist1,lure,0,0,0,0,0,30,30,1,,,,,,,,,,,,,,,160.2261581,None,160.2261581,None,160.2261581,None,160.2261581,None,163.1991213,None,None,None,None,None,None,,,,,,,,,,,,,,,,,,,,,,,,,,,,,,,,,,,,,,,,,,pilot1,2022_Jun_16_0904,Hippopolis_Learning,2021.1.4,59.99488753
Hippopolis,stimuli/subj_files/pilot1_cityA.csv,./stimuli/frankfurt.jpg,./stimuli/street_plate1.png,GYŰRŰ UTCA,stimuli/scenes/007a.jpg,scene,0,stimuli/scenes/007a.jpg,stimuli/scenes/076a.jpg,stimuli/scenes/007b.jpg,stimuli/scenes/007a.jpg,stimuli/scenes/076b.jpg,dist1,lure,target,dist2,0,0,0,0,0,31,31,76,,,,,,,,,,,,,,,164.2550235,None,164.2550235,None,164.2550235,None,164.2550235,None,167.2077026,None,None,None,None,None,None,,,,,,,,,,,,,,,,,,,,,,,,,,,,,,,,,,,,,,,,,,pilot1,2022_Jun_16_0904,Hippopolis_Learning,2021.1.4,59.99488753
Hippopolis,stimuli/subj_files/pilot1_cityA.csv,./stimuli/frankfurt.jpg,./stimuli/street_plate1.png,TÖLCSÉR UTCA,stimuli/scenes/068a.jpg,scene,0,stimuli/scenes/068a.jpg,stimuli/objects/039a.jpg,stimuli/scenes/068a.jpg,stimuli/scenes/068b.jpg,stimuli/objects/039b.jpg,dist1,target,lure,dist2,0,0,0,0,0,32,32,46,,,,,,,,,,,,,,,168.2358686,None,168.2358686,None,168.2358686,None,168.2358686,None,171.2231233,None,None,None,None,None,None,,,,,,,,,,,,,,,,,,,,,,,,,,,,,,,,,,,,,,,,,,pilot1,2022_Jun_16_0904,Hippopolis_Learning,2021.1.4,59.99488753
Hippopolis,stimuli/subj_files/pilot1_cityA.csv,./stimuli/frankfurt.jpg,./stimuli/street_plate1.png,KÖTÉNY UTCA,stimuli/scenes/108a.jpg,scene,2,stimuli/objects/066a.jpg,stimuli/objects/072b.jpg,stimuli/objects/072a.jpg,stimuli/objects/066b.jpg,stimuli/objects/066a.jpg,dist2,dist1,lure,target,0,0,0,0,0,33,33,36,,,,,,,,,,,,,,,172.2464161,None,172.2464161,None,172.2464161,None,172.2464161,None,175.2232017,None,None,None,None,None,None,,,,,,,,,,,,,,,,,,,,,,,,,,,,,,,,,,,,,,,,,,pilot1,2022_Jun_16_0904,Hippopolis_Learning,2021.1.4,59.99488753
Hippopolis,stimuli/subj_files/pilot1_cityA.csv,./stimuli/frankfurt.jpg,./stimuli/street_plate1.png,MENTA UTCA,stimuli/objects/088a.jpg,object,1,stimuli/objects/054a.jpg,stimuli/scenes/088b.jpg,stimuli/scenes/088a.jpg,stimuli/objects/054b.jpg,stimuli/objects/054a.jpg,dist2,dist1,lure,target,0,0,0,0,0,34,34,26,,,,,,,,,,,,,,,176.248117,None,176.248117,None,176.248117,None,176.248117,None,179.2297378,None,None,None,None,None,None,,,,,,,,,,,,,,,,,,,,,,,,,,,,,,,,,,,,,,,,,,pilot1,2022_Jun_16_0904,Hippopolis_Learning,2021.1.4,59.99488753
Hippopolis,stimuli/subj_files/pilot1_cityA.csv,./stimuli/frankfurt.jpg,./stimuli/street_plate1.png,SZILVA UTCA,stimuli/objects/059a.jpg,object,2,stimuli/scenes/070a.jpg,stimuli/scenes/114b.jpg,stimuli/scenes/070a.jpg,stimuli/scenes/070b.jpg,stimuli/scenes/114a.jpg,dist2,target,lure,dist1,0,0,0,0,0,35,35,71,,,,,,,,,,,,,,,180.2951505,None,180.2951505,None,180.2951505,None,180.2951505,None,183.2417187,None,None,None,None,None,None,,,,,,,,,,,,,,,,,,,,,,,,,,,,,,,,,,,,,,,,,,pilot1,2022_Jun_16_0904,Hippopolis_Learning,2021.1.4,59.99488753
Hippopolis,stimuli/subj_files/pilot1_cityA.csv,./stimuli/frankfurt.jpg,./stimuli/street_plate1.png,KABÁT UTCA,stimuli/scenes/032a.jpg,scene,1,stimuli/scenes/105a.jpg,stimuli/scenes/105a.jpg,stimuli/scenes/024b.jpg,stimuli/scenes/024a.jpg,stimuli/scenes/105b.jpg,target,dist2,dist1,lure,0,0,0,0,0,36,36,50,,,,,,,,,,,,,,,184.3033353,None,184.3033353,None,184.3033353,None,184.3033353,None,187.2568868,None,None,None,None,None,None,,,,,,,,,,,,,,,,,,,,,,,,,,,,,,,,,,,,,,,,,,pilot1,2022_Jun_16_0904,Hippopolis_Learning,2021.1.4,59.99488753
Hippopolis,stimuli/subj_files/pilot1_cityA.csv,./stimuli/frankfurt.jpg,./stimuli/street_plate1.png,TISZTÁS UTCA,stimuli/objects/021a.jpg,object,2,stimuli/scenes/029a.jpg,stimuli/objects/018b.jpg,stimuli/scenes/029b.jpg,stimuli/scenes/029a.jpg,stimuli/objects/018a.jpg,dist2,lure,target,dist1,0,0,0,0,0,37,37,67,,,,,,,,,,,,,,,188.2899692,None,188.2899692,None,188.2899692,None,188.2899692,None,191.2794018,None,None,None,None,None,None,,,,,,,,,,,,,,,,,,,,,,,,,,,,,,,,,,,,,,,,,,pilot1,2022_Jun_16_0904,Hippopolis_Learning,2021.1.4,59.99488753
Hippopolis,stimuli/subj_files/pilot1_cityA.csv,./stimuli/frankfurt.jpg,./stimuli/street_plate1.png,EPER UTCA,stimuli/objects/028a.jpg,object,1,stimuli/objects/062a.jpg,stimuli/objects/062a.jpg,stimuli/objects/047b.jpg,stimuli/objects/062b.jpg,stimuli/objects/047a.jpg,target,dist2,lure,dist1,0,0,0,0,0,38,38,39,,,,,,,,,,,,,,,192.2958901,None,192.2958901,None,192.2958901,None,192.2958901,None,195.2842563,None,None,None,None,None,None,,,,,,,,,,,,,,,,,,,,,,,,,,,,,,,,,,,,,,,,,,pilot1,2022_Jun_16_0904,Hippopolis_Learning,2021.1.4,59.99488753
Hippopolis,stimuli/subj_files/pilot1_cityA.csv,./stimuli/frankfurt.jpg,./stimuli/street_plate1.png,MÁLNA UTCA,stimuli/scenes/003a.jpg,scene,2,stimuli/objects/115a.jpg,stimuli/objects/115a.jpg,stimuli/objects/115b.jpg,stimuli/objects/086a.jpg,stimuli/objects/086b.jpg,target,lure,dist1,dist2,0,0,0,0,0,39,39,45,,,,,,,,,,,,,,,196.2983769,None,196.2983769,None,196.2983769,None,196.2983769,None,199.2750947,None,200.2890648,None,space,200.2890648,None,9.833608056,,,,,,,,,,,,,,,,,,,,,,,,,,,,,,,,,,,,,,,,,pilot1,2022_Jun_16_0904,Hippopolis_Learning,2021.1.4,59.99488753
Hippopolis,stimuli/subj_files/pilot1_cityA.csv,./stimuli/frankfurt.jpg,./stimuli/street_plate1.png,SZERSZÁM UTCA,stimuli/objects/037a.jpg,object,0,stimuli/objects/037a.jpg,stimuli/objects/037a.jpg,stimuli/scenes/097b.jpg,stimuli/scenes/097a.jpg,stimuli/objects/037b.jpg,target,dist2,dist1,lure,0,0,0,0,0,40,40,19,,,,,,,,,,,,,,,210.2098875,None,210.2098875,None,210.2098875,None,210.2098875,None,213.17441,None,None,None,None,None,None,,,,,,,,,,,,,,,,,,,,,,,,,,,,,,,,,,,,,,,,,,pilot1,2022_Jun_16_0904,Hippopolis_Learning,2021.1.4,59.99488753
Hippopolis,stimuli/subj_files/pilot1_cityA.csv,./stimuli/frankfurt.jpg,./stimuli/street_plate1.png,KÖNYVTÁR UTCA,stimuli/objects/070a.jpg,object,0,stimuli/objects/070a.jpg,stimuli/objects/070a.jpg,stimuli/scenes/100b.jpg,stimuli/scenes/100a.jpg,stimuli/objects/070b.jpg,target,dist2,dist1,lure,0,0,0,0,0,41,41,79,,,,,,,,,,,,,,,214.2248366,None,214.2248366,None,214.2248366,None,214.2248366,None,217.1713074,None,None,None,None,None,None,,,,,,,,,,,,,,,,,,,,,,,,,,,,,,,,,,,,,,,,,,pilot1,2022_Jun_16_0904,Hippopolis_Learning,2021.1.4,59.99488753
Hippopolis,stimuli/subj_files/pilot1_cityA.csv,./stimuli/frankfurt.jpg,./stimuli/street_plate1.png,SÜTEMÉNY UTCA,stimuli/scenes/043a.jpg,scene,2,stimuli/objects/033a.jpg,stimuli/objects/033b.jpg,stimuli/scenes/026a.jpg,stimuli/scenes/026b.jpg,stimuli/objects/033a.jpg,lure,dist1,dist2,target,0,0,0,0,0,42,42,2,,,,,,,,,,,,,,,218.2144807,None,218.2144807,None,218.2144807,None,218.2144807,None,221.1733619,None,None,None,None,None,None,,,,,,,,,,,,,,,,,,,,,,,,,,,,,,,,,,,,,,,,,,pilot1,2022_Jun_16_0904,Hippopolis_Learning,2021.1.4,59.99488753
Hippopolis,stimuli/subj_files/pilot1_cityA.csv,./stimuli/frankfurt.jpg,./stimuli/street_plate1.png,MUNKA UTCA,stimuli/objects/061a.jpg,object,2,stimuli/scenes/077a.jpg,stimuli/scenes/020a.jpg,stimuli/scenes/020b.jpg,stimuli/scenes/077b.jpg,stimuli/scenes/077a.jpg,dist1,dist2,lure,target,0,0,0,0,0,43,43,25,,,,,,,,,,,,,,,222.2259342,None,222.2259342,None,222.2259342,None,222.2259342,None,225.1922092,None,None,None,None,None,None,,,,,,,,,,,,,,,,,,,,,,,,,,,,,,,,,,,,,,,,,,pilot1,2022_Jun_16_0904,Hippopolis_Learning,2021.1.4,59.99488753
Hippopolis,stimuli/subj_files/pilot1_cityA.csv,./stimuli/frankfurt.jpg,./stimuli/street_plate1.png,TOLMÁCS UTCA,stimuli/objects/049a.jpg,object,2,stimuli/scenes/097a.jpg,stimuli/scenes/097b.jpg,stimuli/scenes/077a.jpg,stimuli/scenes/097a.jpg,stimuli/scenes/077b.jpg,lure,dist1,target,dist2,0,0,0,0,0,44,44,23,,,,,,,,,,,,,,,226.2244814,None,226.2244814,None,226.2244814,None,226.2244814,None,229.208427,None,None,None,None,None,None,,,,,,,,,,,,,,,,,,,,,,,,,,,,,,,,,,,,,,,,,,pilot1,2022_Jun_16_0904,Hippopolis_Learning,2021.1.4,59.99488753
Hippopolis,stimuli/subj_files/pilot1_cityA.csv,./stimuli/frankfurt.jpg,./stimuli/street_plate1.png,KÁRTYA UTCA,stimuli/scenes/079a.jpg,scene,1,stimuli/scenes/094a.jpg,stimuli/scenes/094a.jpg,stimuli/scenes/105a.jpg,stimuli/scenes/105b.jpg,stimuli/scenes/094b.jpg,target,dist1,dist2,lure,0,0,0,0,0,45,45,30,,,,,,,,,,,,,,,230.2590607,None,230.2590607,None,230.2590607,None,230.2590607,None,233.2208175,None,None,None,None,None,None,,,,,,,,,,,,,,,,,,,,,,,,,,,,,,,,,,,,,,,,,,pilot1,2022_Jun_16_0904,Hippopolis_Learning,2021.1.4,59.99488753
Hippopolis,stimuli/subj_files/pilot1_cityA.csv,./stimuli/frankfurt.jpg,./stimuli/street_plate1.png,SIVATAG UTCA,stimuli/scenes/085a.jpg,scene,2,stimuli/objects/038a.jpg,stimuli/objects/012b.jpg,stimuli/objects/038a.jpg,stimuli/objects/038b.jpg,stimuli/objects/012a.jpg,dist2,target,lure,dist1,0,0,0,0,0,46,46,35,,,,,,,,,,,,,,,234.2502807,None,234.2502807,None,234.2502807,None,234.2502807,None,237.2392092,None,None,None,None,None,None,,,,,,,,,,,,,,,,,,,,,,,,,,,,,,,,,,,,,,,,,,pilot1,2022_Jun_16_0904,Hippopolis_Learning,2021.1.4,59.99488753
Hippopolis,stimuli/subj_files/pilot1_cityA.csv,./stimuli/frankfurt.jpg,./stimuli/street_plate1.png,POGÁCSA UTCA,stimuli/objects/093a.jpg,object,1,stimuli/objects/018a.jpg,stimuli/scenes/064a.jpg,stimuli/scenes/064b.jpg,stimuli/objects/018b.jpg,stimuli/objects/018a.jpg,dist1,dist2,lure,target,0,0,0,0,0,47,47,10,,,,,,,,,,,,,,,238.2770344,None,238.2770344,None,238.2770344,None,238.2770344,None,241.2497504,None,None,None,None,None,None,,,,,,,,,,,,,,,,,,,,,,,,,,,,,,,,,,,,,,,,,,pilot1,2022_Jun_16_0904,Hippopolis_Learning,2021.1.4,59.99488753
Hippopolis,stimuli/subj_files/pilot1_cityA.csv,./stimuli/frankfurt.jpg,./stimuli/street_plate1.png,NARANCS UTCA,stimuli/scenes/103a.jpg,scene,2,stimuli/objects/097a.jpg,stimuli/objects/097b.jpg,stimuli/objects/046a.jpg,stimuli/objects/046b.jpg,stimuli/objects/097a.jpg,lure,dist1,dist2,target,0,0,0,0,0,48,48,13,,,,,,,,,,,,,,,242.265622,None,242.265622,None,242.265622,None,242.265622,None,245.2539139,None,None,None,None,None,None,,,,,,,,,,,,,,,,,,,,,,,,,,,,,,,,,,,,,,,,,,pilot1,2022_Jun_16_0904,Hippopolis_Learning,2021.1.4,59.99488753
Hippopolis,stimuli/subj_files/pilot1_cityA.csv,./stimuli/frankfurt.jpg,./stimuli/street_plate1.png,TETŐ UTCA,stimuli/scenes/067a.jpg,scene,2,stimuli/objects/047a.jpg,stimuli/objects/047a.jpg,stimuli/objects/047b.jpg,stimuli/objects/097b.jpg,stimuli/objects/097a.jpg,target,lure,dist2,dist1,0,0,0,0,0,49,49,8,,,,,,,,,,,,,,,246.2964704,None,246.2964704,None,246.2964704,None,246.2964704,None,249.2706398,None,None,None,None,None,None,,,,,,,,,,,,,,,,,,,,,,,,,,,,,,,,,,,,,,,,,,pilot1,2022_Jun_16_0904,Hippopolis_Learning,2021.1.4,59.99488753
Hippopolis,stimuli/subj_files/pilot1_cityA.csv,./stimuli/frankfurt.jpg,./stimuli/street_plate1.png,BICIKLI UTCA,stimuli/objects/027a.jpg,object,2,stimuli/scenes/026a.jpg,stimuli/scenes/029b.jpg,stimuli/scenes/026b.jpg,stimuli/scenes/029a.jpg,stimuli/scenes/026a.jpg,dist2,lure,dist1,target,0,0,0,0,0,50,50,47,,,,,,,,,,,,,,,250.3071395,None,250.3071395,None,250.3071395,None,250.3071395,None,253.2657318,None,None,None,None,None,None,,,,,,,,,,,,,,,,,,,,,,,,,,,,,,,,,,,,,,,,,,pilot1,2022_Jun_16_0904,Hippopolis_Learning,2021.1.4,59.99488753
Hippopolis,stimuli/subj_files/pilot1_cityA.csv,./stimuli/frankfurt.jpg,./stimuli/street_plate1.png,KAKAS UTCA,stimuli/scenes/057a.jpg,scene,1,stimuli/scenes/076a.jpg,stimuli/scenes/076b.jpg,stimuli/objects/014b.jpg,stimuli/objects/014a.jpg,stimuli/scenes/076a.jpg,lure,dist2,dist1,target,0,0,0,0,0,51,51,18,,,,,,,,,,,,,,,254.3332893,None,254.3332893,None,254.3332893,None,254.3332893,None,257.2908403,None,None,None,None,None,None,,,,,,,,,,,,,,,,,,,,,,,,,,,,,,,,,,,,,,,,,,pilot1,2022_Jun_16_0904,Hippopolis_Learning,2021.1.4,59.99488753
Hippopolis,stimuli/subj_files/pilot1_cityA.csv,./stimuli/frankfurt.jpg,./stimuli/street_plate1.png,TOLLTARTÓ UTCA,stimuli/objects/117a.jpg,object,2,stimuli/scenes/045a.jpg,stimuli/scenes/045b.jpg,stimuli/scenes/120b.jpg,stimuli/scenes/045a.jpg,stimuli/scenes/120a.jpg,lure,dist2,target,dist1,0,0,0,0,0,52,52,58,,,,,,,,,,,,,,,258.3213469,None,258.3213469,None,258.3213469,None,258.3213469,None,261.2887631,None,None,None,None,None,None,,,,,,,,,,,,,,,,,,,,,,,,,,,,,,,,,,,,,,,,,,pilot1,2022_Jun_16_0904,Hippopolis_Learning,2021.1.4,59.99488753
Hippopolis,stimuli/subj_files/pilot1_cityA.csv,./stimuli/frankfurt.jpg,./stimuli/street_plate1.png,FIÓK UTCA,stimuli/objects/012a.jpg,object,0,stimuli/objects/012a.jpg,stimuli/objects/012a.jpg,stimuli/objects/024b.jpg,stimuli/objects/012b.jpg,stimuli/objects/024a.jpg,target,dist2,lure,dist1,0,0,0,0,0,53,53,31,,,,,,,,,,,,,,,262.3386902,None,262.3386902,None,262.3386902,None,262.3386902,None,265.3081584,None,None,None,None,None,None,,,,,,,,,,,,,,,,,,,,,,,,,,,,,,,,,,,,,,,,,,pilot1,2022_Jun_16_0904,Hippopolis_Learning,2021.1.4,59.99488753
Hippopolis,stimuli/subj_files/pilot1_cityA.csv,./stimuli/frankfurt.jpg,./stimuli/street_plate1.png,TELEFON UTCA,stimuli/objects/102a.jpg,object,2,stimuli/scenes/004a.jpg,stimuli/objects/057a.jpg,stimuli/scenes/004b.jpg,stimuli/scenes/004a.jpg,stimuli/objects/057b.jpg,dist1,lure,target,dist2,0,0,0,0,0,54,54,66,,,,,,,,,,,,,,,266.3409954,None,266.3409954,None,266.3409954,None,266.3409954,None,269.3203029,None,None,None,None,None,None,,,,,,,,,,,,,,,,,,,,,,,,,,,,,,,,,,,,,,,,,,pilot1,2022_Jun_16_0904,Hippopolis_Learning,2021.1.4,59.99488753
Hippopolis,stimuli/subj_files/pilot1_cityA.csv,./stimuli/frankfurt.jpg,./stimuli/street_plate1.png,PAPRIKA UTCA,stimuli/scenes/118a.jpg,scene,0,stimuli/scenes/118a.jpg,stimuli/scenes/118a.jpg,stimuli/objects/068b.jpg,stimuli/scenes/118b.jpg,stimuli/objects/068a.jpg,target,dist2,lure,dist1,0,0,0,0,0,55,55,20,,,,,,,,,,,,,,,270.3450254,None,270.3450254,None,270.3450254,None,270.3450254,None,273.3223282,None,None,None,None,None,None,,,,,,,,,,,,,,,,,,,,,,,,,,,,,,,,,,,,,,,,,,pilot1,2022_Jun_16_0904,Hippopolis_Learning,2021.1.4,59.99488753
Hippopolis,stimuli/subj_files/pilot1_cityA.csv,./stimuli/frankfurt.jpg,./stimuli/street_plate1.png,SZITAKÖTŐ UTCA,stimuli/objects/064a.jpg,object,0,stimuli/objects/064a.jpg,stimuli/objects/037b.jpg,stimuli/objects/064a.jpg,stimuli/objects/064b.jpg,stimuli/objects/037a.jpg,dist2,target,lure,dist1,0,0,0,0,0,56,56,3,,,,,,,,,,,,,,,274.3883256,None,274.3883256,None,274.3883256,None,274.3883256,None,277.3369134,None,None,None,None,None,None,,,,,,,,,,,,,,,,,,,,,,,,,,,,,,,,,,,,,,,,,,pilot1,2022_Jun_16_0904,Hippopolis_Learning,2021.1.4,59.99488753
Hippopolis,stimuli/subj_files/pilot1_cityA.csv,./stimuli/frankfurt.jpg,./stimuli/street_plate1.png,KECSKE UTCA,stimuli/objects/011a.jpg,object,1,stimuli/objects/086a.jpg,stimuli/objects/086b.jpg,stimuli/objects/066a.jpg,stimuli/objects/086a.jpg,stimuli/objects/066b.jpg,lure,dist1,target,dist2,0,0,0,0,0,57,57,64,,,,,,,,,,,,,,,278.3724027,None,278.3724027,None,278.3724027,None,278.3724027,None,281.331812,None,None,None,None,None,None,,,,,,,,,,,,,,,,,,,,,,,,,,,,,,,,,,,,,,,,,,pilot1,2022_Jun_16_0904,Hippopolis_Learning,2021.1.4,59.99488753
Hippopolis,stimuli/subj_files/pilot1_cityA.csv,./stimuli/frankfurt.jpg,./stimuli/street_plate1.png,MOTOR UTCA,stimuli/objects/111a.jpg,object,1,stimuli/objects/100a.jpg,stimuli/objects/055a.jpg,stimuli/objects/100b.jpg,stimuli/objects/100a.jpg,stimuli/objects/055b.jpg,dist1,lure,target,dist2,0,0,0,0,0,58,58,55,,,,,,,,,,,,,,,282.360075,None,282.360075,None,282.360075,None,282.360075,None,285.3378213,None,None,None,None,None,None,,,,,,,,,,,,,,,,,,,,,,,,,,,,,,,,,,,,,,,,,,pilot1,2022_Jun_16_0904,Hippopolis_Learning,2021.1.4,59.99488753
Hippopolis,stimuli/subj_files/pilot1_cityA.csv,./stimuli/frankfurt.jpg,./stimuli/street_plate1.png,KULACS UTCA,stimuli/objects/045a.jpg,object,1,stimuli/objects/073a.jpg,stimuli/objects/073a.jpg,stimuli/objects/073b.jpg,stimuli/scenes/002a.jpg,stimuli/scenes/002b.jpg,target,lure,dist1,dist2,0,0,0,0,0,59,59,51,,,,,,,,,,,,,,,286.3898617,None,286.3898617,None,286.3898617,None,286.3898617,None,289.3388124,None,None,None,None,None,None,,,,,,,,,,,,,,,,,,,,,,,,,,,,,,,,,,,,,,,,,,pilot1,2022_Jun_16_0904,Hippopolis_Learning,2021.1.4,59.99488753
Hippopolis,stimuli/subj_files/pilot1_cityA.csv,./stimuli/frankfurt.jpg,./stimuli/street_plate1.png,EGÉR UTCA,stimuli/objects/013a.jpg,object,1,stimuli/objects/080a.jpg,stimuli/scenes/070a.jpg,stimuli/objects/080a.jpg,stimuli/objects/080b.jpg,stimuli/scenes/070b.jpg,dist1,target,lure,dist2,0,0,0,0,0,60,60,34,,,,,,,,,,,,,,,290.3653226,None,290.3653226,None,290.3653226,None,290.3653226,None,293.3533669,None,None,None,None,None,None,,,,,,,,,,,,,,,,,,,,,,,,,,,,,,,,,,,,,,,,,,pilot1,2022_Jun_16_0904,Hippopolis_Learning,2021.1.4,59.99488753
Hippopolis,stimuli/subj_files/pilot1_cityA.csv,./stimuli/frankfurt.jpg,./stimuli/street_plate1.png,DOBOZ UTCA,stimuli/scenes/030a.jpg,scene,1,stimuli/scenes/060a.jpg,stimuli/scenes/051a.jpg,stimuli/scenes/060b.jpg,stimuli/scenes/060a.jpg,stimuli/scenes/051b.jpg,dist1,lure,target,dist2,0,0,0,0,0,61,61,21,,,,,,,,,,,,,,,294.4008175,None,294.4008175,None,294.4008175,None,294.4008175,None,297.3551316,None,None,None,None,None,None,,,,,,,,,,,,,,,,,,,,,,,,,,,,,,,,,,,,,,,,,,pilot1,2022_Jun_16_0904,Hippopolis_Learning,2021.1.4,59.99488753
Hippopolis,stimuli/subj_files/pilot1_cityA.csv,./stimuli/frankfurt.jpg,./stimuli/street_plate1.png,OROSZLÁN UTCA,stimuli/scenes/054a.jpg,scene,2,stimuli/objects/014a.jpg,stimuli/objects/099a.jpg,stimuli/objects/099b.jpg,stimuli/objects/014b.jpg,stimuli/objects/014a.jpg,dist1,dist2,lure,target,0,0,0,0,0,62,62,52,,,,,,,,,,,,,,,298.3778083,None,298.3778083,None,298.3778083,None,298.3778083,None,301.3786745,None,None,None,None,None,None,,,,,,,,,,,,,,,,,,,,,,,,,,,,,,,,,,,,,,,,,,pilot1,2022_Jun_16_0904,Hippopolis_Learning,2021.1.4,59.99488753
Hippopolis,stimuli/subj_files/pilot1_cityA.csv,./stimuli/frankfurt.jpg,./stimuli/street_plate1.png,KENYÉR UTCA,stimuli/scenes/071a.jpg,scene,2,stimuli/objects/055a.jpg,stimuli/objects/033b.jpg,stimuli/objects/055a.jpg,stimuli/objects/055b.jpg,stimuli/objects/033a.jpg,dist2,target,lure,dist1,0,0,0,0,0,63,63,17,,,,,,,,,,,,,,,302.4115068,None,302.4115068,None,302.4115068,None,302.4115068,None,305.3730782,None,None,None,None,None,None,,,,,,,,,,,,,,,,,,,,,,,,,,,,,,,,,,,,,,,,,,pilot1,2022_Jun_16_0904,Hippopolis_Learning,2021.1.4,59.99488753
Hippopolis,stimuli/subj_files/pilot1_cityA.csv,./stimuli/frankfurt.jpg,./stimuli/street_plate1.png,LEGELŐ UTCA,stimuli/scenes/012a.jpg,scene,1,stimuli/scenes/014a.jpg,stimuli/scenes/014b.jpg,stimuli/objects/016b.jpg,stimuli/scenes/014a.jpg,stimuli/objects/016a.jpg,lure,dist2,target,dist1,0,0,0,0,0,64,64,65,,,,,,,,,,,,,,,306.4256592,None,306.4256592,None,306.4256592,None,306.4256592,None,309.3987882,None,None,None,None,None,None,,,,,,,,,,,,,,,,,,,,,,,,,,,,,,,,,,,,,,,,,,pilot1,2022_Jun_16_0904,Hippopolis_Learning,2021.1.4,59.99488753
Hippopolis,stimuli/subj_files/pilot1_cityA.csv,./stimuli/frankfurt.jpg,./stimuli/street_plate1.png,TORONY UTCA,stimuli/scenes/059a.jpg,scene,2,stimuli/objects/120a.jpg,stimuli/scenes/104b.jpg,stimuli/objects/120b.jpg,stimuli/scenes/104a.jpg,stimuli/objects/120a.jpg,dist2,lure,dist1,target,0,0,0,0,0,65,65,6,,,,,,,,,,,,,,,310.4140042,None,310.4140042,None,310.4140042,None,310.4140042,None,313.4048765,None,None,None,None,None,None,,,,,,,,,,,,,,,,,,,,,,,,,,,,,,,,,,,,,,,,,,pilot1,2022_Jun_16_0904,Hippopolis_Learning,2021.1.4,59.99488753
Hippopolis,stimuli/subj_files/pilot1_cityA.csv,./stimuli/frankfurt.jpg,./stimuli/street_plate1.png,KOCKA UTCA,stimuli/scenes/002a.jpg,scene,0,stimuli/scenes/002a.jpg,stimuli/scenes/072a.jpg,stimuli/scenes/002b.jpg,stimuli/scenes/072b.jpg,stimuli/scenes/002a.jpg,dist1,lure,dist2,target,0,0,0,0,0,66,66,73,,,,,,,,,,,,,,,314.42497,None,314.42497,None,314.42497,None,314.42497,None,317.4080683,None,None,None,None,None,None,,,,,,,,,,,,,,,,,,,,,,,,,,,,,,,,,,,,,,,,,,pilot1,2022_Jun_16_0904,Hippopolis_Learning,2021.1.4,59.99488753
Hippopolis,stimuli/subj_files/pilot1_cityA.csv,./stimuli/frankfurt.jpg,./stimuli/street_plate1.png,FÜZET UTCA,stimuli/scenes/008a.jpg,scene,2,stimuli/objects/024a.jpg,stimuli/objects/024b.jpg,stimuli/scenes/117a.jpg,stimuli/objects/024a.jpg,stimuli/scenes/117b.jpg,lure,dist1,target,dist2,0,0,0,0,0,67,67,69,,,,,,,,,,,,,,,318.4447537,None,318.4447537,None,318.4447537,None,318.4447537,None,321.424217,None,None,None,None,None,None,,,,,,,,,,,,,,,,,,,,,,,,,,,,,,,,,,,,,,,,,,pilot1,2022_Jun_16_0904,Hippopolis_Learning,2021.1.4,59.99488753
Hippopolis,stimuli/subj_files/pilot1_cityA.csv,./stimuli/frankfurt.jpg,./stimuli/street_plate1.png,ASZTAL UTCA,stimuli/objects/016a.jpg,object,0,stimuli/objects/016a.jpg,stimuli/objects/016a.jpg,stimuli/scenes/046b.jpg,stimuli/scenes/046a.jpg,stimuli/objects/016b.jpg,target,dist2,dist1,lure,0,0,0,0,0,68,68,56,,,,,,,,,,,,,,,322.4938334,None,322.4938334,None,322.4938334,None,322.4938334,None,325.4397624,None,None,None,None,None,None,,,,,,,,,,,,,,,,,,,,,,,,,,,,,,,,,,,,,,,,,,pilot1,2022_Jun_16_0904,Hippopolis_Learning,2021.1.4,59.99488753
Hippopolis,stimuli/subj_files/pilot1_cityA.csv,./stimuli/frankfurt.jpg,./stimuli/street_plate1.png,PETREZSELYEM UTCA,stimuli/objects/090a.jpg,object,1,stimuli/objects/040a.jpg,stimuli/objects/040a.jpg,stimuli/objects/053a.jpg,stimuli/objects/053b.jpg,stimuli/objects/040b.jpg,target,dist1,dist2,lure,0,0,0,0,0,69,69,16,,,,,,,,,,,,,,,326.4761952,None,326.4761952,None,326.4761952,None,326.4761952,None,329.4563614,None,None,None,None,None,None,,,,,,,,,,,,,,,,,,,,,,,,,,,,,,,,,,,,,,,,,,pilot1,2022_Jun_16_0904,Hippopolis_Learning,2021.1.4,59.99488753
Hippopolis,stimuli/subj_files/pilot1_cityA.csv,./stimuli/frankfurt.jpg,./stimuli/street_plate1.png,KORONG UTCA,stimuli/objects/104a.jpg,object,0,stimuli/objects/104a.jpg,stimuli/objects/076b.jpg,stimuli/objects/104a.jpg,stimuli/objects/104b.jpg,stimuli/objects/076a.jpg,dist2,target,lure,dist1,0,0,0,0,0,70,70,5,,,,,,,,,,,,,,,330.48185,None,330.48185,None,330.48185,None,330.48185,None,333.4550692,None,None,None,None,None,None,,,,,,,,,,,,,,,,,,,,,,,,,,,,,,,,,,,,,,,,,,pilot1,2022_Jun_16_0904,Hippopolis_Learning,2021.1.4,59.99488753
Hippopolis,stimuli/subj_files/pilot1_cityA.csv,./stimuli/frankfurt.jpg,./stimuli/street_plate1.png,KERET UTCA,stimuli/objects/046a.jpg,object,0,stimuli/objects/046a.jpg,stimuli/objects/046b.jpg,stimuli/scenes/022b.jpg,stimuli/scenes/022a.jpg,stimuli/objects/046a.jpg,lure,dist2,dist1,target,0,0,0,0,0,71,71,29,,,,,,,,,,,,,,,334.5063445,None,334.5063445,None,334.5063445,None,334.5063445,None,337.4735337,None,None,None,None,None,None,,,,,,,,,,,,,,,,,,,,,,,,,,,,,,,,,,,,,,,,,,pilot1,2022_Jun_16_0904,Hippopolis_Learning,2021.1.4,59.99488753
Hippopolis,stimuli/subj_files/pilot1_cityA.csv,./stimuli/frankfurt.jpg,./stimuli/street_plate1.png,TÉRKÉP UTCA,stimuli/scenes/061a.jpg,scene,2,stimuli/objects/065a.jpg,stimuli/objects/065a.jpg,stimuli/scenes/060b.jpg,stimuli/scenes/060a.jpg,stimuli/objects/065b.jpg,target,dist2,dist1,lure,0,0,0,0,0,72,72,72,,,,,,,,,,,,,,,338.5078249,None,338.5078249,None,338.5078249,None,338.5078249,None,341.4862084,None,None,None,None,None,None,,,,,,,,,,,,,,,,,,,,,,,,,,,,,,,,,,,,,,,,,,pilot1,2022_Jun_16_0904,Hippopolis_Learning,2021.1.4,59.99488753
Hippopolis,stimuli/subj_files/pilot1_cityA.csv,./stimuli/frankfurt.jpg,./stimuli/street_plate1.png,ÁLLOMÁS UTCA,stimuli/objects/041a.jpg,object,1,stimuli/objects/022a.jpg,stimuli/objects/022b.jpg,stimuli/objects/022a.jpg,stimuli/objects/062b.jpg,stimuli/objects/062a.jpg,lure,target,dist2,dist1,0,0,0,0,0,73,73,24,,,,,,,,,,,,,,,342.535799,None,342.535799,None,342.535799,None,342.535799,None,345.4895194,None,None,None,None,None,None,,,,,,,,,,,,,,,,,,,,,,,,,,,,,,,,,,,,,,,,,,pilot1,2022_Jun_16_0904,Hippopolis_Learning,2021.1.4,59.99488753
Hippopolis,stimuli/subj_files/pilot1_cityA.csv,./stimuli/frankfurt.jpg,./stimuli/street_plate1.png,KIFLI UTCA,stimuli/scenes/006a.jpg,scene,0,stimuli/scenes/006a.jpg,stimuli/scenes/006a.jpg,stimuli/scenes/006b.jpg,stimuli/scenes/014b.jpg,stimuli/scenes/014a.jpg,target,lure,dist2,dist1,0,0,0,0,0,74,74,62,,,,,,,,,,,,,,,346.5420923,None,346.5420923,None,346.5420923,None,346.5420923,None,349.5150661,None,None,None,None,None,None,,,,,,,,,,,,,,,,,,,,,,,,,,,,,,,,,,,,,,,,,,pilot1,2022_Jun_16_0904,Hippopolis_Learning,2021.1.4,59.99488753
Hippopolis,stimuli/subj_files/pilot1_cityA.csv,./stimuli/frankfurt.jpg,./stimuli/street_plate1.png,KULLANCS UTCA,stimuli/scenes/111a.jpg,scene,1,stimuli/scenes/084a.jpg,stimuli/scenes/084b.jpg,stimuli/scenes/084a.jpg,stimuli/objects/054a.jpg,stimuli/objects/054b.jpg,lure,target,dist1,dist2,0,0,0,0,0,75,75,68,,,,,,,,,,,,,,,350.5476496,None,350.5476496,None,350.5476496,None,350.5476496,None,353.5053537,None,None,None,None,None,None,,,,,,,,,,,,,,,,,,,,,,,,,,,,,,,,,,,,,,,,,,pilot1,2022_Jun_16_0904,Hippopolis_Learning,2021.1.4,59.99488753
Hippopolis,stimuli/subj_files/pilot1_cityA.csv,./stimuli/frankfurt.jpg,./stimuli/street_plate1.png,PAPAGÁJ UTCA,stimuli/scenes/023a.jpg,scene,1,stimuli/scenes/113a.jpg,stimuli/objects/070b.jpg,stimuli/scenes/113b.jpg,stimuli/objects/070a.jpg,stimuli/scenes/113a.jpg,dist2,lure,dist1,target,0,0,0,0,0,76,76,53,,,,,,,,,,,,,,,354.5660404,None,354.5660404,None,354.5660404,None,354.5660404,None,357.5210573,None,None,None,None,None,None,,,,,,,,,,,,,,,,,,,,,,,,,,,,,,,,,,,,,,,,,,pilot1,2022_Jun_16_0904,Hippopolis_Learning,2021.1.4,59.99488753
Hippopolis,stimuli/subj_files/pilot1_cityA.csv,./stimuli/frankfurt.jpg,./stimuli/street_plate1.png,SZŐNYEG UTCA,stimuli/scenes/044a.jpg,scene,0,stimuli/scenes/044a.jpg,stimuli/scenes/044a.jpg,stimuli/scenes/004b.jpg,stimuli/scenes/004a.jpg,stimuli/scenes/044b.jpg,target,dist2,dist1,lure,0,0,0,0,0,77,77,11,,,,,,,,,,,,,,,358.558115,None,358.558115,None,358.558115,None,358.558115,None,361.5337921,None,None,None,None,None,None,,,,,,,,,,,,,,,,,,,,,,,,,,,,,,,,,,,,,,,,,,pilot1,2022_Jun_16_0904,Hippopolis_Learning,2021.1.4,59.99488753
Hippopolis,stimuli/subj_files/pilot1_cityA.csv,./stimuli/frankfurt.jpg,./stimuli/street_plate1.png,POLIP UTCA,stimuli/objects/039a.jpg,object,0,stimuli/objects/039a.jpg,stimuli/objects/101a.jpg,stimuli/objects/039b.jpg,stimuli/objects/101b.jpg,stimuli/objects/039a.jpg,dist1,lure,dist2,target,0,0,0,0,0,78,78,12,,,,,,,,,,,,,,,362.5761341,None,362.5761341,None,362.5761341,None,362.5761341,None,365.5375662,None,None,None,None,None,None,,,,,,,,,,,,,,,,,,,,,,,,,,,,,,,,,,,,,,,,,,pilot1,2022_Jun_16_0904,Hippopolis_Learning,2021.1.4,59.99488753
Hippopolis,stimuli/subj_files/pilot1_cityA.csv,./stimuli/frankfurt.jpg,./stimuli/street_plate1.png,FÜGE UTCA,stimuli/objects/109a.jpg,object,2,stimuli/scenes/104a.jpg,stimuli/scenes/104b.jpg,stimuli/objects/030b.jpg,stimuli/scenes/104a.jpg,stimuli/objects/030a.jpg,lure,dist2,target,dist1,0,0,0,0,0,79,79,9,,,,,,,,,,,,,,,366.5636201,None,366.5636201,None,366.5636201,None,366.5636201,None,369.5606027,None,370.5529433,None,space,370.5529433,None,11.48786141,,,,,,,,,,,,,,,,,,,,,,,,,,,,,,,,,,,,,,,,,pilot1,2022_Jun_16_0904,Hippopolis_Learning,2021.1.4,59.99488753
Hippopolis,stimuli/subj_files/pilot1_cityA.csv,./stimuli/frankfurt.jpg,./stimuli/street_plate1.png,HARMONIKA UTCA,stimuli/scenes/028a.jpg,scene,2,stimuli/objects/099a.jpg,stimuli/objects/099a.jpg,stimuli/objects/015b.jpg,stimuli/objects/015a.jpg,stimuli/objects/099b.jpg,target,dist2,dist1,lure,0,0,0,0,,,,,0,0,0,63,,,,,,,,,,,,,,,,,,,395.4262547,None,,,,,,,382.0632056,None,space,9.289358661,382.0632056,None,391.4379781,None,391.4379781,None,391.4379781,None,391.4379781,None,None,391.4379781,None,391.4379781,None,None,None,None,None,None,None,None,None,None,None,None,,,,,,,,,,,pilot1,2022_Jun_16_0904,Hippopolis_Learning,2021.1.4,59.99488753
Hippopolis,stimuli/subj_files/pilot1_cityA.csv,./stimuli/frankfurt.jpg,./stimuli/street_plate1.png,SZILVA UTCA,stimuli/objects/059a.jpg,object,2,stimuli/scenes/070a.jpg,stimuli/scenes/114b.jpg,stimuli/scenes/070a.jpg,stimuli/scenes/070b.jpg,stimuli/scenes/114a.jpg,dist2,target,lure,dist1,0,0,0,0,,,,,0,1,1,71,,,,,,,,,,,,,,,,,,,399.0470478,None,,,,,,,,,,,,,396.4550854,None,396.4550854,None,396.4550854,None,396.4550854,None,left,396.4550854,None,396.4550854,None,None,None,None,None,None,None,None,None,None,None,None,2.545818112,,,,,,,,,,pilot1,2022_Jun_16_0904,Hippopolis_Learning,2021.1.4,59.99488753
Hippopolis,stimuli/subj_files/pilot1_cityA.csv,./stimuli/frankfurt.jpg,./stimuli/street_plate1.png,KORONG UTCA,stimuli/objects/104a.jpg,object,0,stimuli/objects/104a.jpg,stimuli/objects/076b.jpg,stimuli/objects/104a.jpg,stimuli/objects/104b.jpg,stimuli/objects/076a.jpg,dist2,target,lure,dist1,0,0,0,0,,,,,0,2,2,5,,,,,,,,,,,,,,,,,,,403.4286299,None,,,,,,,,,,,,,400.0734349,None,400.0734349,None,400.0734349,None,400.0734349,None,left,400.0734349,None,400.0734349,None,None,None,None,None,None,None,None,None,None,None,None,3.311005341,,,,,,,,,,pilot1,2022_Jun_16_0904,Hippopolis_Learning,2021.1.4,59.99488753
Hippopolis,stimuli/subj_files/pilot1_cityA.csv,./stimuli/frankfurt.jpg,./stimuli/street_plate1.png,PAPRIKA UTCA,stimuli/scenes/118a.jpg,scene,0,stimuli/scenes/118a.jpg,stimuli/scenes/118a.jpg,stimuli/objects/068b.jpg,stimuli/scenes/118b.jpg,stimuli/objects/068a.jpg,target,dist2,lure,dist1,0,0,0,0,,,,,0,3,3,20,,,,,,,,,,,,,,,,,,,407.4502694,None,,,,,,,,,,,,,404.459664,None,404.459664,None,404.459664,None,404.459664,None,left,404.459664,None,404.459664,None,None,None,None,None,None,None,None,None,None,None,None,2.940751068,,,,,,,,,,pilot1,2022_Jun_16_0904,Hippopolis_Learning,2021.1.4,59.99488753
Hippopolis,stimuli/subj_files/pilot1_cityA.csv,./stimuli/frankfurt.jpg,./stimuli/street_plate1.png,PADLÓ UTCA,stimuli/objects/053a.jpg,object,0,stimuli/objects/053a.jpg,stimuli/objects/053a.jpg,stimuli/objects/053b.jpg,stimuli/objects/064b.jpg,stimuli/objects/064a.jpg,target,lure,dist2,dist1,0,0,0,0,,,,,0,4,4,74,,,,,,,,,,,,,,,,,,,410.5837898,None,,,,,,,,,,,,,408.4796412,None,408.4796412,None,408.4796412,None,408.4796412,None,left,408.4796412,None,408.4796412,None,None,None,None,None,None,None,None,None,None,None,None,2.040631455,,,,,,,,,,pilot1,2022_Jun_16_0904,Hippopolis_Learning,2021.1.4,59.99488753
Hippopolis,stimuli/subj_files/pilot1_cityA.csv,./stimuli/frankfurt.jpg,./stimuli/street_plate1.png,GYŰRŰ UTCA,stimuli/scenes/007a.jpg,scene,0,stimuli/scenes/007a.jpg,stimuli/scenes/076a.jpg,stimuli/scenes/007b.jpg,stimuli/scenes/007a.jpg,stimuli/scenes/076b.jpg,dist1,lure,target,dist2,0,0,0,0,,,,,0,5,5,76,,,,,,,,,,,,,,,,,,,413.6156453,None,,,,,,,,,,,,,411.602073,None,411.602073,None,411.602073,None,411.602073,None,left,411.602073,None,411.602073,None,None,None,None,None,None,None,None,None,None,None,None,1.958385142,,,,,,,,,,pilot1,2022_Jun_16_0904,Hippopolis_Learning,2021.1.4,59.99488753
Hippopolis,stimuli/subj_files/pilot1_cityA.csv,./stimuli/frankfurt.jpg,./stimuli/street_plate1.png,SZŐNYEG UTCA,stimuli/scenes/044a.jpg,scene,0,stimuli/scenes/044a.jpg,stimuli/scenes/044a.jpg,stimuli/scenes/004b.jpg,stimuli/scenes/004a.jpg,stimuli/scenes/044b.jpg,target,dist2,dist1,lure,0,0,0,0,,,,,0,6,6,11,,,,,,,,,,,,,,,,,,,415.7386733,None,,,,,,,,,,,,,414.6393129,None,414.6393129,None,414.6393129,None,414.6393129,None,right,414.6393129,None,414.6393129,None,None,None,None,None,None,None,None,None,None,None,None,1.049006863,,,,,,,,,,pilot1,2022_Jun_16_0904,Hippopolis_Learning,2021.1.4,59.99488753
Hippopolis,stimuli/subj_files/pilot1_cityA.csv,./stimuli/frankfurt.jpg,./stimuli/street_plate1.png,TISZTÁS UTCA,stimuli/objects/021a.jpg,object,2,stimuli/scenes/029a.jpg,stimuli/objects/018b.jpg,stimuli/scenes/029b.jpg,stimuli/scenes/029a.jpg,stimuli/objects/018a.jpg,dist2,lure,target,dist1,0,0,0,0,,,,,0,7,7,67,,,,,,,,,,,,,,,,,,,418.1756375,None,,,,,,,,,,,,,416.7742587,None,416.7742587,None,416.7742587,None,416.7742587,None,right,416.7742587,None,416.7742587,None,None,None,None,None,None,None,None,None,None,None,None,1.345981142,,,,,,,,,,pilot1,2022_Jun_16_0904,Hippopolis_Learning,2021.1.4,59.99488753
Hippopolis,stimuli/subj_files/pilot1_cityA.csv,./stimuli/frankfurt.jpg,./stimuli/street_plate1.png,TRIATLON UTCA,stimuli/objects/119a.jpg,object,2,stimuli/scenes/018a.jpg,stimuli/objects/017a.jpg,stimuli/objects/017b.jpg,stimuli/scenes/018b.jpg,stimuli/scenes/018a.jpg,dist1,dist2,lure,target,0,0,0,0,,,,,0,8,8,75,,,,,,,,,,,,,,,,,,,420.8483697,None,,,,,,,,,,,,,419.2082245,None,419.2082245,None,419.2082245,None,419.2082245,None,left,419.2082245,None,419.2082245,None,None,None,None,None,None,None,None,None,None,None,None,1.599987373,,,,,,,,,,pilot1,2022_Jun_16_0904,Hippopolis_Learning,2021.1.4,59.99488753
Hippopolis,stimuli/subj_files/pilot1_cityA.csv,./stimuli/frankfurt.jpg,./stimuli/street_plate1.png,ÁRNYÉK UTCA,stimuli/scenes/088a.jpg,scene,0,stimuli/scenes/088a.jpg,stimuli/scenes/088a.jpg,stimuli/objects/038a.jpg,stimuli/objects/038b.jpg,stimuli/scenes/088b.jpg,target,dist1,dist2,lure,0,0,0,0,,,,,0,9,9,42,,,,,,,,,,,,,,,,,,,424.2889463,None,,,,,,,,,,,,,421.8707587,None,421.8707587,None,421.8707587,None,421.8707587,None,left,421.8707587,None,421.8707587,None,None,None,None,None,None,None,None,None,None,None,None,2.361467093,,,,,,,,,,pilot1,2022_Jun_16_0904,Hippopolis_Learning,2021.1.4,59.99488753
Hippopolis,stimuli/subj_files/pilot1_cityA.csv,./stimuli/frankfurt.jpg,./stimuli/street_plate1.png,POGÁCSA UTCA,stimuli/objects/093a.jpg,object,1,stimuli/objects/018a.jpg,stimuli/scenes/064a.jpg,stimuli/scenes/064b.jpg,stimuli/objects/018b.jpg,stimuli/objects/018a.jpg,dist1,dist2,lure,target,0,0,0,0,,,,,0,10,10,10,,,,,,,,,,,,,,,,,,,426.4592504,None,,,,,,,,,,,,,425.3069644,None,425.3069644,None,425.3069644,None,425.3069644,None,right,425.3069644,None,425.3069644,None,None,None,None,None,None,None,None,None,None,None,None,1.101306974,,,,,,,,,,pilot1,2022_Jun_16_0904,Hippopolis_Learning,2021.1.4,59.99488753
Hippopolis,stimuli/subj_files/pilot1_cityA.csv,./stimuli/frankfurt.jpg,./stimuli/street_plate1.png,FECSKE UTCA,stimuli/objects/106a.jpg,object,2,stimuli/scenes/051a.jpg,stimuli/scenes/116b.jpg,stimuli/scenes/051b.jpg,stimuli/scenes/116a.jpg,stimuli/scenes/051a.jpg,dist2,lure,dist1,target,0,0,0,0,,,,,0,11,11,49,,,,,,,,,,,,,,,,,,,429.3784555,None,,,,,,,,,,,,,427.4925187,None,427.4925187,None,427.4925187,None,427.4925187,None,left,427.4925187,None,427.4925187,None,None,None,None,None,None,None,None,None,None,None,None,1.811598741,,,,,,,,,,pilot1,2022_Jun_16_0904,Hippopolis_Learning,2021.1.4,59.99488753
Hippopolis,stimuli/subj_files/pilot1_cityA.csv,./stimuli/frankfurt.jpg,./stimuli/street_plate1.png,TOLMÁCS UTCA,stimuli/objects/049a.jpg,object,2,stimuli/scenes/097a.jpg,stimuli/scenes/097b.jpg,stimuli/scenes/077a.jpg,stimuli/scenes/097a.jpg,stimuli/scenes/077b.jpg,lure,dist1,target,dist2,0,0,0,0,,,,,0,12,12,23,,,,,,,,,,,,,,,,,,,432.6382014,None,,,,,,,,,,,,,430.4005177,None,430.4005177,None,430.4005177,None,430.4005177,None,left,430.4005177,None,430.4005177,None,None,None,None,None,None,None,None,None,None,None,None,2.199549911,,,,,,,,,,pilot1,2022_Jun_16_0904,Hippopolis_Learning,2021.1.4,59.99488753
Hippopolis,stimuli/subj_files/pilot1_cityA.csv,./stimuli/frankfurt.jpg,./stimuli/street_plate1.png,TÖLCSÉR UTCA,stimuli/scenes/068a.jpg,scene,0,stimuli/scenes/068a.jpg,stimuli/objects/039a.jpg,stimuli/scenes/068a.jpg,stimuli/scenes/068b.jpg,stimuli/objects/039b.jpg,dist1,target,lure,dist2,0,0,0,0,,,,,0,13,13,46,,,,,,,,,,,,,,,,,,,436.1385945,None,,,,,,,,,,,,,433.6746964,None,433.6746964,None,433.6746964,None,433.6746964,None,left,433.6746964,None,433.6746964,None,None,None,None,None,None,None,None,None,None,None,None,2.4136456,,,,,,,,,,pilot1,2022_Jun_16_0904,Hippopolis_Learning,2021.1.4,59.99488753
Hippopolis,stimuli/subj_files/pilot1_cityA.csv,./stimuli/frankfurt.jpg,./stimuli/street_plate1.png,BONBON UTCA,stimuli/scenes/022a.jpg,scene,0,stimuli/scenes/022a.jpg,stimuli/scenes/022a.jpg,stimuli/scenes/022b.jpg,stimuli/scenes/018a.jpg,stimuli/scenes/018b.jpg,target,lure,dist1,dist2,0,0,0,0,,,,,0,14,14,43,,,,,,,,,,,,,,,,,,,438.1534311,None,,,,,,,,,,,,,437.1642149,None,437.1642149,None,437.1642149,None,437.1642149,None,right,437.1642149,None,437.1642149,None,None,None,None,None,None,None,None,None,None,None,None,0.955803787,,,,,,,,,,pilot1,2022_Jun_16_0904,Hippopolis_Learning,2021.1.4,59.99488753
Hippopolis,stimuli/subj_files/pilot1_cityA.csv,./stimuli/frankfurt.jpg,./stimuli/street_plate1.png,ÁLLOMÁS UTCA,stimuli/objects/041a.jpg,object,1,stimuli/objects/022a.jpg,stimuli/objects/022b.jpg,stimuli/objects/022a.jpg,stimuli/objects/062b.jpg,stimuli/objects/062a.jpg,lure,target,dist2,dist1,0,0,0,0,,,,,0,15,15,24,,,,,,,,,,,,,,,,,,,441.5833031,None,,,,,,,,,,,,,439.1916052,None,439.1916052,None,439.1916052,None,439.1916052,None,left,439.1916052,None,439.1916052,None,None,None,None,None,None,None,None,None,None,None,None,2.352621444,,,,,,,,,,pilot1,2022_Jun_16_0904,Hippopolis_Learning,2021.1.4,59.99488753
Hippopolis,stimuli/subj_files/pilot1_cityA.csv,./stimuli/frankfurt.jpg,./stimuli/street_plate1.png,SZÖCSKE UTCA,stimuli/objects/057a.jpg,object,0,stimuli/objects/057a.jpg,stimuli/objects/057b.jpg,stimuli/objects/057a.jpg,stimuli/scenes/045b.jpg,stimuli/scenes/045a.jpg,lure,target,dist2,dist1,0,0,0,0,,,,,0,16,16,14,,,,,,,,,,,,,,,,,,,445.3829281,None,,,,,,,,,,,,,442.6128419,None,442.6128419,None,442.6128419,None,442.6128419,None,left,442.6128419,None,442.6128419,None,None,None,None,None,None,None,None,None,None,None,None,2.707496752,,,,,,,,,,pilot1,2022_Jun_16_0904,Hippopolis_Learning,2021.1.4,59.99488753
Hippopolis,stimuli/subj_files/pilot1_cityA.csv,./stimuli/frankfurt.jpg,./stimuli/street_plate1.png,OROSZLÁN UTCA,stimuli/scenes/054a.jpg,scene,2,stimuli/objects/014a.jpg,stimuli/objects/099a.jpg,stimuli/objects/099b.jpg,stimuli/objects/014b.jpg,stimuli/objects/014a.jpg,dist1,dist2,lure,target,0,0,0,0,,,,,0,17,17,52,,,,,,,,,,,,,,,,,,,448.8501178,None,,,,,,,,,,,,,446.4015577,None,446.4015577,None,446.4015577,None,446.4015577,None,left,446.4015577,None,446.4015577,None,None,None,None,None,None,None,None,None,None,None,None,2.374366091,,,,,,,,,,pilot1,2022_Jun_16_0904,Hippopolis_Learning,2021.1.4,59.99488753
Hippopolis,stimuli/subj_files/pilot1_cityA.csv,./stimuli/frankfurt.jpg,./stimuli/street_plate1.png,TETŐ UTCA,stimuli/scenes/067a.jpg,scene,2,stimuli/objects/047a.jpg,stimuli/objects/047a.jpg,stimuli/objects/047b.jpg,stimuli/objects/097b.jpg,stimuli/objects/097a.jpg,target,lure,dist2,dist1,0,0,0,0,,,,,0,18,18,8,,,,,,,,,,,,,,,,,,,450.9198181,None,,,,,,,,,,,,,449.8724469,None,449.8724469,None,449.8724469,None,449.8724469,None,right,449.8724469,None,449.8724469,None,None,None,None,None,None,None,None,None,None,None,None,0.999474399,,,,,,,,,,pilot1,2022_Jun_16_0904,Hippopolis_Learning,2021.1.4,59.99488753
Hippopolis,stimuli/subj_files/pilot1_cityA.csv,./stimuli/frankfurt.jpg,./stimuli/street_plate1.png,KESELYŰ UTCA,stimuli/scenes/027a.jpg,scene,2,stimuli/objects/101a.jpg,stimuli/scenes/044a.jpg,stimuli/objects/101a.jpg,stimuli/objects/101b.jpg,stimuli/scenes/044b.jpg,dist1,target,lure,dist2,0,0,0,0,,,,,0,19,19,4,,,,,,,,,,,,,,,,,,,453.6906906,None,,,,,,,,,,,,,451.9419876,None,451.9419876,None,451.9419876,None,451.9419876,None,left,451.9419876,None,451.9419876,None,None,None,None,None,None,None,None,None,None,None,None,1.681999499,,,,,,,,,,pilot1,2022_Jun_16_0904,Hippopolis_Learning,2021.1.4,59.99488753
Hippopolis,stimuli/subj_files/pilot1_cityA.csv,./stimuli/frankfurt.jpg,./stimuli/street_plate1.png,LÁNDZSA UTCA,stimuli/scenes/041a.jpg,scene,1,stimuli/scenes/116a.jpg,stimuli/scenes/116b.jpg,stimuli/scenes/116a.jpg,stimuli/objects/100a.jpg,stimuli/objects/100b.jpg,lure,target,dist1,dist2,0,0,0,0,,,,,0,20,20,32,,,,,,,,,,,,,,,,,,,455.9171401,None,,,,,,,,,,,,,454.7262343,None,454.7262343,None,454.7262343,None,454.7262343,None,left,454.7262343,None,454.7262343,None,None,None,None,None,None,None,None,None,None,None,None,1.137567232,,,,,,,,,,pilot1,2022_Jun_16_0904,Hippopolis_Learning,2021.1.4,59.99488753
Hippopolis,stimuli/subj_files/pilot1_cityA.csv,./stimuli/frankfurt.jpg,./stimuli/street_plate1.png,ZSÁLYA UTCA,stimuli/objects/034a.jpg,object,2,stimuli/scenes/117a.jpg,stimuli/scenes/117b.jpg,stimuli/scenes/001b.jpg,stimuli/scenes/117a.jpg,stimuli/scenes/001a.jpg,lure,dist2,target,dist1,0,0,0,0,,,,,0,21,21,33,,,,,,,,,,,,,,,,,,,459.1301295,None,,,,,,,,,,,,,456.9456217,None,456.9456217,None,456.9456217,None,456.9456217,None,left,456.9456217,None,456.9456217,None,None,None,None,None,None,None,None,None,None,None,None,2.118100086,,,,,,,,,,pilot1,2022_Jun_16_0904,Hippopolis_Learning,2021.1.4,59.99488753
Hippopolis,stimuli/subj_files/pilot1_cityA.csv,./stimuli/frankfurt.jpg,./stimuli/street_plate1.png,LEGELŐ UTCA,stimuli/scenes/012a.jpg,scene,1,stimuli/scenes/014a.jpg,stimuli/scenes/014b.jpg,stimuli/objects/016b.jpg,stimuli/scenes/014a.jpg,stimuli/objects/016a.jpg,lure,dist2,target,dist1,0,0,0,0,,,,,0,22,22,65,,,,,,,,,,,,,,,,,,,461.8176932,None,,,,,,,,,,,,,460.1552648,None,460.1552648,None,460.1552648,None,460.1552648,None,right,460.1552648,None,460.1552648,None,None,None,None,None,None,None,None,None,None,None,None,1.612841275,,,,,,,,,,pilot1,2022_Jun_16_0904,Hippopolis_Learning,2021.1.4,59.99488753
Hippopolis,stimuli/subj_files/pilot1_cityA.csv,./stimuli/frankfurt.jpg,./stimuli/street_plate1.png,POLIP UTCA,stimuli/objects/039a.jpg,object,0,stimuli/objects/039a.jpg,stimuli/objects/101a.jpg,stimuli/objects/039b.jpg,stimuli/objects/101b.jpg,stimuli/objects/039a.jpg,dist1,lure,dist2,target,0,0,0,0,,,,,0,23,23,12,,,,,,,,,,,,,,,,,,,463.9618336,None,,,,,,,,,,,,,462.8353052,None,462.8353052,None,462.8353052,None,462.8353052,None,right,462.8353052,None,462.8353052,None,None,None,None,None,None,None,None,None,None,None,None,1.092439865,,,,,,,,,,pilot1,2022_Jun_16_0904,Hippopolis_Learning,2021.1.4,59.99488753
Hippopolis,stimuli/subj_files/pilot1_cityA.csv,./stimuli/frankfurt.jpg,./stimuli/street_plate1.png,MOTOR UTCA,stimuli/objects/111a.jpg,object,1,stimuli/objects/100a.jpg,stimuli/objects/055a.jpg,stimuli/objects/100b.jpg,stimuli/objects/100a.jpg,stimuli/objects/055b.jpg,dist1,lure,target,dist2,0,0,0,0,,,,,0,24,24,55,,,,,,,,,,,,,,,,,,,466.2450172,None,,,,,,,,,,,,,464.991591,None,464.991591,None,464.991591,None,464.991591,None,left,464.991591,None,464.991591,None,None,None,None,None,None,None,None,None,None,None,None,1.208131516,,,,,,,,,,pilot1,2022_Jun_16_0904,Hippopolis_Learning,2021.1.4,59.99488753
Hippopolis,stimuli/subj_files/pilot1_cityA.csv,./stimuli/frankfurt.jpg,./stimuli/street_plate1.png,ÁLOM UTCA,stimuli/scenes/031a.jpg,scene,1,stimuli/scenes/114a.jpg,stimuli/scenes/114b.jpg,stimuli/scenes/080b.jpg,stimuli/scenes/114a.jpg,stimuli/scenes/080a.jpg,lure,dist2,target,dist1,0,0,0,0,,,,,0,25,25,15,,,,,,,,,,,,,,,,,,,470.3631674,None,,,,,,,,,,,,,467.2754137,None,467.2754137,None,467.2754137,None,467.2754137,None,left,467.2754137,None,467.2754137,None,None,None,None,None,None,None,None,None,None,None,None,3.020177174,,,,,,,,,,pilot1,2022_Jun_16_0904,Hippopolis_Learning,2021.1.4,59.99488753
Hippopolis,stimuli/subj_files/pilot1_cityA.csv,./stimuli/frankfurt.jpg,./stimuli/street_plate1.png,PÉKSÉG UTCA,stimuli/objects/030a.jpg,object,0,stimuli/objects/030a.jpg,stimuli/objects/030a.jpg,stimuli/objects/073a.jpg,stimuli/objects/030b.jpg,stimuli/objects/073b.jpg,target,dist1,lure,dist2,0,0,0,0,,,,,0,26,26,48,,,,,,,,,,,,,,,,,,,473.4504756,None,,,,,,,,,,,,,471.3860382,None,471.3860382,None,471.3860382,None,471.3860382,None,left,471.3860382,None,471.3860382,None,None,None,None,None,None,None,None,None,None,None,None,2.013989076,,,,,,,,,,pilot1,2022_Jun_16_0904,Hippopolis_Learning,2021.1.4,59.99488753
Hippopolis,stimuli/subj_files/pilot1_cityA.csv,./stimuli/frankfurt.jpg,./stimuli/street_plate1.png,KULLANCS UTCA,stimuli/scenes/111a.jpg,scene,1,stimuli/scenes/084a.jpg,stimuli/scenes/084b.jpg,stimuli/scenes/084a.jpg,stimuli/objects/054a.jpg,stimuli/objects/054b.jpg,lure,target,dist1,dist2,0,0,0,0,,,,,0,27,27,68,,,,,,,,,,,,,,,,,,,478.2503102,None,,,,,,,,,,,,,474.4810404,None,474.4810404,None,474.4810404,None,474.4810404,None,left,474.4810404,None,474.4810404,None,None,None,None,None,None,None,None,None,None,None,None,3.718596576,,,,,,,,,,pilot1,2022_Jun_16_0904,Hippopolis_Learning,2021.1.4,59.99488753
Hippopolis,stimuli/subj_files/pilot1_cityA.csv,./stimuli/frankfurt.jpg,./stimuli/street_plate1.png,TEHÉN UTCA,stimuli/objects/006a.jpg,object,1,stimuli/objects/017a.jpg,stimuli/objects/017a.jpg,stimuli/objects/017b.jpg,stimuli/scenes/113b.jpg,stimuli/scenes/113a.jpg,target,lure,dist2,dist1,0,0,0,0,,,,,0,28,28,28,,,,,,,,,,,,,,,,,,,482.5837895,None,,,,,,,,,,,,,479.2725649,None,479.2725649,None,479.2725649,None,479.2725649,None,left,479.2725649,None,479.2725649,None,None,None,None,None,None,None,None,None,None,None,None,3.247183369,,,,,,,,,,pilot1,2022_Jun_16_0904,Hippopolis_Learning,2021.1.4,59.99488753
Hippopolis,stimuli/subj_files/pilot1_cityA.csv,./stimuli/frankfurt.jpg,./stimuli/street_plate1.png,RIBIZLI UTCA,stimuli/scenes/017a.jpg,scene,0,stimuli/scenes/017a.jpg,stimuli/scenes/068b.jpg,stimuli/scenes/017a.jpg,stimuli/scenes/068a.jpg,stimuli/scenes/017b.jpg,dist2,target,dist1,lure,0,0,0,0,,,,,0,29,29,37,,,,,,,,,,,,,,,,,,,485.6597762,None,,,,,,,,,,,,,483.6009848,None,483.6009848,None,483.6009848,None,483.6009848,None,left,483.6009848,None,483.6009848,None,None,None,None,None,None,None,None,None,None,None,None,2.006578723,,,,,,,,,,pilot1,2022_Jun_16_0904,Hippopolis_Learning,2021.1.4,59.99488753
Hippopolis,stimuli/subj_files/pilot1_cityA.csv,./stimuli/frankfurt.jpg,./stimuli/street_plate1.png,KERET UTCA,stimuli/objects/046a.jpg,object,0,stimuli/objects/046a.jpg,stimuli/objects/046b.jpg,stimuli/scenes/022b.jpg,stimuli/scenes/022a.jpg,stimuli/objects/046a.jpg,lure,dist2,dist1,target,0,0,0,0,,,,,0,30,30,29,,,,,,,,,,,,,,,,,,,488.5409723,None,,,,,,,,,,,,,486.6872306,None,486.6872306,None,486.6872306,None,486.6872306,None,left,486.6872306,None,486.6872306,None,None,None,None,None,None,None,None,None,None,None,None,1.800256331,,,,,,,,,,pilot1,2022_Jun_16_0904,Hippopolis_Learning,2021.1.4,59.99488753
Hippopolis,stimuli/subj_files/pilot1_cityA.csv,./stimuli/frankfurt.jpg,./stimuli/street_plate1.png,KIRAKÓ UTCA,stimuli/scenes/021a.jpg,scene,1,stimuli/scenes/020a.jpg,stimuli/objects/022b.jpg,stimuli/objects/022a.jpg,stimuli/scenes/020a.jpg,stimuli/scenes/020b.jpg,dist2,dist1,target,lure,0,0,0,0,,,,,0,31,31,59,,,,,,,,,,,,,,,,,,,493.567639,None,,,,,,,,,,,,,489.5762094,None,489.5762094,None,489.5762094,None,489.5762094,None,None,489.5762094,None,489.5762094,None,None,None,None,None,None,None,None,None,None,None,None,,,,,,,,,,,pilot1,2022_Jun_16_0904,Hippopolis_Learning,2021.1.4,59.99488753
Hippopolis,stimuli/subj_files/pilot1_cityA.csv,./stimuli/frankfurt.jpg,./stimuli/street_plate1.png,BÚJÓCSKA UTCA,stimuli/objects/025a.jpg,object,2,stimuli/scenes/001a.jpg,stimuli/scenes/096b.jpg,stimuli/scenes/001a.jpg,stimuli/scenes/096a.jpg,stimuli/scenes/001b.jpg,dist2,target,dist1,lure,0,0,0,0,,,,,0,32,32,7,,,,,,,,,,,,,,,,,,,498.0008214,None,,,,,,,,,,,,,494.5950324,None,494.5950324,None,494.5950324,None,494.5950324,None,right,494.5950324,None,494.5950324,None,None,None,None,None,None,None,None,None,None,None,None,3.364308449,,,,,,,,,,pilot1,2022_Jun_16_0904,Hippopolis_Learning,2021.1.4,59.99488753
Hippopolis,stimuli/subj_files/pilot1_cityA.csv,./stimuli/frankfurt.jpg,./stimuli/street_plate1.png,KULACS UTCA,stimuli/objects/045a.jpg,object,1,stimuli/objects/073a.jpg,stimuli/objects/073a.jpg,stimuli/objects/073b.jpg,stimuli/scenes/002a.jpg,stimuli/scenes/002b.jpg,target,lure,dist1,dist2,0,0,0,0,,,,,0,33,33,51,,,,,,,,,,,,,,,,,,,501.6974858,None,,,,,,,,,,,,,499.0202409,None,499.0202409,None,499.0202409,None,499.0202409,None,left,499.0202409,None,499.0202409,None,None,None,None,None,None,None,None,None,None,None,None,2.603196028,,,,,,,,,,pilot1,2022_Jun_16_0904,Hippopolis_Learning,2021.1.4,59.99488753
Hippopolis,stimuli/subj_files/pilot1_cityA.csv,./stimuli/frankfurt.jpg,./stimuli/street_plate1.png,VÁSÁR UTCA,stimuli/objects/060a.jpg,object,1,stimuli/objects/076a.jpg,stimuli/objects/076b.jpg,stimuli/objects/076a.jpg,stimuli/objects/080b.jpg,stimuli/objects/080a.jpg,lure,target,dist2,dist1,0,0,0,0,,,,,0,34,34,40,,,,,,,,,,,,,,,,,,,505.4684422,None,,,,,,,,,,,,,502.7215176,None,502.7215176,None,502.7215176,None,502.7215176,None,left,502.7215176,None,502.7215176,None,None,None,None,None,None,None,None,None,None,None,None,2.677713517,,,,,,,,,,pilot1,2022_Jun_16_0904,Hippopolis_Learning,2021.1.4,59.99488753
Hippopolis,stimuli/subj_files/pilot1_cityA.csv,./stimuli/frankfurt.jpg,./stimuli/street_plate1.png,TÁBLA UTCA,stimuli/objects/118a.jpg,object,1,stimuli/objects/042a.jpg,stimuli/scenes/084a.jpg,stimuli/scenes/084b.jpg,stimuli/objects/042a.jpg,stimuli/objects/042b.jpg,dist1,dist2,target,lure,0,0,0,0,,,,,0,35,35,78,,,,,,,,,,,,,,,,,,,509.6375041,None,,,,,,,,,,,,,506.4867825,None,506.4867825,None,506.4867825,None,506.4867825,None,left,506.4867825,None,506.4867825,None,None,None,None,None,None,None,None,None,None,None,None,3.088782117,,,,,,,,,,pilot1,2022_Jun_16_0904,Hippopolis_Learning,2021.1.4,59.99488753
Hippopolis,stimuli/subj_files/pilot1_cityA.csv,./stimuli/frankfurt.jpg,./stimuli/street_plate1.png,TENISZ UTCA,stimuli/objects/089a.jpg,object,2,stimuli/scenes/120a.jpg,stimuli/objects/040a.jpg,stimuli/objects/040b.jpg,stimuli/scenes/120b.jpg,stimuli/scenes/120a.jpg,dist1,dist2,lure,target,0,0,0,0,,,,,0,36,36,0,,,,,,,,,,,,,,,,,,,511.8801704,None,,,,,,,,,,,,,510.654662,None,510.654662,None,510.654662,None,510.654662,None,right,510.654662,None,510.654662,None,None,None,None,None,None,None,None,None,None,None,None,1.176640544,,,,,,,,,,pilot1,2022_Jun_16_0904,Hippopolis_Learning,2021.1.4,59.99488753
Hippopolis,stimuli/subj_files/pilot1_cityA.csv,./stimuli/frankfurt.jpg,./stimuli/street_plate1.png,DARU UTCA,stimuli/scenes/035a.jpg,scene,1,stimuli/scenes/080a.jpg,stimuli/scenes/080b.jpg,stimuli/objects/010b.jpg,stimuli/objects/010a.jpg,stimuli/scenes/080a.jpg,lure,dist2,dist1,target,0,0,0,0,,,,,0,37,37,41,,,,,,,,,,,,,,,,,,,514.3078909,None,,,,,,,,,,,,,512.9074541,None,512.9074541,None,512.9074541,None,512.9074541,None,left,512.9074541,None,512.9074541,None,None,None,None,None,None,None,None,None,None,None,None,1.339607684,,,,,,,,,,pilot1,2022_Jun_16_0904,Hippopolis_Learning,2021.1.4,59.99488753
Hippopolis,stimuli/subj_files/pilot1_cityA.csv,./stimuli/frankfurt.jpg,./stimuli/street_plate1.png,KÖNYVTÁR UTCA,stimuli/objects/070a.jpg,object,0,stimuli/objects/070a.jpg,stimuli/objects/070a.jpg,stimuli/scenes/100b.jpg,stimuli/scenes/100a.jpg,stimuli/objects/070b.jpg,target,dist2,dist1,lure,0,0,0,0,,,,,0,38,38,79,,,,,,,,,,,,,,,,,,,519.3434393,None,,,,,,,,,,,,,515.3421791,None,515.3421791,None,515.3421791,None,515.3421791,None,None,515.3421791,None,515.3421791,None,None,None,None,None,None,None,None,None,None,None,None,,,,,,,,,,,pilot1,2022_Jun_16_0904,Hippopolis_Learning,2021.1.4,59.99488753
Hippopolis,stimuli/subj_files/pilot1_cityA.csv,./stimuli/frankfurt.jpg,./stimuli/street_plate1.png,SZERSZÁM UTCA,stimuli/objects/037a.jpg,object,0,stimuli/objects/037a.jpg,stimuli/objects/037a.jpg,stimuli/scenes/097b.jpg,stimuli/scenes/097a.jpg,stimuli/objects/037b.jpg,target,dist2,dist1,lure,0,0,0,0,,,,,0,39,39,19,,,,,,,,,,,,,,,,,,,523.6825167,None,,,,,,,,,,,,,520.3788695,None,520.3788695,None,520.3788695,None,520.3788695,None,left,520.3788695,None,520.3788695,None,None,None,None,None,None,None,None,None,None,None,None,3.244328328,,,,,,,,,,pilot1,2022_Jun_16_0904,Hippopolis_Learning,2021.1.4,59.99488753
Hippopolis,stimuli/subj_files/pilot1_cityA.csv,./stimuli/frankfurt.jpg,./stimuli/street_plate1.png,KAKAS UTCA,stimuli/scenes/057a.jpg,scene,1,stimuli/scenes/076a.jpg,stimuli/scenes/076b.jpg,stimuli/objects/014b.jpg,stimuli/objects/014a.jpg,stimuli/scenes/076a.jpg,lure,dist2,dist1,target,0,0,0,0,,,,,0,40,40,18,,,,,,,,,,,,,,,,,,,526.2874059,None,,,,,,,,,,,,,524.7144092,None,524.7144092,None,524.7144092,None,524.7144092,None,left,524.7144092,None,524.7144092,None,None,None,None,None,None,None,None,None,None,None,None,1.532662223,,,,,,,,,,pilot1,2022_Jun_16_0904,Hippopolis_Learning,2021.1.4,59.99488753
Hippopolis,stimuli/subj_files/pilot1_cityA.csv,./stimuli/frankfurt.jpg,./stimuli/street_plate1.png,KECSKE UTCA,stimuli/objects/011a.jpg,object,1,stimuli/objects/086a.jpg,stimuli/objects/086b.jpg,stimuli/objects/066a.jpg,stimuli/objects/086a.jpg,stimuli/objects/066b.jpg,lure,dist1,target,dist2,0,0,0,0,,,,,0,41,41,64,,,,,,,,,,,,,,,,,,,531.0810723,None,,,,,,,,,,,,,527.3237435,None,527.3237435,None,527.3237435,None,527.3237435,None,left,527.3237435,None,527.3237435,None,None,None,None,None,None,None,None,None,None,None,None,3.707138472,,,,,,,,,,pilot1,2022_Jun_16_0904,Hippopolis_Learning,2021.1.4,59.99488753
Hippopolis,stimuli/subj_files/pilot1_cityA.csv,./stimuli/frankfurt.jpg,./stimuli/street_plate1.png,TORONY UTCA,stimuli/scenes/059a.jpg,scene,2,stimuli/objects/120a.jpg,stimuli/scenes/104b.jpg,stimuli/objects/120b.jpg,stimuli/scenes/104a.jpg,stimuli/objects/120a.jpg,dist2,lure,dist1,target,0,0,0,0,,,,,0,42,42,6,,,,,,,,,,,,,,,,,,,534.1262096,None,,,,,,,,,,,,,532.1062013,None,532.1062013,None,532.1062013,None,532.1062013,None,left,532.1062013,None,532.1062013,None,None,None,None,None,None,None,None,None,None,None,None,1.96471848,,,,,,,,,,pilot1,2022_Jun_16_0904,Hippopolis_Learning,2021.1.4,59.99488753
Hippopolis,stimuli/subj_files/pilot1_cityA.csv,./stimuli/frankfurt.jpg,./stimuli/street_plate1.png,EGÉR UTCA,stimuli/objects/013a.jpg,object,1,stimuli/objects/080a.jpg,stimuli/scenes/070a.jpg,stimuli/objects/080a.jpg,stimuli/objects/080b.jpg,stimuli/scenes/070b.jpg,dist1,target,lure,dist2,0,0,0,0,,,,,0,43,43,34,,,,,,,,,,,,,,,,,,,536.2515291,None,,,,,,,,,,,,,535.1612233,None,535.1612233,None,535.1612233,None,535.1612233,None,left,535.1612233,None,535.1612233,None,None,None,None,None,None,None,None,None,None,None,None,1.053696531,,,,,,,,,,pilot1,2022_Jun_16_0904,Hippopolis_Learning,2021.1.4,59.99488753
Hippopolis,stimuli/subj_files/pilot1_cityA.csv,./stimuli/frankfurt.jpg,./stimuli/street_plate1.png,LOVAGLÁS UTCA,stimuli/objects/110a.jpg,object,1,stimuli/objects/010a.jpg,stimuli/objects/010b.jpg,stimuli/scenes/007a.jpg,stimuli/objects/010a.jpg,stimuli/scenes/007b.jpg,lure,dist1,target,dist2,0,0,0,0,,,,,0,44,44,22,,,,,,,,,,,,,,,,,,,539.1036551,None,,,,,,,,,,,,,537.2652967,None,537.2652967,None,537.2652967,None,537.2652967,None,left,537.2652967,None,537.2652967,None,None,None,None,None,None,None,None,None,None,None,None,1.782207375,,,,,,,,,,pilot1,2022_Jun_16_0904,Hippopolis_Learning,2021.1.4,59.99488753
Hippopolis,stimuli/subj_files/pilot1_cityA.csv,./stimuli/frankfurt.jpg,./stimuli/street_plate1.png,BICIKLI UTCA,stimuli/objects/027a.jpg,object,2,stimuli/scenes/026a.jpg,stimuli/scenes/029b.jpg,stimuli/scenes/026b.jpg,stimuli/scenes/029a.jpg,stimuli/scenes/026a.jpg,dist2,lure,dist1,target,0,0,0,0,,,,,0,45,45,47,,,,,,,,,,,,,,,,,,,543.5769856,None,,,,,,,,,,,,,540.1385914,None,540.1385914,None,540.1385914,None,540.1385914,None,left,540.1385914,None,540.1385914,None,None,None,None,None,None,None,None,None,None,None,None,3.388691365,,,,,,,,,,pilot1,2022_Jun_16_0904,Hippopolis_Learning,2021.1.4,59.99488753
Hippopolis,stimuli/subj_files/pilot1_cityA.csv,./stimuli/frankfurt.jpg,./stimuli/street_plate1.png,FIÓK UTCA,stimuli/objects/012a.jpg,object,0,stimuli/objects/012a.jpg,stimuli/objects/012a.jpg,stimuli/objects/024b.jpg,stimuli/objects/012b.jpg,stimuli/objects/024a.jpg,target,dist2,lure,dist1,0,0,0,0,,,,,0,46,46,31,,,,,,,,,,,,,,,,,,,548.6254616,None,,,,,,,,,,,,,544.6098839,None,544.6098839,None,544.6098839,None,544.6098839,None,None,544.6098839,None,544.6098839,None,None,None,None,None,None,None,None,None,None,None,None,,,,,,,,,,,pilot1,2022_Jun_16_0904,Hippopolis_Learning,2021.1.4,59.99488753
Hippopolis,stimuli/subj_files/pilot1_cityA.csv,./stimuli/frankfurt.jpg,./stimuli/street_plate1.png,NARANCS UTCA,stimuli/scenes/103a.jpg,scene,2,stimuli/objects/097a.jpg,stimuli/objects/097b.jpg,stimuli/objects/046a.jpg,stimuli/objects/046b.jpg,stimuli/objects/097a.jpg,lure,dist1,dist2,target,0,0,0,0,,,,,0,47,47,13,,,,,,,,,,,,,,,,,,,553.6781265,None,,,,,,,,,,,,,549.6588945,None,549.6588945,None,549.6588945,None,549.6588945,None,None,549.6588945,None,549.6588945,None,None,None,None,None,None,None,None,None,None,None,None,,,,,,,,,,,pilot1,2022_Jun_16_0904,Hippopolis_Learning,2021.1.4,59.99488753
Hippopolis,stimuli/subj_files/pilot1_cityA.csv,./stimuli/frankfurt.jpg,./stimuli/street_plate1.png,POHÁR UTCA,stimuli/scenes/062a.jpg,scene,1,stimuli/scenes/064a.jpg,stimuli/scenes/064a.jpg,stimuli/scenes/006b.jpg,stimuli/scenes/006a.jpg,stimuli/scenes/064b.jpg,target,dist2,dist1,lure,0,0,0,0,,,,,0,48,48,38,,,,,,,,,,,,,,,,,,,555.9281988,None,,,,,,,,,,,,,554.6989811,None,554.6989811,None,554.6989811,None,554.6989811,None,left,554.6989811,None,554.6989811,None,None,None,None,None,None,None,None,None,None,None,None,1.179733816,,,,,,,,,,pilot1,2022_Jun_16_0904,Hippopolis_Learning,2021.1.4,59.99488753
Hippopolis,stimuli/subj_files/pilot1_cityA.csv,./stimuli/frankfurt.jpg,./stimuli/street_plate1.png,VITORLA UTCA,stimuli/scenes/086a.jpg,scene,2,stimuli/objects/015a.jpg,stimuli/objects/015b.jpg,stimuli/objects/115a.jpg,stimuli/objects/015a.jpg,stimuli/objects/115b.jpg,lure,dist1,target,dist2,0,0,0,0,,,,,0,49,49,77,,,,,,,,,,,,,,,,,,,558.2681744,None,,,,,,,,,,,,,556.9501805,None,556.9501805,None,556.9501805,None,556.9501805,None,left,556.9501805,None,556.9501805,None,None,None,None,None,None,None,None,None,None,None,None,1.280485643,,,,,,,,,,pilot1,2022_Jun_16_0904,Hippopolis_Learning,2021.1.4,59.99488753
Hippopolis,stimuli/subj_files/pilot1_cityA.csv,./stimuli/frankfurt.jpg,./stimuli/street_plate1.png,PAPAGÁJ UTCA,stimuli/scenes/023a.jpg,scene,1,stimuli/scenes/113a.jpg,stimuli/objects/070b.jpg,stimuli/scenes/113b.jpg,stimuli/objects/070a.jpg,stimuli/scenes/113a.jpg,dist2,lure,dist1,target,0,0,0,0,,,,,0,50,50,53,,,,,,,,,,,,,,,,,,,560.4839564,None,,,,,,,,,,,,,559.2995566,None,559.2995566,None,559.2995566,None,559.2995566,None,right,559.2995566,None,559.2995566,None,None,None,None,None,None,None,None,None,None,None,None,1.123172292,,,,,,,,,,pilot1,2022_Jun_16_0904,Hippopolis_Learning,2021.1.4,59.99488753
Hippopolis,stimuli/subj_files/pilot1_cityA.csv,./stimuli/frankfurt.jpg,./stimuli/street_plate1.png,MENTA UTCA,stimuli/objects/088a.jpg,object,1,stimuli/objects/054a.jpg,stimuli/scenes/088b.jpg,stimuli/scenes/088a.jpg,stimuli/objects/054b.jpg,stimuli/objects/054a.jpg,dist2,dist1,lure,target,0,0,0,0,,,,,0,51,51,26,,,,,,,,,,,,,,,,,,,563.6357062,None,,,,,,,,,,,,,561.5028323,None,561.5028323,None,561.5028323,None,561.5028323,None,right,561.5028323,None,561.5028323,None,None,None,None,None,None,None,None,None,None,None,None,2.08779436,,,,,,,,,,pilot1,2022_Jun_16_0904,Hippopolis_Learning,2021.1.4,59.99488753
Hippopolis,stimuli/subj_files/pilot1_cityA.csv,./stimuli/frankfurt.jpg,./stimuli/street_plate1.png,MUNKA UTCA,stimuli/objects/061a.jpg,object,2,stimuli/scenes/077a.jpg,stimuli/scenes/020a.jpg,stimuli/scenes/020b.jpg,stimuli/scenes/077b.jpg,stimuli/scenes/077a.jpg,dist1,dist2,lure,target,0,0,0,0,,,,,0,52,52,25,,,,,,,,,,,,,,,,,,,565.638922,None,,,,,,,,,,,,,564.6543146,None,564.6543146,None,564.6543146,None,564.6543146,None,left,564.6543146,None,564.6543146,None,None,None,None,None,None,None,None,None,None,None,None,0.952266087,,,,,,,,,,pilot1,2022_Jun_16_0904,Hippopolis_Learning,2021.1.4,59.99488753
Hippopolis,stimuli/subj_files/pilot1_cityA.csv,./stimuli/frankfurt.jpg,./stimuli/street_plate1.png,KIFLI UTCA,stimuli/scenes/006a.jpg,scene,0,stimuli/scenes/006a.jpg,stimuli/scenes/006a.jpg,stimuli/scenes/006b.jpg,stimuli/scenes/014b.jpg,stimuli/scenes/014a.jpg,target,lure,dist2,dist1,0,0,0,0,,,,,0,53,53,62,,,,,,,,,,,,,,,,,,,570.181176,None,,,,,,,,,,,,,566.661762,None,566.661762,None,566.661762,None,566.661762,None,right,566.661762,None,566.661762,None,None,None,None,None,None,None,None,None,None,None,None,3.456705706,,,,,,,,,,pilot1,2022_Jun_16_0904,Hippopolis_Learning,2021.1.4,59.99488753
Hippopolis,stimuli/subj_files/pilot1_cityA.csv,./stimuli/frankfurt.jpg,./stimuli/street_plate1.png,DOBOZ UTCA,stimuli/scenes/030a.jpg,scene,1,stimuli/scenes/060a.jpg,stimuli/scenes/051a.jpg,stimuli/scenes/060b.jpg,stimuli/scenes/060a.jpg,stimuli/scenes/051b.jpg,dist1,lure,target,dist2,0,0,0,0,,,,,0,54,54,21,,,,,,,,,,,,,,,,,,,573.0329269,None,,,,,,,,,,,,,571.1999318,None,571.1999318,None,571.1999318,None,571.1999318,None,right,571.1999318,None,571.1999318,None,None,None,None,None,None,None,None,None,None,None,None,1.782610129,,,,,,,,,,pilot1,2022_Jun_16_0904,Hippopolis_Learning,2021.1.4,59.99488753
Hippopolis,stimuli/subj_files/pilot1_cityA.csv,./stimuli/frankfurt.jpg,./stimuli/street_plate1.png,KOKTÉL UTCA,stimuli/scenes/106a.jpg,scene,1,stimuli/scenes/096a.jpg,stimuli/scenes/096a.jpg,stimuli/scenes/096b.jpg,stimuli/objects/042a.jpg,stimuli/objects/042b.jpg,target,lure,dist1,dist2,0,0,0,0,,,,,0,55,55,44,,,,,,,,,,,,,,,,,,,575.8806248,None,,,,,,,,,,,,,574.0526693,None,574.0526693,None,574.0526693,None,574.0526693,None,left,574.0526693,None,574.0526693,None,None,None,None,None,None,None,None,None,None,None,None,1.777926992,,,,,,,,,,pilot1,2022_Jun_16_0904,Hippopolis_Learning,2021.1.4,59.99488753
Hippopolis,stimuli/subj_files/pilot1_cityA.csv,./stimuli/frankfurt.jpg,./stimuli/street_plate1.png,TOLLTARTÓ UTCA,stimuli/objects/117a.jpg,object,2,stimuli/scenes/045a.jpg,stimuli/scenes/045b.jpg,stimuli/scenes/120b.jpg,stimuli/scenes/045a.jpg,stimuli/scenes/120a.jpg,lure,dist2,target,dist1,0,0,0,0,,,,,0,56,56,58,,,,,,,,,,,,,,,,,,,580.0331234,None,,,,,,,,,,,,,576.8995928,None,576.8995928,None,576.8995928,None,576.8995928,None,left,576.8995928,None,576.8995928,None,None,None,None,None,None,None,None,None,None,None,None,3.091041269,,,,,,,,,,pilot1,2022_Jun_16_0904,Hippopolis_Learning,2021.1.4,59.99488753
Hippopolis,stimuli/subj_files/pilot1_cityA.csv,./stimuli/frankfurt.jpg,./stimuli/street_plate1.png,FÜGE UTCA,stimuli/objects/109a.jpg,object,2,stimuli/scenes/104a.jpg,stimuli/scenes/104b.jpg,stimuli/objects/030b.jpg,stimuli/scenes/104a.jpg,stimuli/objects/030a.jpg,lure,dist2,target,dist1,0,0,0,0,,,,,0,57,57,9,,,,,,,,,,,,,,,,,,,583.2716014,None,,,,,,,,,,,,,581.0539951,None,581.0539951,None,581.0539951,None,581.0539951,None,left,581.0539951,None,581.0539951,None,None,None,None,None,None,None,None,None,None,None,None,2.168440856,,,,,,,,,,pilot1,2022_Jun_16_0904,Hippopolis_Learning,2021.1.4,59.99488753
Hippopolis,stimuli/subj_files/pilot1_cityA.csv,./stimuli/frankfurt.jpg,./stimuli/street_plate1.png,LEPKE UTCA,stimuli/scenes/046a.jpg,scene,0,stimuli/scenes/046a.jpg,stimuli/scenes/094a.jpg,stimuli/scenes/046a.jpg,stimuli/scenes/046b.jpg,stimuli/scenes/094b.jpg,dist1,target,lure,dist2,0,0,0,0,,,,,0,58,58,61,,,,,,,,,,,,,,,,,,,587.0387231,None,,,,,,,,,,,,,584.2893325,None,584.2893325,None,584.2893325,None,584.2893325,None,left,584.2893325,None,584.2893325,None,None,None,None,None,None,None,None,None,None,None,None,2.709044009,,,,,,,,,,pilot1,2022_Jun_16_0904,Hippopolis_Learning,2021.1.4,59.99488753
Hippopolis,stimuli/subj_files/pilot1_cityA.csv,./stimuli/frankfurt.jpg,./stimuli/street_plate1.png,KENYÉR UTCA,stimuli/scenes/071a.jpg,scene,2,stimuli/objects/055a.jpg,stimuli/objects/033b.jpg,stimuli/objects/055a.jpg,stimuli/objects/055b.jpg,stimuli/objects/033a.jpg,dist2,target,lure,dist1,0,0,0,0,,,,,0,59,59,17,,,,,,,,,,,,,,,,,,,590.6868885,None,,,,,,,,,,,,,588.0714824,None,588.0714824,None,588.0714824,None,588.0714824,None,left,588.0714824,None,588.0714824,None,None,None,None,None,None,None,None,None,None,None,None,2.574946056,,,,,,,,,,pilot1,2022_Jun_16_0904,Hippopolis_Learning,2021.1.4,59.99488753
Hippopolis,stimuli/subj_files/pilot1_cityA.csv,./stimuli/frankfurt.jpg,./stimuli/street_plate1.png,FÜZET UTCA,stimuli/scenes/008a.jpg,scene,2,stimuli/objects/024a.jpg,stimuli/objects/024b.jpg,stimuli/scenes/117a.jpg,stimuli/objects/024a.jpg,stimuli/scenes/117b.jpg,lure,dist1,target,dist2,0,0,0,0,,,,,0,60,60,69,,,,,,,,,,,,,,,,,,,595.581173,None,,,,,,,,,,,,,591.7105707,None,591.7105707,None,591.7105707,None,591.7105707,None,left,591.7105707,None,591.7105707,None,None,None,None,None,None,None,None,None,None,None,None,3.831920223,,,,,,,,,,pilot1,2022_Jun_16_0904,Hippopolis_Learning,2021.1.4,59.99488753
Hippopolis,stimuli/subj_files/pilot1_cityA.csv,./stimuli/frankfurt.jpg,./stimuli/street_plate1.png,TELEFON UTCA,stimuli/objects/102a.jpg,object,2,stimuli/scenes/004a.jpg,stimuli/objects/057a.jpg,stimuli/scenes/004b.jpg,stimuli/scenes/004a.jpg,stimuli/objects/057b.jpg,dist1,lure,target,dist2,0,0,0,0,,,,,0,61,61,66,,,,,,,,,,,,,,,,,,,597.8781218,None,,,,,,,,,,,,,596.6111491,None,596.6111491,None,596.6111491,None,596.6111491,None,left,596.6111491,None,596.6111491,None,None,None,None,None,None,None,None,None,None,None,None,1.219133996,,,,,,,,,,pilot1,2022_Jun_16_0904,Hippopolis_Learning,2021.1.4,59.99488753
Hippopolis,stimuli/subj_files/pilot1_cityA.csv,./stimuli/frankfurt.jpg,./stimuli/street_plate1.png,PETREZSELYEM UTCA,stimuli/objects/090a.jpg,object,1,stimuli/objects/040a.jpg,stimuli/objects/040a.jpg,stimuli/objects/053a.jpg,stimuli/objects/053b.jpg,stimuli/objects/040b.jpg,target,dist1,dist2,lure,0,0,0,0,,,,,0,62,62,16,,,,,,,,,,,,,,,,,,,600.3499605,None,,,,,,,,,,,,,598.904516,None,598.904516,None,598.904516,None,598.904516,None,left,598.904516,None,598.904516,None,None,None,None,None,None,None,None,None,None,None,None,1.390252307,,,,,,,,,,pilot1,2022_Jun_16_0904,Hippopolis_Learning,2021.1.4,59.99488753
Hippopolis,stimuli/subj_files/pilot1_cityA.csv,./stimuli/frankfurt.jpg,./stimuli/street_plate1.png,SZIKLA UTCA,stimuli/objects/077a.jpg,object,1,stimuli/objects/072a.jpg,stimuli/scenes/017b.jpg,stimuli/objects/072a.jpg,stimuli/scenes/017a.jpg,stimuli/objects/072b.jpg,dist2,target,dist1,lure,0,0,0,0,,,,,0,63,63,1,,,,,,,,,,,,,,,,,,,605.3875469,None,,,,,,,,,,,,,601.3710831,None,601.3710831,None,601.3710831,None,601.3710831,None,None,601.3710831,None,601.3710831,None,None,None,None,None,None,None,None,None,None,None,None,,,,,,,,,,,pilot1,2022_Jun_16_0904,Hippopolis_Learning,2021.1.4,59.99488753
Hippopolis,stimuli/subj_files/pilot1_cityA.csv,./stimuli/frankfurt.jpg,./stimuli/street_plate1.png,MÁLNA UTCA,stimuli/scenes/003a.jpg,scene,2,stimuli/objects/115a.jpg,stimuli/objects/115a.jpg,stimuli/objects/115b.jpg,stimuli/objects/086a.jpg,stimuli/objects/086b.jpg,target,lure,dist1,dist2,0,0,0,0,,,,,0,64,64,45,,,,,,,,,,,,,,,,,,,608.3292997,None,,,,,,,,,,,,,606.4043493,None,606.4043493,None,606.4043493,None,606.4043493,None,left,606.4043493,None,606.4043493,None,None,None,None,None,None,None,None,None,None,None,None,1.873623407,,,,,,,,,,pilot1,2022_Jun_16_0904,Hippopolis_Learning,2021.1.4,59.99488753
Hippopolis,stimuli/subj_files/pilot1_cityA.csv,./stimuli/frankfurt.jpg,./stimuli/street_plate1.png,KABÁT UTCA,stimuli/scenes/032a.jpg,scene,1,stimuli/scenes/105a.jpg,stimuli/scenes/105a.jpg,stimuli/scenes/024b.jpg,stimuli/scenes/024a.jpg,stimuli/scenes/105b.jpg,target,dist2,dist1,lure,0,0,0,0,,,,,0,65,65,50,,,,,,,,,,,,,,,,,,,611.797057,None,,,,,,,,,,,,,609.3584348,None,609.3584348,None,609.3584348,None,609.3584348,None,right,609.3584348,None,609.3584348,None,None,None,None,None,None,None,None,None,None,None,None,2.375569997,,,,,,,,,,pilot1,2022_Jun_16_0904,Hippopolis_Learning,2021.1.4,59.99488753
Hippopolis,stimuli/subj_files/pilot1_cityA.csv,./stimuli/frankfurt.jpg,./stimuli/street_plate1.png,MARTINI UTCA,stimuli/scenes/069a.jpg,scene,0,stimuli/scenes/069a.jpg,stimuli/objects/065a.jpg,stimuli/scenes/069b.jpg,stimuli/scenes/069a.jpg,stimuli/objects/065b.jpg,dist1,lure,target,dist2,0,0,0,0,,,,,0,66,66,54,,,,,,,,,,,,,,,,,,,615.4286019,None,,,,,,,,,,,,,612.8277375,None,612.8277375,None,612.8277375,None,612.8277375,None,left,612.8277375,None,612.8277375,None,None,None,None,None,None,None,None,None,None,None,None,2.554342803,,,,,,,,,,pilot1,2022_Jun_16_0904,Hippopolis_Learning,2021.1.4,59.99488753
Hippopolis,stimuli/subj_files/pilot1_cityA.csv,./stimuli/frankfurt.jpg,./stimuli/street_plate1.png,KÁRTYA UTCA,stimuli/scenes/079a.jpg,scene,1,stimuli/scenes/094a.jpg,stimuli/scenes/094a.jpg,stimuli/scenes/105a.jpg,stimuli/scenes/105b.jpg,stimuli/scenes/094b.jpg,target,dist1,dist2,lure,0,0,0,0,,,,,0,67,67,30,,,,,,,,,,,,,,,,,,,617.6819998,None,,,,,,,,,,,,,616.4542466,None,616.4542466,None,616.4542466,None,616.4542466,None,left,616.4542466,None,616.4542466,None,None,None,None,None,None,None,None,None,None,None,None,1.183784055,,,,,,,,,,pilot1,2022_Jun_16_0904,Hippopolis_Learning,2021.1.4,59.99488753
Hippopolis,stimuli/subj_files/pilot1_cityA.csv,./stimuli/frankfurt.jpg,./stimuli/street_plate1.png,TÉRKÉP UTCA,stimuli/scenes/061a.jpg,scene,2,stimuli/objects/065a.jpg,stimuli/objects/065a.jpg,stimuli/scenes/060b.jpg,stimuli/scenes/060a.jpg,stimuli/objects/065b.jpg,target,dist2,dist1,lure,0,0,0,0,,,,,0,68,68,72,,,,,,,,,,,,,,,,,,,629.5622722,None,,,,,,,,,,,,,618.7065423,None,618.7065423,None,618.7065423,None,618.7065423,None,right,618.7065423,None,618.7065423,None,620.2665948,None,620.2665948,None,620.2665948,None,620.2665948,None,space,620.2665948,None,1.507457316,9.259709159,,,,,,,,,pilot1,2022_Jun_16_0904,Hippopolis_Learning,2021.1.4,59.99488753
Hippopolis,stimuli/subj_files/pilot1_cityA.csv,./stimuli/frankfurt.jpg,./stimuli/street_plate1.png,ZSEMLE UTCA,stimuli/objects/035a.jpg,object,2,stimuli/scenes/100a.jpg,stimuli/objects/120a.jpg,stimuli/scenes/100b.jpg,stimuli/objects/120b.jpg,stimuli/scenes/100a.jpg,dist1,lure,dist2,target,0,0,0,0,,,,,0,69,69,27,,,,,,,,,,,,,,,,,,,632.5660108,None,,,,,,,,,,,,,630.5896212,None,630.5896212,None,630.5896212,None,630.5896212,None,left,630.5896212,None,630.5896212,None,None,None,None,None,None,None,None,None,None,None,None,1.928263221,,,,,,,,,,pilot1,2022_Jun_16_0904,Hippopolis_Learning,2021.1.4,59.99488753
Hippopolis,stimuli/subj_files/pilot1_cityA.csv,./stimuli/frankfurt.jpg,./stimuli/street_plate1.png,MANDARIN UTCA,stimuli/scenes/047a.jpg,scene,1,stimuli/scenes/024a.jpg,stimuli/scenes/024a.jpg,stimuli/scenes/024b.jpg,stimuli/scenes/069a.jpg,stimuli/scenes/069b.jpg,target,lure,dist1,dist2,0,0,0,0,,,,,0,70,70,60,,,,,,,,,,,,,,,,,,,636.8187734,None,,,,,,,,,,,,,633.5947382,None,633.5947382,None,633.5947382,None,633.5947382,None,left,633.5947382,None,633.5947382,None,None,None,None,None,None,None,None,None,None,None,None,3.162969628,,,,,,,,,,pilot1,2022_Jun_16_0904,Hippopolis_Learning,2021.1.4,59.99488753
Hippopolis,stimuli/subj_files/pilot1_cityA.csv,./stimuli/frankfurt.jpg,./stimuli/street_plate1.png,SZITAKÖTŐ UTCA,stimuli/objects/064a.jpg,object,0,stimuli/objects/064a.jpg,stimuli/objects/037b.jpg,stimuli/objects/064a.jpg,stimuli/objects/064b.jpg,stimuli/objects/037a.jpg,dist2,target,lure,dist1,0,0,0,0,,,,,0,71,71,3,,,,,,,,,,,,,,,,,,,640.680743,None,,,,,,,,,,,,,637.8523067,None,637.8523067,None,637.8523067,None,637.8523067,None,left,637.8523067,None,637.8523067,None,None,None,None,None,None,None,None,None,None,None,None,2.777837111,,,,,,,,,,pilot1,2022_Jun_16_0904,Hippopolis_Learning,2021.1.4,59.99488753
Hippopolis,stimuli/subj_files/pilot1_cityA.csv,./stimuli/frankfurt.jpg,./stimuli/street_plate1.png,KOCKA UTCA,stimuli/scenes/002a.jpg,scene,0,stimuli/scenes/002a.jpg,stimuli/scenes/072a.jpg,stimuli/scenes/002b.jpg,stimuli/scenes/072b.jpg,stimuli/scenes/002a.jpg,dist1,lure,dist2,target,0,0,0,0,,,,,0,72,72,73,,,,,,,,,,,,,,,,,,,644.5055944,None,,,,,,,,,,,,,641.698838,None,641.698838,None,641.698838,None,641.698838,None,left,641.698838,None,641.698838,None,None,None,None,None,None,None,None,None,None,None,None,2.770911305,,,,,,,,,,pilot1,2022_Jun_16_0904,Hippopolis_Learning,2021.1.4,59.99488753
Hippopolis,stimuli/subj_files/pilot1_cityA.csv,./stimuli/frankfurt.jpg,./stimuli/street_plate1.png,SIVATAG UTCA,stimuli/scenes/085a.jpg,scene,2,stimuli/objects/038a.jpg,stimuli/objects/012b.jpg,stimuli/objects/038a.jpg,stimuli/objects/038b.jpg,stimuli/objects/012a.jpg,dist2,target,lure,dist1,0,0,0,0,,,,,0,73,73,35,,,,,,,,,,,,,,,,,,,647.3069626,None,,,,,,,,,,,,,645.5340014,None,645.5340014,None,645.5340014,None,645.5340014,None,right,645.5340014,None,645.5340014,None,None,None,None,None,None,None,None,None,None,None,None,1.7195862,,,,,,,,,,pilot1,2022_Jun_16_0904,Hippopolis_Learning,2021.1.4,59.99488753
Hippopolis,stimuli/subj_files/pilot1_cityA.csv,./stimuli/frankfurt.jpg,./stimuli/street_plate1.png,EPER UTCA,stimuli/objects/028a.jpg,object,1,stimuli/objects/062a.jpg,stimuli/objects/062a.jpg,stimuli/objects/047b.jpg,stimuli/objects/062b.jpg,stimuli/objects/047a.jpg,target,dist2,lure,dist1,0,0,0,0,,,,,0,74,74,39,,,,,,,,,,,,,,,,,,,652.3082492,None,,,,,,,,,,,,,648.3399383,None,648.3399383,None,648.3399383,None,648.3399383,None,left,648.3399383,None,648.3399383,None,None,None,None,None,None,None,None,None,None,None,None,3.905651176,,,,,,,,,,pilot1,2022_Jun_16_0904,Hippopolis_Learning,2021.1.4,59.99488753
Hippopolis,stimuli/subj_files/pilot1_cityA.csv,./stimuli/frankfurt.jpg,./stimuli/street_plate1.png,SÜTEMÉNY UTCA,stimuli/scenes/043a.jpg,scene,2,stimuli/objects/033a.jpg,stimuli/objects/033b.jpg,stimuli/scenes/026a.jpg,stimuli/scenes/026b.jpg,stimuli/objects/033a.jpg,lure,dist1,dist2,target,0,0,0,0,,,,,0,75,75,2,,,,,,,,,,,,,,,,,,,654.7491912,None,,,,,,,,,,,,,653.3428135,None,653.3428135,None,653.3428135,None,653.3428135,None,left,653.3428135,None,653.3428135,None,None,None,None,None,None,None,None,None,None,None,None,1.366794946,,,,,,,,,,pilot1,2022_Jun_16_0904,Hippopolis_Learning,2021.1.4,59.99488753
Hippopolis,stimuli/subj_files/pilot1_cityA.csv,./stimuli/frankfurt.jpg,./stimuli/street_plate1.png,ASZTAL UTCA,stimuli/objects/016a.jpg,object,0,stimuli/objects/016a.jpg,stimuli/objects/016a.jpg,stimuli/scenes/046b.jpg,stimuli/scenes/046a.jpg,stimuli/objects/016b.jpg,target,dist2,dist1,lure,0,0,0,0,,,,,0,76,76,56,,,,,,,,,,,,,,,,,,,658.1373498,None,,,,,,,,,,,,,655.7681104,None,655.7681104,None,655.7681104,None,655.7681104,None,right,655.7681104,None,655.7681104,None,None,None,None,None,None,None,None,None,None,None,None,2.333465926,,,,,,,,,,pilot1,2022_Jun_16_0904,Hippopolis_Learning,2021.1.4,59.99488753
Hippopolis,stimuli/subj_files/pilot1_cityA.csv,./stimuli/frankfurt.jpg,./stimuli/street_plate1.png,FOGÓ UTCA,stimuli/scenes/072a.jpg,scene,0,stimuli/scenes/072a.jpg,stimuli/scenes/072b.jpg,stimuli/scenes/072a.jpg,stimuli/objects/104b.jpg,stimuli/objects/104a.jpg,lure,target,dist2,dist1,0,0,0,0,,,,,0,77,77,70,,,,,,,,,,,,,,,,,,,662.9852745,None,,,,,,,,,,,,,659.167673,None,659.167673,None,659.167673,None,659.167673,None,left,659.167673,None,659.167673,None,None,None,None,None,None,None,None,None,None,None,None,3.76646982,,,,,,,,,,pilot1,2022_Jun_16_0904,Hippopolis_Learning,2021.1.4,59.99488753
Hippopolis,stimuli/subj_files/pilot1_cityA.csv,./stimuli/frankfurt.jpg,./stimuli/street_plate1.png,KÖTÉNY UTCA,stimuli/scenes/108a.jpg,scene,2,stimuli/objects/066a.jpg,stimuli/objects/072b.jpg,stimuli/objects/072a.jpg,stimuli/objects/066b.jpg,stimuli/objects/066a.jpg,dist2,dist1,lure,target,0,0,0,0,,,,,0,78,78,36,,,,,,,,,,,,,,,,,,,667.471806,None,,,,,,,,,,,,,664.0062985,None,664.0062985,None,664.0062985,None,664.0062985,None,left,664.0062985,None,664.0062985,None,None,None,None,None,None,None,None,None,None,None,None,3.407130324,,,,,,,,,,pilot1,2022_Jun_16_0904,Hippopolis_Learning,2021.1.4,59.99488753
Hippopolis,stimuli/subj_files/pilot1_cityA.csv,./stimuli/frankfurt.jpg,./stimuli/street_plate1.png,MAJORÁNNA UTCA,stimuli/objects/068a.jpg,object,0,stimuli/objects/068a.jpg,stimuli/objects/068a.jpg,stimuli/scenes/118a.jpg,stimuli/objects/068b.jpg,stimuli/scenes/118b.jpg,target,dist1,lure,dist2,0,0,0,0,,,,,0,79,79,57,,,,,,,,,,,,,,,,,,,671.508386,None,,,,,,,,,,,,,668.4912464,None,668.4912464,None,668.4912464,None,668.4912464,None,left,668.4912464,None,668.4912464,None,None,None,None,None,None,None,None,None,None,None,None,2.954152342,,,,,,,,,,pilot1,2022_Jun_16_0904,Hippopolis_Learning,2021.1.4,59.99488753
Camponello,stimuli/subj_files/pilot1_cityB.csv,./stimuli/leipzig.jpg,./stimuli/street_plate2.png,REPÜLŐ UTCA,stimuli/scenes/056a.jpg,scene,0,stimuli/scenes/056a.jpg,stimuli/scenes/055b.jpg,stimuli/scenes/056a.jpg,stimuli/scenes/055a.jpg,stimuli/scenes/056b.jpg,dist2,target,dist1,lure,0,1,1,1,0,0,0,22,,,,,,,,,,,766.6860078,None,766.6860078,None,769.7560542,None,769.7560542,None,769.7560542,None,769.7560542,None,772.6422808,None,None,None,None,None,None,,,,,,,,,,,,,,,,17,,,,,,,,,,,,,,,,,,672.5170643,None,space,94.07936795,672.5170643,None,,,pilot1,2022_Jun_16_0904,Hippopolis_Learning,2021.1.4,59.99488753
Camponello,stimuli/subj_files/pilot1_cityB.csv,./stimuli/leipzig.jpg,./stimuli/street_plate2.png,KÖMÉNYMAG UTCA,stimuli/scenes/093a.jpg,scene,0,stimuli/scenes/093a.jpg,stimuli/scenes/093b.jpg,stimuli/objects/007b.jpg,stimuli/scenes/093a.jpg,stimuli/objects/007a.jpg,lure,dist2,target,dist1,0,1,1,1,0,1,1,15,,,,,,,,,,,,,,,773.6639173,None,773.6639173,None,773.6639173,None,773.6639173,None,776.6479632,None,None,None,None,None,None,,,,,,,,,,,,,,,,,,,,,,,,,,,,,,,,,,,,,,,,,,pilot1,2022_Jun_16_0904,Hippopolis_Learning,2021.1.4,59.99488753
Camponello,stimuli/subj_files/pilot1_cityB.csv,./stimuli/leipzig.jpg,./stimuli/street_plate2.png,HARCSA UTCA,stimuli/objects/020a.jpg,object,0,stimuli/objects/020a.jpg,stimuli/objects/020a.jpg,stimuli/scenes/056a.jpg,stimuli/objects/020b.jpg,stimuli/scenes/056b.jpg,target,dist1,lure,dist2,0,1,1,1,0,2,2,19,,,,,,,,,,,,,,,777.6856762,None,777.6856762,None,777.6856762,None,777.6856762,None,780.6688564,None,None,None,None,None,None,,,,,,,,,,,,,,,,,,,,,,,,,,,,,,,,,,,,,,,,,,pilot1,2022_Jun_16_0904,Hippopolis_Learning,2021.1.4,59.99488753
Camponello,stimuli/subj_files/pilot1_cityB.csv,./stimuli/leipzig.jpg,./stimuli/street_plate2.png,MOSODA UTCA,stimuli/objects/002a.jpg,object,0,stimuli/objects/002a.jpg,stimuli/objects/002b.jpg,stimuli/objects/092a.jpg,stimuli/objects/002a.jpg,stimuli/objects/092b.jpg,lure,dist1,target,dist2,0,1,1,1,0,3,3,2,,,,,,,,,,,,,,,781.6908358,None,781.6908358,None,781.6908358,None,781.6908358,None,784.6741624,None,None,None,None,None,None,,,,,,,,,,,,,,,,,,,,,,,,,,,,,,,,,,,,,,,,,,pilot1,2022_Jun_16_0904,Hippopolis_Learning,2021.1.4,59.99488753
Camponello,stimuli/subj_files/pilot1_cityB.csv,./stimuli/leipzig.jpg,./stimuli/street_plate2.png,AKÁC UTCA,stimuli/scenes/015a.jpg,scene,0,stimuli/scenes/015a.jpg,stimuli/scenes/015b.jpg,stimuli/objects/075b.jpg,stimuli/scenes/015a.jpg,stimuli/objects/075a.jpg,lure,dist2,target,dist1,0,1,1,1,0,4,4,75,,,,,,,,,,,,,,,785.708678,None,785.708678,None,785.708678,None,785.708678,None,788.668146,None,None,None,None,None,None,,,,,,,,,,,,,,,,,,,,,,,,,,,,,,,,,,,,,,,,,,pilot1,2022_Jun_16_0904,Hippopolis_Learning,2021.1.4,59.99488753
Camponello,stimuli/subj_files/pilot1_cityB.csv,./stimuli/leipzig.jpg,./stimuli/street_plate2.png,FOLYÓ UTCA,stimuli/scenes/089a.jpg,scene,2,stimuli/objects/114a.jpg,stimuli/objects/008b.jpg,stimuli/objects/114a.jpg,stimuli/objects/008a.jpg,stimuli/objects/114b.jpg,dist2,target,dist1,lure,0,1,1,1,0,5,5,12,,,,,,,,,,,,,,,789.7158202,None,789.7158202,None,789.7158202,None,789.7158202,None,792.6835928,None,None,None,None,None,None,,,,,,,,,,,,,,,,,,,,,,,,,,,,,,,,,,,,,,,,,,pilot1,2022_Jun_16_0904,Hippopolis_Learning,2021.1.4,59.99488753
Camponello,stimuli/subj_files/pilot1_cityB.csv,./stimuli/leipzig.jpg,./stimuli/street_plate2.png,LÁMPA UTCA,stimuli/objects/009a.jpg,object,2,stimuli/scenes/039a.jpg,stimuli/objects/005b.jpg,stimuli/scenes/039a.jpg,stimuli/scenes/039b.jpg,stimuli/objects/005a.jpg,dist2,target,lure,dist1,0,1,1,1,0,6,6,55,,,,,,,,,,,,,,,793.7278148,None,793.7278148,None,793.7278148,None,793.7278148,None,796.6831452,None,None,None,None,None,None,,,,,,,,,,,,,,,,,,,,,,,,,,,,,,,,,,,,,,,,,,pilot1,2022_Jun_16_0904,Hippopolis_Learning,2021.1.4,59.99488753
Camponello,stimuli/subj_files/pilot1_cityB.csv,./stimuli/leipzig.jpg,./stimuli/street_plate2.png,KÓKUSZ UTCA,stimuli/objects/091a.jpg,object,2,stimuli/scenes/078a.jpg,stimuli/objects/032b.jpg,stimuli/scenes/078a.jpg,stimuli/scenes/078b.jpg,stimuli/objects/032a.jpg,dist2,target,lure,dist1,0,1,1,1,0,7,7,13,,,,,,,,,,,,,,,797.7159269,None,797.7159269,None,797.7159269,None,797.7159269,None,800.7055937,None,None,None,None,None,None,,,,,,,,,,,,,,,,,,,,,,,,,,,,,,,,,,,,,,,,,,pilot1,2022_Jun_16_0904,Hippopolis_Learning,2021.1.4,59.99488753
Camponello,stimuli/subj_files/pilot1_cityB.csv,./stimuli/leipzig.jpg,./stimuli/street_plate2.png,LIMONÁDÉ UTCA,stimuli/scenes/082a.jpg,scene,0,stimuli/scenes/082a.jpg,stimuli/objects/002b.jpg,stimuli/scenes/082b.jpg,stimuli/scenes/082a.jpg,stimuli/objects/002a.jpg,dist2,lure,target,dist1,0,1,1,1,0,8,8,11,,,,,,,,,,,,,,,801.7213421,None,801.7213421,None,801.7213421,None,801.7213421,None,804.7121802,None,None,None,None,None,None,,,,,,,,,,,,,,,,,,,,,,,,,,,,,,,,,,,,,,,,,,pilot1,2022_Jun_16_0904,Hippopolis_Learning,2021.1.4,59.99488753
Camponello,stimuli/subj_files/pilot1_cityB.csv,./stimuli/leipzig.jpg,./stimuli/street_plate2.png,LIGET UTCA,stimuli/scenes/095a.jpg,scene,0,stimuli/scenes/095a.jpg,stimuli/scenes/115b.jpg,stimuli/scenes/115a.jpg,stimuli/scenes/095b.jpg,stimuli/scenes/095a.jpg,dist2,dist1,lure,target,0,1,1,1,0,9,9,54,,,,,,,,,,,,,,,805.743284,None,805.743284,None,805.743284,None,805.743284,None,808.7166892,None,None,None,None,None,None,,,,,,,,,,,,,,,,,,,,,,,,,,,,,,,,,,,,,,,,,,pilot1,2022_Jun_16_0904,Hippopolis_Learning,2021.1.4,59.99488753
Camponello,stimuli/subj_files/pilot1_cityB.csv,./stimuli/leipzig.jpg,./stimuli/street_plate2.png,ORVOS UTCA,stimuli/scenes/058a.jpg,scene,0,stimuli/scenes/058a.jpg,stimuli/scenes/058b.jpg,stimuli/objects/056b.jpg,stimuli/objects/056a.jpg,stimuli/scenes/058a.jpg,lure,dist2,dist1,target,0,1,1,1,0,10,10,0,,,,,,,,,,,,,,,809.7684861,None,809.7684861,None,809.7684861,None,809.7684861,None,812.7481789,None,None,None,None,None,None,,,,,,,,,,,,,,,,,,,,,,,,,,,,,,,,,,,,,,,,,,pilot1,2022_Jun_16_0904,Hippopolis_Learning,2021.1.4,59.99488753
