CityName,StimuliFile,CityImage,StreetSign,Cue,Image,Category,Novelty,UpdateImage,TestImage1,TestImage2,TestImage3,TestImage4,TestImage1Type,TestImage2Type,TestImage3Type,TestImage4Type,CityBlock.thisRepN,CityBlock.thisTrialN,CityBlock.thisN,CityBlock.thisIndex,LearningTrials.thisRepN,LearningTrials.thisTrialN,LearningTrials.thisN,LearningTrials.thisIndex,trials.thisRepN,trials.thisTrialN,trials.thisN,trials.thisIndex,learning_instructions_text.started,learning_instructions_text.stopped,intro_key.keys,intro_key.rt,intro_key.started,intro_key.stopped,cityname_text.started,cityname_text.stopped,city_image.started,city_image.stopped,plate.started,plate.stopped,city_text.started,city_text.stopped,street_text.started,street_text.stopped,learning_image.started,learning_image.stopped,fx_cross.started,fx_cross.stopped,short_break_text.started,short_break_text.stopped,short_break_key.keys,short_break_key.started,short_break_key.stopped,short_break_key.rt,test_text.started,test_text.stopped,key_resp.keys,key_resp.rt,key_resp.started,key_resp.stopped,plate_test.started,plate_test.stopped,city_text_test.started,city_text_test.stopped,street_text_test.started,street_text_test.stopped,test_question.started,test_question.stopped,test_key_resp.keys,test_key_resp.started,test_key_resp.stopped,button_image.started,button_image.stopped,plate_verbal.started,plate_verbal.stopped,street_text_verbal.started,street_text_verbal.stopped,city_text_verbal.started,city_text_verbal.stopped,question_verbal.started,question_verbal.stopped,verbal_test_key_resp.keys,verbal_test_key_resp.started,verbal_test_key_resp.stopped,test_key_resp.rt,verbal_test_key_resp.rt,break_text.started,break_text.stopped,break_key_resp.keys,break_key_resp.rt,break_key_resp.started,break_key_resp.stopped,end_text.started,end_text.stopped,participant,date,expName,psychopyVersion,frameRate,
,,,,,,,,,,,,,,,,,,,,,,,,,,,,,18.56567619368434,None,space,18.262977216392756,18.56567619368434,None,,,,,,,,,,,,,,,,,,,,,,,,,,,,,,,,,,,,,,,,,,,,,,,,,,,,,,,,,,,,,pilot1,2022_Jun_16_0904,Hippopolis_Learning,2021.1.4,59.994887530604224,
Hippopolis,stimuli/subj_files/pilot1_cityA.csv,./stimuli/frankfurt.jpg,./stimuli/street_plate1.png,HARMONIKA UTCA,stimuli/scenes/028a.jpg,scene,2,stimuli/objects/099a.jpg,stimuli/objects/099a.jpg,stimuli/objects/015b.jpg,stimuli/objects/015a.jpg,stimuli/objects/099b.jpg,target,dist2,dist1,lure,0,0,0,0,0,0,0,63,,,,,,,,,,,37.08985508978367,None,37.08985508978367,None,39.98286913521588,None,39.98286913521588,None,39.98286913521588,None,39.98286913521588,None,42.87304960004985,None,None,None,None,None,None,,,,,,,,,,,,,,,,,,,,,,,,,,,,,,,,,,,,,,,,,,pilot1,2022_Jun_16_0904,Hippopolis_Learning,2021.1.4,59.994887530604224,
Hippopolis,stimuli/subj_files/pilot1_cityA.csv,./stimuli/frankfurt.jpg,./stimuli/street_plate1.png,VITORLA UTCA,stimuli/scenes/086a.jpg,scene,2,stimuli/objects/015a.jpg,stimuli/objects/015b.jpg,stimuli/objects/115a.jpg,stimuli/objects/015a.jpg,stimuli/objects/115b.jpg,lure,dist1,target,dist2,0,0,0,0,0,1,1,77,,,,,,,,,,,,,,,43.93435055296868,None,43.93435055296868,None,43.93435055296868,None,43.93435055296868,None,46.88615946052596,None,None,None,None,None,None,,,,,,,,,,,,,,,,,,,,,,,,,,,,,,,,,,,,,,,,,,pilot1,2022_Jun_16_0904,Hippopolis_Learning,2021.1.4,59.994887530604224,
Hippopolis,stimuli/subj_files/pilot1_cityA.csv,./stimuli/frankfurt.jpg,./stimuli/street_plate1.png,LOVAGLÁS UTCA,stimuli/objects/110a.jpg,object,1,stimuli/objects/010a.jpg,stimuli/objects/010b.jpg,stimuli/scenes/007a.jpg,stimuli/objects/010a.jpg,stimuli/scenes/007b.jpg,lure,dist1,target,dist2,0,0,0,0,0,2,2,22,,,,,,,,,,,,,,,47.9211570317857,None,47.9211570317857,None,47.9211570317857,None,47.9211570317857,None,50.90278991544619,None,None,None,None,None,None,,,,,,,,,,,,,,,,,,,,,,,,,,,,,,,,,,,,,,,,,,pilot1,2022_Jun_16_0904,Hippopolis_Learning,2021.1.4,59.994887530604224,
Hippopolis,stimuli/subj_files/pilot1_cityA.csv,./stimuli/frankfurt.jpg,./stimuli/street_plate1.png,MAJORÁNNA UTCA,stimuli/objects/068a.jpg,object,0,stimuli/objects/068a.jpg,stimuli/objects/068a.jpg,stimuli/scenes/118a.jpg,stimuli/objects/068b.jpg,stimuli/scenes/118b.jpg,target,dist1,lure,dist2,0,0,0,0,0,3,3,57,,,,,,,,,,,,,,,51.964880514424294,None,51.964880514424294,None,51.964880514424294,None,51.964880514424294,None,54.908188989851624,None,None,None,None,None,None,,,,,,,,,,,,,,,,,,,,,,,,,,,,,,,,,,,,,,,,,,pilot1,2022_Jun_16_0904,Hippopolis_Learning,2021.1.4,59.994887530604224,
Hippopolis,stimuli/subj_files/pilot1_cityA.csv,./stimuli/frankfurt.jpg,./stimuli/street_plate1.png,TÁBLA UTCA,stimuli/objects/118a.jpg,object,1,stimuli/objects/042a.jpg,stimuli/scenes/084a.jpg,stimuli/scenes/084b.jpg,stimuli/objects/042a.jpg,stimuli/objects/042b.jpg,dist1,dist2,target,lure,0,0,0,0,0,4,4,78,,,,,,,,,,,,,,,55.919957167934626,None,55.919957167934626,None,55.919957167934626,None,55.919957167934626,None,58.90731537248939,None,None,None,None,None,None,,,,,,,,,,,,,,,,,,,,,,,,,,,,,,,,,,,,,,,,,,pilot1,2022_Jun_16_0904,Hippopolis_Learning,2021.1.4,59.994887530604224,
Hippopolis,stimuli/subj_files/pilot1_cityA.csv,./stimuli/frankfurt.jpg,./stimuli/street_plate1.png,DARU UTCA,stimuli/scenes/035a.jpg,scene,1,stimuli/scenes/080a.jpg,stimuli/scenes/080b.jpg,stimuli/objects/010b.jpg,stimuli/objects/010a.jpg,stimuli/scenes/080a.jpg,lure,dist2,dist1,target,0,0,0,0,0,5,5,41,,,,,,,,,,,,,,,59.95265888841823,None,59.95265888841823,None,59.95265888841823,None,59.95265888841823,None,62.92297331010923,None,None,None,None,None,None,,,,,,,,,,,,,,,,,,,,,,,,,,,,,,,,,,,,,,,,,,pilot1,2022_Jun_16_0904,Hippopolis_Learning,2021.1.4,59.994887530604224,
Hippopolis,stimuli/subj_files/pilot1_cityA.csv,./stimuli/frankfurt.jpg,./stimuli/street_plate1.png,FOGÓ UTCA,stimuli/scenes/072a.jpg,scene,0,stimuli/scenes/072a.jpg,stimuli/scenes/072b.jpg,stimuli/scenes/072a.jpg,stimuli/objects/104b.jpg,stimuli/objects/104a.jpg,lure,target,dist2,dist1,0,0,0,0,0,6,6,70,,,,,,,,,,,,,,,63.95795999607071,None,63.95795999607071,None,63.95795999607071,None,63.95795999607071,None,66.93118077376857,None,None,None,None,None,None,,,,,,,,,,,,,,,,,,,,,,,,,,,,,,,,,,,,,,,,,,pilot1,2022_Jun_16_0904,Hippopolis_Learning,2021.1.4,59.994887530604224,
Hippopolis,stimuli/subj_files/pilot1_cityA.csv,./stimuli/frankfurt.jpg,./stimuli/street_plate1.png,MARTINI UTCA,stimuli/scenes/069a.jpg,scene,0,stimuli/scenes/069a.jpg,stimuli/objects/065a.jpg,stimuli/scenes/069b.jpg,stimuli/scenes/069a.jpg,stimuli/objects/065b.jpg,dist1,lure,target,dist2,0,0,0,0,0,7,7,54,,,,,,,,,,,,,,,67.99630213156343,None,67.99630213156343,None,67.99630213156343,None,67.99630213156343,None,70.93999003525823,None,None,None,None,None,None,,,,,,,,,,,,,,,,,,,,,,,,,,,,,,,,,,,,,,,,,,pilot1,2022_Jun_16_0904,Hippopolis_Learning,2021.1.4,59.994887530604224,
Hippopolis,stimuli/subj_files/pilot1_cityA.csv,./stimuli/frankfurt.jpg,./stimuli/street_plate1.png,VÁSÁR UTCA,stimuli/objects/060a.jpg,object,1,stimuli/objects/076a.jpg,stimuli/objects/076b.jpg,stimuli/objects/076a.jpg,stimuli/objects/080b.jpg,stimuli/objects/080a.jpg,lure,target,dist2,dist1,0,0,0,0,0,8,8,40,,,,,,,,,,,,,,,71.99923647893593,None,71.99923647893593,None,71.99923647893593,None,71.99923647893593,None,74.9602950331755,None,None,None,None,None,None,,,,,,,,,,,,,,,,,,,,,,,,,,,,,,,,,,,,,,,,,,pilot1,2022_Jun_16_0904,Hippopolis_Learning,2021.1.4,59.994887530604224,
Hippopolis,stimuli/subj_files/pilot1_cityA.csv,./stimuli/frankfurt.jpg,./stimuli/street_plate1.png,POHÁR UTCA,stimuli/scenes/062a.jpg,scene,1,stimuli/scenes/064a.jpg,stimuli/scenes/064a.jpg,stimuli/scenes/006b.jpg,stimuli/scenes/006a.jpg,stimuli/scenes/064b.jpg,target,dist2,dist1,lure,0,0,0,0,0,9,9,38,,,,,,,,,,,,,,,75.98537771450356,None,75.98537771450356,None,75.98537771450356,None,75.98537771450356,None,78.95726707298309,None,None,None,None,None,None,,,,,,,,,,,,,,,,,,,,,,,,,,,,,,,,,,,,,,,,,,pilot1,2022_Jun_16_0904,Hippopolis_Learning,2021.1.4,59.994887530604224,
Hippopolis,stimuli/subj_files/pilot1_cityA.csv,./stimuli/frankfurt.jpg,./stimuli/street_plate1.png,MANDARIN UTCA,stimuli/scenes/047a.jpg,scene,1,stimuli/scenes/024a.jpg,stimuli/scenes/024a.jpg,stimuli/scenes/024b.jpg,stimuli/scenes/069a.jpg,stimuli/scenes/069b.jpg,target,lure,dist1,dist2,0,0,0,0,0,10,10,60,,,,,,,,,,,,,,,79.9975166125223,None,79.9975166125223,None,79.9975166125223,None,79.9975166125223,None,82.97639428917319,None,None,None,None,None,None,,,,,,,,,,,,,,,,,,,,,,,,,,,,,,,,,,,,,,,,,,pilot1,2022_Jun_16_0904,Hippopolis_Learning,2021.1.4,59.994887530604224,
Hippopolis,stimuli/subj_files/pilot1_cityA.csv,./stimuli/frankfurt.jpg,./stimuli/street_plate1.png,ZSÁLYA UTCA,stimuli/objects/034a.jpg,object,2,stimuli/scenes/117a.jpg,stimuli/scenes/117b.jpg,stimuli/scenes/001b.jpg,stimuli/scenes/117a.jpg,stimuli/scenes/001a.jpg,lure,dist2,target,dist1,0,0,0,0,0,11,11,33,,,,,,,,,,,,,,,84.04348183050752,None,84.04348183050752,None,84.04348183050752,None,84.04348183050752,None,86.99207057617605,None,None,None,None,None,None,,,,,,,,,,,,,,,,,,,,,,,,,,,,,,,,,,,,,,,,,,pilot1,2022_Jun_16_0904,Hippopolis_Learning,2021.1.4,59.994887530604224,
Hippopolis,stimuli/subj_files/pilot1_cityA.csv,./stimuli/frankfurt.jpg,./stimuli/street_plate1.png,LÁNDZSA UTCA,stimuli/scenes/041a.jpg,scene,1,stimuli/scenes/116a.jpg,stimuli/scenes/116b.jpg,stimuli/scenes/116a.jpg,stimuli/objects/100a.jpg,stimuli/objects/100b.jpg,lure,target,dist1,dist2,0,0,0,0,0,12,12,32,,,,,,,,,,,,,,,88.02562134433538,None,88.02562134433538,None,88.02562134433538,None,88.02562134433538,None,90.9976882878691,None,None,None,None,None,None,,,,,,,,,,,,,,,,,,,,,,,,,,,,,,,,,,,,,,,,,,pilot1,2022_Jun_16_0904,Hippopolis_Learning,2021.1.4,59.994887530604224,
Hippopolis,stimuli/subj_files/pilot1_cityA.csv,./stimuli/frankfurt.jpg,./stimuli/street_plate1.png,PÉKSÉG UTCA,stimuli/objects/030a.jpg,object,0,stimuli/objects/030a.jpg,stimuli/objects/030a.jpg,stimuli/objects/073a.jpg,stimuli/objects/030b.jpg,stimuli/objects/073b.jpg,target,dist1,lure,dist2,0,0,0,0,0,13,13,48,,,,,,,,,,,,,,,92.03667389648035,None,92.03667389648035,None,92.03667389648035,None,92.03667389648035,None,95.00831973692402,None,None,None,None,None,None,,,,,,,,,,,,,,,,,,,,,,,,,,,,,,,,,,,,,,,,,,pilot1,2022_Jun_16_0904,Hippopolis_Learning,2021.1.4,59.994887530604224,
Hippopolis,stimuli/subj_files/pilot1_cityA.csv,./stimuli/frankfurt.jpg,./stimuli/street_plate1.png,TEHÉN UTCA,stimuli/objects/006a.jpg,object,1,stimuli/objects/017a.jpg,stimuli/objects/017a.jpg,stimuli/objects/017b.jpg,stimuli/scenes/113b.jpg,stimuli/scenes/113a.jpg,target,lure,dist2,dist1,0,0,0,0,0,14,14,28,,,,,,,,,,,,,,,96.03467536810786,None,96.03467536810786,None,96.03467536810786,None,96.03467536810786,None,99.0100476895459,None,None,None,None,None,None,,,,,,,,,,,,,,,,,,,,,,,,,,,,,,,,,,,,,,,,,,pilot1,2022_Jun_16_0904,Hippopolis_Learning,2021.1.4,59.994887530604224,
Hippopolis,stimuli/subj_files/pilot1_cityA.csv,./stimuli/frankfurt.jpg,./stimuli/street_plate1.png,SZÖCSKE UTCA,stimuli/objects/057a.jpg,object,0,stimuli/objects/057a.jpg,stimuli/objects/057b.jpg,stimuli/objects/057a.jpg,stimuli/scenes/045b.jpg,stimuli/scenes/045a.jpg,lure,target,dist2,dist1,0,0,0,0,0,15,15,14,,,,,,,,,,,,,,,100.02760649938136,None,100.02760649938136,None,100.02760649938136,None,100.02760649938136,None,103.02635034406558,None,None,None,None,None,None,,,,,,,,,,,,,,,,,,,,,,,,,,,,,,,,,,,,,,,,,,pilot1,2022_Jun_16_0904,Hippopolis_Learning,2021.1.4,59.994887530604224,
Hippopolis,stimuli/subj_files/pilot1_cityA.csv,./stimuli/frankfurt.jpg,./stimuli/street_plate1.png,TRIATLON UTCA,stimuli/objects/119a.jpg,object,2,stimuli/scenes/018a.jpg,stimuli/objects/017a.jpg,stimuli/objects/017b.jpg,stimuli/scenes/018b.jpg,stimuli/scenes/018a.jpg,dist1,dist2,lure,target,0,0,0,0,0,16,16,75,,,,,,,,,,,,,,,104.05987654300407,None,104.05987654300407,None,104.05987654300407,None,104.05987654300407,None,107.05062502995133,None,None,None,None,None,None,,,,,,,,,,,,,,,,,,,,,,,,,,,,,,,,,,,,,,,,,,pilot1,2022_Jun_16_0904,Hippopolis_Learning,2021.1.4,59.994887530604224,
Hippopolis,stimuli/subj_files/pilot1_cityA.csv,./stimuli/frankfurt.jpg,./stimuli/street_plate1.png,ÁRNYÉK UTCA,stimuli/scenes/088a.jpg,scene,0,stimuli/scenes/088a.jpg,stimuli/scenes/088a.jpg,stimuli/objects/038a.jpg,stimuli/objects/038b.jpg,stimuli/scenes/088b.jpg,target,dist1,dist2,lure,0,0,0,0,0,17,17,42,,,,,,,,,,,,,,,108.06389692472294,None,108.06389692472294,None,108.06389692472294,None,108.06389692472294,None,111.05974903004244,None,None,None,None,None,None,,,,,,,,,,,,,,,,,,,,,,,,,,,,,,,,,,,,,,,,,,pilot1,2022_Jun_16_0904,Hippopolis_Learning,2021.1.4,59.994887530604224,
Hippopolis,stimuli/subj_files/pilot1_cityA.csv,./stimuli/frankfurt.jpg,./stimuli/street_plate1.png,PADLÓ UTCA,stimuli/objects/053a.jpg,object,0,stimuli/objects/053a.jpg,stimuli/objects/053a.jpg,stimuli/objects/053b.jpg,stimuli/objects/064b.jpg,stimuli/objects/064a.jpg,target,lure,dist2,dist1,0,0,0,0,0,18,18,74,,,,,,,,,,,,,,,112.1028526769951,None,112.1028526769951,None,112.1028526769951,None,112.1028526769951,None,115.07369954138994,None,None,None,None,None,None,,,,,,,,,,,,,,,,,,,,,,,,,,,,,,,,,,,,,,,,,,pilot1,2022_Jun_16_0904,Hippopolis_Learning,2021.1.4,59.994887530604224,
Hippopolis,stimuli/subj_files/pilot1_cityA.csv,./stimuli/frankfurt.jpg,./stimuli/street_plate1.png,FECSKE UTCA,stimuli/objects/106a.jpg,object,2,stimuli/scenes/051a.jpg,stimuli/scenes/116b.jpg,stimuli/scenes/051b.jpg,stimuli/scenes/116a.jpg,stimuli/scenes/051a.jpg,dist2,lure,dist1,target,0,0,0,0,0,19,19,49,,,,,,,,,,,,,,,116.09644345287234,None,116.09644345287234,None,116.09644345287234,None,116.09644345287234,None,119.07949048420414,None,None,None,None,None,None,,,,,,,,,,,,,,,,,,,,,,,,,,,,,,,,,,,,,,,,,,pilot1,2022_Jun_16_0904,Hippopolis_Learning,2021.1.4,59.994887530604224,
Hippopolis,stimuli/subj_files/pilot1_cityA.csv,./stimuli/frankfurt.jpg,./stimuli/street_plate1.png,KOKTÉL UTCA,stimuli/scenes/106a.jpg,scene,1,stimuli/scenes/096a.jpg,stimuli/scenes/096a.jpg,stimuli/scenes/096b.jpg,stimuli/objects/042a.jpg,stimuli/objects/042b.jpg,target,lure,dist1,dist2,0,0,0,0,0,20,20,44,,,,,,,,,,,,,,,120.09948665229604,None,120.09948665229604,None,120.09948665229604,None,120.09948665229604,None,123.08282167557627,None,None,None,None,None,None,,,,,,,,,,,,,,,,,,,,,,,,,,,,,,,,,,,,,,,,,,pilot1,2022_Jun_16_0904,Hippopolis_Learning,2021.1.4,59.994887530604224,
Hippopolis,stimuli/subj_files/pilot1_cityA.csv,./stimuli/frankfurt.jpg,./stimuli/street_plate1.png,ZSEMLE UTCA,stimuli/objects/035a.jpg,object,2,stimuli/scenes/100a.jpg,stimuli/objects/120a.jpg,stimuli/scenes/100b.jpg,stimuli/objects/120b.jpg,stimuli/scenes/100a.jpg,dist1,lure,dist2,target,0,0,0,0,0,21,21,27,,,,,,,,,,,,,,,124.13171688700095,None,124.13171688700095,None,124.13171688700095,None,124.13171688700095,None,127.10527479602024,None,None,None,None,None,None,,,,,,,,,,,,,,,,,,,,,,,,,,,,,,,,,,,,,,,,,,pilot1,2022_Jun_16_0904,Hippopolis_Learning,2021.1.4,59.994887530604224,
Hippopolis,stimuli/subj_files/pilot1_cityA.csv,./stimuli/frankfurt.jpg,./stimuli/street_plate1.png,ÁLOM UTCA,stimuli/scenes/031a.jpg,scene,1,stimuli/scenes/114a.jpg,stimuli/scenes/114b.jpg,stimuli/scenes/080b.jpg,stimuli/scenes/114a.jpg,stimuli/scenes/080a.jpg,lure,dist2,target,dist1,0,0,0,0,0,22,22,15,,,,,,,,,,,,,,,128.1357512641698,None,128.1357512641698,None,128.1357512641698,None,128.1357512641698,None,131.10651633422822,None,None,None,None,None,None,,,,,,,,,,,,,,,,,,,,,,,,,,,,,,,,,,,,,,,,,,pilot1,2022_Jun_16_0904,Hippopolis_Learning,2021.1.4,59.994887530604224,
Hippopolis,stimuli/subj_files/pilot1_cityA.csv,./stimuli/frankfurt.jpg,./stimuli/street_plate1.png,KIRAKÓ UTCA,stimuli/scenes/021a.jpg,scene,1,stimuli/scenes/020a.jpg,stimuli/objects/022b.jpg,stimuli/objects/022a.jpg,stimuli/scenes/020a.jpg,stimuli/scenes/020b.jpg,dist2,dist1,target,lure,0,0,0,0,0,23,23,59,,,,,,,,,,,,,,,132.16420276882127,None,132.16420276882127,None,132.16420276882127,None,132.16420276882127,None,135.12605812214315,None,None,None,None,None,None,,,,,,,,,,,,,,,,,,,,,,,,,,,,,,,,,,,,,,,,,,pilot1,2022_Jun_16_0904,Hippopolis_Learning,2021.1.4,59.994887530604224,
Hippopolis,stimuli/subj_files/pilot1_cityA.csv,./stimuli/frankfurt.jpg,./stimuli/street_plate1.png,BONBON UTCA,stimuli/scenes/022a.jpg,scene,0,stimuli/scenes/022a.jpg,stimuli/scenes/022a.jpg,stimuli/scenes/022b.jpg,stimuli/scenes/018a.jpg,stimuli/scenes/018b.jpg,target,lure,dist1,dist2,0,0,0,0,0,24,24,43,,,,,,,,,,,,,,,136.14448930555955,None,136.14448930555955,None,136.14448930555955,None,136.14448930555955,None,139.1424848679453,None,None,None,None,None,None,,,,,,,,,,,,,,,,,,,,,,,,,,,,,,,,,,,,,,,,,,pilot1,2022_Jun_16_0904,Hippopolis_Learning,2021.1.4,59.994887530604224,
Hippopolis,stimuli/subj_files/pilot1_cityA.csv,./stimuli/frankfurt.jpg,./stimuli/street_plate1.png,RIBIZLI UTCA,stimuli/scenes/017a.jpg,scene,0,stimuli/scenes/017a.jpg,stimuli/scenes/068b.jpg,stimuli/scenes/017a.jpg,stimuli/scenes/068a.jpg,stimuli/scenes/017b.jpg,dist2,target,dist1,lure,0,0,0,0,0,25,25,37,,,,,,,,,,,,,,,140.16168952453882,None,140.16168952453882,None,140.16168952453882,None,140.16168952453882,None,143.1559592280537,None,None,None,None,None,None,,,,,,,,,,,,,,,,,,,,,,,,,,,,,,,,,,,,,,,,,,pilot1,2022_Jun_16_0904,Hippopolis_Learning,2021.1.4,59.994887530604224,
Hippopolis,stimuli/subj_files/pilot1_cityA.csv,./stimuli/frankfurt.jpg,./stimuli/street_plate1.png,BÚJÓCSKA UTCA,stimuli/objects/025a.jpg,object,2,stimuli/scenes/001a.jpg,stimuli/scenes/096b.jpg,stimuli/scenes/001a.jpg,stimuli/scenes/096a.jpg,stimuli/scenes/001b.jpg,dist2,target,dist1,lure,0,0,0,0,0,26,26,7,,,,,,,,,,,,,,,144.18407951062545,None,144.18407951062545,None,144.18407951062545,None,144.18407951062545,None,147.1577273006551,None,None,None,None,None,None,,,,,,,,,,,,,,,,,,,,,,,,,,,,,,,,,,,,,,,,,,pilot1,2022_Jun_16_0904,Hippopolis_Learning,2021.1.4,59.994887530604224,
Hippopolis,stimuli/subj_files/pilot1_cityA.csv,./stimuli/frankfurt.jpg,./stimuli/street_plate1.png,KESELYŰ UTCA,stimuli/scenes/027a.jpg,scene,2,stimuli/objects/101a.jpg,stimuli/scenes/044a.jpg,stimuli/objects/101a.jpg,stimuli/objects/101b.jpg,stimuli/scenes/044b.jpg,dist1,target,lure,dist2,0,0,0,0,0,27,27,4,,,,,,,,,,,,,,,148.18808714160696,None,148.18808714160696,None,148.18808714160696,None,148.18808714160696,None,151.17457390530035,None,None,None,None,None,None,,,,,,,,,,,,,,,,,,,,,,,,,,,,,,,,,,,,,,,,,,pilot1,2022_Jun_16_0904,Hippopolis_Learning,2021.1.4,59.994887530604224,
Hippopolis,stimuli/subj_files/pilot1_cityA.csv,./stimuli/frankfurt.jpg,./stimuli/street_plate1.png,TENISZ UTCA,stimuli/objects/089a.jpg,object,2,stimuli/scenes/120a.jpg,stimuli/objects/040a.jpg,stimuli/objects/040b.jpg,stimuli/scenes/120b.jpg,stimuli/scenes/120a.jpg,dist1,dist2,lure,target,0,0,0,0,0,28,28,0,,,,,,,,,,,,,,,152.22195140458643,None,152.22195140458643,None,152.22195140458643,None,152.22195140458643,None,155.1751502007246,None,None,None,None,None,None,,,,,,,,,,,,,,,,,,,,,,,,,,,,,,,,,,,,,,,,,,pilot1,2022_Jun_16_0904,Hippopolis_Learning,2021.1.4,59.994887530604224,
Hippopolis,stimuli/subj_files/pilot1_cityA.csv,./stimuli/frankfurt.jpg,./stimuli/street_plate1.png,LEPKE UTCA,stimuli/scenes/046a.jpg,scene,0,stimuli/scenes/046a.jpg,stimuli/scenes/094a.jpg,stimuli/scenes/046a.jpg,stimuli/scenes/046b.jpg,stimuli/scenes/094b.jpg,dist1,target,lure,dist2,0,0,0,0,0,29,29,61,,,,,,,,,,,,,,,156.2142232018523,None,156.2142232018523,None,156.2142232018523,None,156.2142232018523,None,159.19115957571194,None,None,None,None,None,None,,,,,,,,,,,,,,,,,,,,,,,,,,,,,,,,,,,,,,,,,,pilot1,2022_Jun_16_0904,Hippopolis_Learning,2021.1.4,59.994887530604224,
Hippopolis,stimuli/subj_files/pilot1_cityA.csv,./stimuli/frankfurt.jpg,./stimuli/street_plate1.png,SZIKLA UTCA,stimuli/objects/077a.jpg,object,1,stimuli/objects/072a.jpg,stimuli/scenes/017b.jpg,stimuli/objects/072a.jpg,stimuli/scenes/017a.jpg,stimuli/objects/072b.jpg,dist2,target,dist1,lure,0,0,0,0,0,30,30,1,,,,,,,,,,,,,,,160.22615807969123,None,160.22615807969123,None,160.22615807969123,None,160.22615807969123,None,163.1991213443689,None,None,None,None,None,None,,,,,,,,,,,,,,,,,,,,,,,,,,,,,,,,,,,,,,,,,,pilot1,2022_Jun_16_0904,Hippopolis_Learning,2021.1.4,59.994887530604224,
Hippopolis,stimuli/subj_files/pilot1_cityA.csv,./stimuli/frankfurt.jpg,./stimuli/street_plate1.png,GYŰRŰ UTCA,stimuli/scenes/007a.jpg,scene,0,stimuli/scenes/007a.jpg,stimuli/scenes/076a.jpg,stimuli/scenes/007b.jpg,stimuli/scenes/007a.jpg,stimuli/scenes/076b.jpg,dist1,lure,target,dist2,0,0,0,0,0,31,31,76,,,,,,,,,,,,,,,164.25502353394404,None,164.25502353394404,None,164.25502353394404,None,164.25502353394404,None,167.20770263811573,None,None,None,None,None,None,,,,,,,,,,,,,,,,,,,,,,,,,,,,,,,,,,,,,,,,,,pilot1,2022_Jun_16_0904,Hippopolis_Learning,2021.1.4,59.994887530604224,
Hippopolis,stimuli/subj_files/pilot1_cityA.csv,./stimuli/frankfurt.jpg,./stimuli/street_plate1.png,TÖLCSÉR UTCA,stimuli/scenes/068a.jpg,scene,0,stimuli/scenes/068a.jpg,stimuli/objects/039a.jpg,stimuli/scenes/068a.jpg,stimuli/scenes/068b.jpg,stimuli/objects/039b.jpg,dist1,target,lure,dist2,0,0,0,0,0,32,32,46,,,,,,,,,,,,,,,168.23586863838136,None,168.23586863838136,None,168.23586863838136,None,168.23586863838136,None,171.22312327753752,None,None,None,None,None,None,,,,,,,,,,,,,,,,,,,,,,,,,,,,,,,,,,,,,,,,,,pilot1,2022_Jun_16_0904,Hippopolis_Learning,2021.1.4,59.994887530604224,
Hippopolis,stimuli/subj_files/pilot1_cityA.csv,./stimuli/frankfurt.jpg,./stimuli/street_plate1.png,KÖTÉNY UTCA,stimuli/scenes/108a.jpg,scene,2,stimuli/objects/066a.jpg,stimuli/objects/072b.jpg,stimuli/objects/072a.jpg,stimuli/objects/066b.jpg,stimuli/objects/066a.jpg,dist2,dist1,lure,target,0,0,0,0,0,33,33,36,,,,,,,,,,,,,,,172.24641611566767,None,172.24641611566767,None,172.24641611566767,None,172.24641611566767,None,175.22320165112615,None,None,None,None,None,None,,,,,,,,,,,,,,,,,,,,,,,,,,,,,,,,,,,,,,,,,,pilot1,2022_Jun_16_0904,Hippopolis_Learning,2021.1.4,59.994887530604224,
Hippopolis,stimuli/subj_files/pilot1_cityA.csv,./stimuli/frankfurt.jpg,./stimuli/street_plate1.png,MENTA UTCA,stimuli/objects/088a.jpg,object,1,stimuli/objects/054a.jpg,stimuli/scenes/088b.jpg,stimuli/scenes/088a.jpg,stimuli/objects/054b.jpg,stimuli/objects/054a.jpg,dist2,dist1,lure,target,0,0,0,0,0,34,34,26,,,,,,,,,,,,,,,176.2481170105748,None,176.2481170105748,None,176.2481170105748,None,176.2481170105748,None,179.2297377656214,None,None,None,None,None,None,,,,,,,,,,,,,,,,,,,,,,,,,,,,,,,,,,,,,,,,,,pilot1,2022_Jun_16_0904,Hippopolis_Learning,2021.1.4,59.994887530604224,
Hippopolis,stimuli/subj_files/pilot1_cityA.csv,./stimuli/frankfurt.jpg,./stimuli/street_plate1.png,SZILVA UTCA,stimuli/objects/059a.jpg,object,2,stimuli/scenes/070a.jpg,stimuli/scenes/114b.jpg,stimuli/scenes/070a.jpg,stimuli/scenes/070b.jpg,stimuli/scenes/114a.jpg,dist2,target,lure,dist1,0,0,0,0,0,35,35,71,,,,,,,,,,,,,,,180.29515053657815,None,180.29515053657815,None,180.29515053657815,None,180.29515053657815,None,183.24171867221594,None,None,None,None,None,None,,,,,,,,,,,,,,,,,,,,,,,,,,,,,,,,,,,,,,,,,,pilot1,2022_Jun_16_0904,Hippopolis_Learning,2021.1.4,59.994887530604224,
Hippopolis,stimuli/subj_files/pilot1_cityA.csv,./stimuli/frankfurt.jpg,./stimuli/street_plate1.png,KABÁT UTCA,stimuli/scenes/032a.jpg,scene,1,stimuli/scenes/105a.jpg,stimuli/scenes/105a.jpg,stimuli/scenes/024b.jpg,stimuli/scenes/024a.jpg,stimuli/scenes/105b.jpg,target,dist2,dist1,lure,0,0,0,0,0,36,36,50,,,,,,,,,,,,,,,184.30333529692143,None,184.30333529692143,None,184.30333529692143,None,184.30333529692143,None,187.2568867742084,None,None,None,None,None,None,,,,,,,,,,,,,,,,,,,,,,,,,,,,,,,,,,,,,,,,,,pilot1,2022_Jun_16_0904,Hippopolis_Learning,2021.1.4,59.994887530604224,
Hippopolis,stimuli/subj_files/pilot1_cityA.csv,./stimuli/frankfurt.jpg,./stimuli/street_plate1.png,TISZTÁS UTCA,stimuli/objects/021a.jpg,object,2,stimuli/scenes/029a.jpg,stimuli/objects/018b.jpg,stimuli/scenes/029b.jpg,stimuli/scenes/029a.jpg,stimuli/objects/018a.jpg,dist2,lure,target,dist1,0,0,0,0,0,37,37,67,,,,,,,,,,,,,,,188.28996916674078,None,188.28996916674078,None,188.28996916674078,None,188.28996916674078,None,191.2794017852284,None,None,None,None,None,None,,,,,,,,,,,,,,,,,,,,,,,,,,,,,,,,,,,,,,,,,,pilot1,2022_Jun_16_0904,Hippopolis_Learning,2021.1.4,59.994887530604224,
Hippopolis,stimuli/subj_files/pilot1_cityA.csv,./stimuli/frankfurt.jpg,./stimuli/street_plate1.png,EPER UTCA,stimuli/objects/028a.jpg,object,1,stimuli/objects/062a.jpg,stimuli/objects/062a.jpg,stimuli/objects/047b.jpg,stimuli/objects/062b.jpg,stimuli/objects/047a.jpg,target,dist2,lure,dist1,0,0,0,0,0,38,38,39,,,,,,,,,,,,,,,192.2958901100792,None,192.2958901100792,None,192.2958901100792,None,192.2958901100792,None,195.28425628691912,None,None,None,None,None,None,,,,,,,,,,,,,,,,,,,,,,,,,,,,,,,,,,,,,,,,,,pilot1,2022_Jun_16_0904,Hippopolis_Learning,2021.1.4,59.994887530604224,
Hippopolis,stimuli/subj_files/pilot1_cityA.csv,./stimuli/frankfurt.jpg,./stimuli/street_plate1.png,MÁLNA UTCA,stimuli/scenes/003a.jpg,scene,2,stimuli/objects/115a.jpg,stimuli/objects/115a.jpg,stimuli/objects/115b.jpg,stimuli/objects/086a.jpg,stimuli/objects/086b.jpg,target,lure,dist1,dist2,0,0,0,0,0,39,39,45,,,,,,,,,,,,,,,196.29837691877037,None,196.29837691877037,None,196.29837691877037,None,196.29837691877037,None,199.27509465487674,None,200.28906475985423,None,space,200.28906475985423,None,9.833608055952936,,,,,,,,,,,,,,,,,,,,,,,,,,,,,,,,,,,,,,,,,pilot1,2022_Jun_16_0904,Hippopolis_Learning,2021.1.4,59.994887530604224,
Hippopolis,stimuli/subj_files/pilot1_cityA.csv,./stimuli/frankfurt.jpg,./stimuli/street_plate1.png,SZERSZÁM UTCA,stimuli/objects/037a.jpg,object,0,stimuli/objects/037a.jpg,stimuli/objects/037a.jpg,stimuli/scenes/097b.jpg,stimuli/scenes/097a.jpg,stimuli/objects/037b.jpg,target,dist2,dist1,lure,0,0,0,0,0,40,40,19,,,,,,,,,,,,,,,210.20988745894283,None,210.20988745894283,None,210.20988745894283,None,210.20988745894283,None,213.17441000510007,None,None,None,None,None,None,,,,,,,,,,,,,,,,,,,,,,,,,,,,,,,,,,,,,,,,,,pilot1,2022_Jun_16_0904,Hippopolis_Learning,2021.1.4,59.994887530604224,
Hippopolis,stimuli/subj_files/pilot1_cityA.csv,./stimuli/frankfurt.jpg,./stimuli/street_plate1.png,KÖNYVTÁR UTCA,stimuli/objects/070a.jpg,object,0,stimuli/objects/070a.jpg,stimuli/objects/070a.jpg,stimuli/scenes/100b.jpg,stimuli/scenes/100a.jpg,stimuli/objects/070b.jpg,target,dist2,dist1,lure,0,0,0,0,0,41,41,79,,,,,,,,,,,,,,,214.22483661258593,None,214.22483661258593,None,214.22483661258593,None,214.22483661258593,None,217.1713074031286,None,None,None,None,None,None,,,,,,,,,,,,,,,,,,,,,,,,,,,,,,,,,,,,,,,,,,pilot1,2022_Jun_16_0904,Hippopolis_Learning,2021.1.4,59.994887530604224,
Hippopolis,stimuli/subj_files/pilot1_cityA.csv,./stimuli/frankfurt.jpg,./stimuli/street_plate1.png,SÜTEMÉNY UTCA,stimuli/scenes/043a.jpg,scene,2,stimuli/objects/033a.jpg,stimuli/objects/033b.jpg,stimuli/scenes/026a.jpg,stimuli/scenes/026b.jpg,stimuli/objects/033a.jpg,lure,dist1,dist2,target,0,0,0,0,0,42,42,2,,,,,,,,,,,,,,,218.21448071533814,None,218.21448071533814,None,218.21448071533814,None,218.21448071533814,None,221.1733619128354,None,None,None,None,None,None,,,,,,,,,,,,,,,,,,,,,,,,,,,,,,,,,,,,,,,,,,pilot1,2022_Jun_16_0904,Hippopolis_Learning,2021.1.4,59.994887530604224,
Hippopolis,stimuli/subj_files/pilot1_cityA.csv,./stimuli/frankfurt.jpg,./stimuli/street_plate1.png,MUNKA UTCA,stimuli/objects/061a.jpg,object,2,stimuli/scenes/077a.jpg,stimuli/scenes/020a.jpg,stimuli/scenes/020b.jpg,stimuli/scenes/077b.jpg,stimuli/scenes/077a.jpg,dist1,dist2,lure,target,0,0,0,0,0,43,43,25,,,,,,,,,,,,,,,222.2259341548197,None,222.2259341548197,None,222.2259341548197,None,222.2259341548197,None,225.19220922281966,None,None,None,None,None,None,,,,,,,,,,,,,,,,,,,,,,,,,,,,,,,,,,,,,,,,,,pilot1,2022_Jun_16_0904,Hippopolis_Learning,2021.1.4,59.994887530604224,
Hippopolis,stimuli/subj_files/pilot1_cityA.csv,./stimuli/frankfurt.jpg,./stimuli/street_plate1.png,TOLMÁCS UTCA,stimuli/objects/049a.jpg,object,2,stimuli/scenes/097a.jpg,stimuli/scenes/097b.jpg,stimuli/scenes/077a.jpg,stimuli/scenes/097a.jpg,stimuli/scenes/077b.jpg,lure,dist1,target,dist2,0,0,0,0,0,44,44,23,,,,,,,,,,,,,,,226.22448144294322,None,226.22448144294322,None,226.22448144294322,None,226.22448144294322,None,229.2084269723855,None,None,None,None,None,None,,,,,,,,,,,,,,,,,,,,,,,,,,,,,,,,,,,,,,,,,,pilot1,2022_Jun_16_0904,Hippopolis_Learning,2021.1.4,59.994887530604224,
Hippopolis,stimuli/subj_files/pilot1_cityA.csv,./stimuli/frankfurt.jpg,./stimuli/street_plate1.png,KÁRTYA UTCA,stimuli/scenes/079a.jpg,scene,1,stimuli/scenes/094a.jpg,stimuli/scenes/094a.jpg,stimuli/scenes/105a.jpg,stimuli/scenes/105b.jpg,stimuli/scenes/094b.jpg,target,dist1,dist2,lure,0,0,0,0,0,45,45,30,,,,,,,,,,,,,,,230.2590607102029,None,230.2590607102029,None,230.2590607102029,None,230.2590607102029,None,233.22081747464836,None,None,None,None,None,None,,,,,,,,,,,,,,,,,,,,,,,,,,,,,,,,,,,,,,,,,,pilot1,2022_Jun_16_0904,Hippopolis_Learning,2021.1.4,59.994887530604224,
Hippopolis,stimuli/subj_files/pilot1_cityA.csv,./stimuli/frankfurt.jpg,./stimuli/street_plate1.png,SIVATAG UTCA,stimuli/scenes/085a.jpg,scene,2,stimuli/objects/038a.jpg,stimuli/objects/012b.jpg,stimuli/objects/038a.jpg,stimuli/objects/038b.jpg,stimuli/objects/012a.jpg,dist2,target,lure,dist1,0,0,0,0,0,46,46,35,,,,,,,,,,,,,,,234.25028068339452,None,234.25028068339452,None,234.25028068339452,None,234.25028068339452,None,237.2392091602087,None,None,None,None,None,None,,,,,,,,,,,,,,,,,,,,,,,,,,,,,,,,,,,,,,,,,,pilot1,2022_Jun_16_0904,Hippopolis_Learning,2021.1.4,59.994887530604224,
Hippopolis,stimuli/subj_files/pilot1_cityA.csv,./stimuli/frankfurt.jpg,./stimuli/street_plate1.png,POGÁCSA UTCA,stimuli/objects/093a.jpg,object,1,stimuli/objects/018a.jpg,stimuli/scenes/064a.jpg,stimuli/scenes/064b.jpg,stimuli/objects/018b.jpg,stimuli/objects/018a.jpg,dist1,dist2,lure,target,0,0,0,0,0,47,47,10,,,,,,,,,,,,,,,238.27703440282494,None,238.27703440282494,None,238.27703440282494,None,238.27703440282494,None,241.24975041719154,None,None,None,None,None,None,,,,,,,,,,,,,,,,,,,,,,,,,,,,,,,,,,,,,,,,,,pilot1,2022_Jun_16_0904,Hippopolis_Learning,2021.1.4,59.994887530604224,
Hippopolis,stimuli/subj_files/pilot1_cityA.csv,./stimuli/frankfurt.jpg,./stimuli/street_plate1.png,NARANCS UTCA,stimuli/scenes/103a.jpg,scene,2,stimuli/objects/097a.jpg,stimuli/objects/097b.jpg,stimuli/objects/046a.jpg,stimuli/objects/046b.jpg,stimuli/objects/097a.jpg,lure,dist1,dist2,target,0,0,0,0,0,48,48,13,,,,,,,,,,,,,,,242.26562201604247,None,242.26562201604247,None,242.26562201604247,None,242.26562201604247,None,245.25391386216506,None,None,None,None,None,None,,,,,,,,,,,,,,,,,,,,,,,,,,,,,,,,,,,,,,,,,,pilot1,2022_Jun_16_0904,Hippopolis_Learning,2021.1.4,59.994887530604224,
Hippopolis,stimuli/subj_files/pilot1_cityA.csv,./stimuli/frankfurt.jpg,./stimuli/street_plate1.png,TETŐ UTCA,stimuli/scenes/067a.jpg,scene,2,stimuli/objects/047a.jpg,stimuli/objects/047a.jpg,stimuli/objects/047b.jpg,stimuli/objects/097b.jpg,stimuli/objects/097a.jpg,target,lure,dist2,dist1,0,0,0,0,0,49,49,8,,,,,,,,,,,,,,,246.29647044837475,None,246.29647044837475,None,246.29647044837475,None,246.29647044837475,None,249.2706397967413,None,None,None,None,None,None,,,,,,,,,,,,,,,,,,,,,,,,,,,,,,,,,,,,,,,,,,pilot1,2022_Jun_16_0904,Hippopolis_Learning,2021.1.4,59.994887530604224,
Hippopolis,stimuli/subj_files/pilot1_cityA.csv,./stimuli/frankfurt.jpg,./stimuli/street_plate1.png,BICIKLI UTCA,stimuli/objects/027a.jpg,object,2,stimuli/scenes/026a.jpg,stimuli/scenes/029b.jpg,stimuli/scenes/026b.jpg,stimuli/scenes/029a.jpg,stimuli/scenes/026a.jpg,dist2,lure,dist1,target,0,0,0,0,0,50,50,47,,,,,,,,,,,,,,,250.30713952938095,None,250.30713952938095,None,250.30713952938095,None,250.30713952938095,None,253.26573180174455,None,None,None,None,None,None,,,,,,,,,,,,,,,,,,,,,,,,,,,,,,,,,,,,,,,,,,pilot1,2022_Jun_16_0904,Hippopolis_Learning,2021.1.4,59.994887530604224,
Hippopolis,stimuli/subj_files/pilot1_cityA.csv,./stimuli/frankfurt.jpg,./stimuli/street_plate1.png,KAKAS UTCA,stimuli/scenes/057a.jpg,scene,1,stimuli/scenes/076a.jpg,stimuli/scenes/076b.jpg,stimuli/objects/014b.jpg,stimuli/objects/014a.jpg,stimuli/scenes/076a.jpg,lure,dist2,dist1,target,0,0,0,0,0,51,51,18,,,,,,,,,,,,,,,254.33328927401453,None,254.33328927401453,None,254.33328927401453,None,254.33328927401453,None,257.29084029607475,None,None,None,None,None,None,,,,,,,,,,,,,,,,,,,,,,,,,,,,,,,,,,,,,,,,,,pilot1,2022_Jun_16_0904,Hippopolis_Learning,2021.1.4,59.994887530604224,
Hippopolis,stimuli/subj_files/pilot1_cityA.csv,./stimuli/frankfurt.jpg,./stimuli/street_plate1.png,TOLLTARTÓ UTCA,stimuli/objects/117a.jpg,object,2,stimuli/scenes/045a.jpg,stimuli/scenes/045b.jpg,stimuli/scenes/120b.jpg,stimuli/scenes/045a.jpg,stimuli/scenes/120a.jpg,lure,dist2,target,dist1,0,0,0,0,0,52,52,58,,,,,,,,,,,,,,,258.3213469320908,None,258.3213469320908,None,258.3213469320908,None,258.3213469320908,None,261.2887630830519,None,None,None,None,None,None,,,,,,,,,,,,,,,,,,,,,,,,,,,,,,,,,,,,,,,,,,pilot1,2022_Jun_16_0904,Hippopolis_Learning,2021.1.4,59.994887530604224,
Hippopolis,stimuli/subj_files/pilot1_cityA.csv,./stimuli/frankfurt.jpg,./stimuli/street_plate1.png,FIÓK UTCA,stimuli/objects/012a.jpg,object,0,stimuli/objects/012a.jpg,stimuli/objects/012a.jpg,stimuli/objects/024b.jpg,stimuli/objects/012b.jpg,stimuli/objects/024a.jpg,target,dist2,lure,dist1,0,0,0,0,0,53,53,31,,,,,,,,,,,,,,,262.33869021432474,None,262.33869021432474,None,262.33869021432474,None,262.33869021432474,None,265.30815838696435,None,None,None,None,None,None,,,,,,,,,,,,,,,,,,,,,,,,,,,,,,,,,,,,,,,,,,pilot1,2022_Jun_16_0904,Hippopolis_Learning,2021.1.4,59.994887530604224,
Hippopolis,stimuli/subj_files/pilot1_cityA.csv,./stimuli/frankfurt.jpg,./stimuli/street_plate1.png,TELEFON UTCA,stimuli/objects/102a.jpg,object,2,stimuli/scenes/004a.jpg,stimuli/objects/057a.jpg,stimuli/scenes/004b.jpg,stimuli/scenes/004a.jpg,stimuli/objects/057b.jpg,dist1,lure,target,dist2,0,0,0,0,0,54,54,66,,,,,,,,,,,,,,,266.34099539509043,None,266.34099539509043,None,266.34099539509043,None,266.34099539509043,None,269.3203028831631,None,None,None,None,None,None,,,,,,,,,,,,,,,,,,,,,,,,,,,,,,,,,,,,,,,,,,pilot1,2022_Jun_16_0904,Hippopolis_Learning,2021.1.4,59.994887530604224,
Hippopolis,stimuli/subj_files/pilot1_cityA.csv,./stimuli/frankfurt.jpg,./stimuli/street_plate1.png,PAPRIKA UTCA,stimuli/scenes/118a.jpg,scene,0,stimuli/scenes/118a.jpg,stimuli/scenes/118a.jpg,stimuli/objects/068b.jpg,stimuli/scenes/118b.jpg,stimuli/objects/068a.jpg,target,dist2,lure,dist1,0,0,0,0,0,55,55,20,,,,,,,,,,,,,,,270.3450254187919,None,270.3450254187919,None,270.3450254187919,None,270.3450254187919,None,273.3223281581886,None,None,None,None,None,None,,,,,,,,,,,,,,,,,,,,,,,,,,,,,,,,,,,,,,,,,,pilot1,2022_Jun_16_0904,Hippopolis_Learning,2021.1.4,59.994887530604224,
Hippopolis,stimuli/subj_files/pilot1_cityA.csv,./stimuli/frankfurt.jpg,./stimuli/street_plate1.png,SZITAKÖTŐ UTCA,stimuli/objects/064a.jpg,object,0,stimuli/objects/064a.jpg,stimuli/objects/037b.jpg,stimuli/objects/064a.jpg,stimuli/objects/064b.jpg,stimuli/objects/037a.jpg,dist2,target,lure,dist1,0,0,0,0,0,56,56,3,,,,,,,,,,,,,,,274.38832562137395,None,274.38832562137395,None,274.38832562137395,None,274.38832562137395,None,277.33691343385726,None,None,None,None,None,None,,,,,,,,,,,,,,,,,,,,,,,,,,,,,,,,,,,,,,,,,,pilot1,2022_Jun_16_0904,Hippopolis_Learning,2021.1.4,59.994887530604224,
Hippopolis,stimuli/subj_files/pilot1_cityA.csv,./stimuli/frankfurt.jpg,./stimuli/street_plate1.png,KECSKE UTCA,stimuli/objects/011a.jpg,object,1,stimuli/objects/086a.jpg,stimuli/objects/086b.jpg,stimuli/objects/066a.jpg,stimuli/objects/086a.jpg,stimuli/objects/066b.jpg,lure,dist1,target,dist2,0,0,0,0,0,57,57,64,,,,,,,,,,,,,,,278.3724027061835,None,278.3724027061835,None,278.3724027061835,None,278.3724027061835,None,281.3318119929172,None,None,None,None,None,None,,,,,,,,,,,,,,,,,,,,,,,,,,,,,,,,,,,,,,,,,,pilot1,2022_Jun_16_0904,Hippopolis_Learning,2021.1.4,59.994887530604224,
Hippopolis,stimuli/subj_files/pilot1_cityA.csv,./stimuli/frankfurt.jpg,./stimuli/street_plate1.png,MOTOR UTCA,stimuli/objects/111a.jpg,object,1,stimuli/objects/100a.jpg,stimuli/objects/055a.jpg,stimuli/objects/100b.jpg,stimuli/objects/100a.jpg,stimuli/objects/055b.jpg,dist1,lure,target,dist2,0,0,0,0,0,58,58,55,,,,,,,,,,,,,,,282.3600750272162,None,282.3600750272162,None,282.3600750272162,None,282.3600750272162,None,285.3378212619573,None,None,None,None,None,None,,,,,,,,,,,,,,,,,,,,,,,,,,,,,,,,,,,,,,,,,,pilot1,2022_Jun_16_0904,Hippopolis_Learning,2021.1.4,59.994887530604224,
Hippopolis,stimuli/subj_files/pilot1_cityA.csv,./stimuli/frankfurt.jpg,./stimuli/street_plate1.png,KULACS UTCA,stimuli/objects/045a.jpg,object,1,stimuli/objects/073a.jpg,stimuli/objects/073a.jpg,stimuli/objects/073b.jpg,stimuli/scenes/002a.jpg,stimuli/scenes/002b.jpg,target,lure,dist1,dist2,0,0,0,0,0,59,59,51,,,,,,,,,,,,,,,286.38986168289557,None,286.38986168289557,None,286.38986168289557,None,286.38986168289557,None,289.3388124401681,None,None,None,None,None,None,,,,,,,,,,,,,,,,,,,,,,,,,,,,,,,,,,,,,,,,,,pilot1,2022_Jun_16_0904,Hippopolis_Learning,2021.1.4,59.994887530604224,
Hippopolis,stimuli/subj_files/pilot1_cityA.csv,./stimuli/frankfurt.jpg,./stimuli/street_plate1.png,EGÉR UTCA,stimuli/objects/013a.jpg,object,1,stimuli/objects/080a.jpg,stimuli/scenes/070a.jpg,stimuli/objects/080a.jpg,stimuli/objects/080b.jpg,stimuli/scenes/070b.jpg,dist1,target,lure,dist2,0,0,0,0,0,60,60,34,,,,,,,,,,,,,,,290.36532264156267,None,290.36532264156267,None,290.36532264156267,None,290.36532264156267,None,293.35336692631245,None,None,None,None,None,None,,,,,,,,,,,,,,,,,,,,,,,,,,,,,,,,,,,,,,,,,,pilot1,2022_Jun_16_0904,Hippopolis_Learning,2021.1.4,59.994887530604224,
Hippopolis,stimuli/subj_files/pilot1_cityA.csv,./stimuli/frankfurt.jpg,./stimuli/street_plate1.png,DOBOZ UTCA,stimuli/scenes/030a.jpg,scene,1,stimuli/scenes/060a.jpg,stimuli/scenes/051a.jpg,stimuli/scenes/060b.jpg,stimuli/scenes/060a.jpg,stimuli/scenes/051b.jpg,dist1,lure,target,dist2,0,0,0,0,0,61,61,21,,,,,,,,,,,,,,,294.4008175120689,None,294.4008175120689,None,294.4008175120689,None,294.4008175120689,None,297.3551315777004,None,None,None,None,None,None,,,,,,,,,,,,,,,,,,,,,,,,,,,,,,,,,,,,,,,,,,pilot1,2022_Jun_16_0904,Hippopolis_Learning,2021.1.4,59.994887530604224,
Hippopolis,stimuli/subj_files/pilot1_cityA.csv,./stimuli/frankfurt.jpg,./stimuli/street_plate1.png,OROSZLÁN UTCA,stimuli/scenes/054a.jpg,scene,2,stimuli/objects/014a.jpg,stimuli/objects/099a.jpg,stimuli/objects/099b.jpg,stimuli/objects/014b.jpg,stimuli/objects/014a.jpg,dist1,dist2,lure,target,0,0,0,0,0,62,62,52,,,,,,,,,,,,,,,298.3778083114885,None,298.3778083114885,None,298.3778083114885,None,298.3778083114885,None,301.3786744652316,None,None,None,None,None,None,,,,,,,,,,,,,,,,,,,,,,,,,,,,,,,,,,,,,,,,,,pilot1,2022_Jun_16_0904,Hippopolis_Learning,2021.1.4,59.994887530604224,
Hippopolis,stimuli/subj_files/pilot1_cityA.csv,./stimuli/frankfurt.jpg,./stimuli/street_plate1.png,KENYÉR UTCA,stimuli/scenes/071a.jpg,scene,2,stimuli/objects/055a.jpg,stimuli/objects/033b.jpg,stimuli/objects/055a.jpg,stimuli/objects/055b.jpg,stimuli/objects/033a.jpg,dist2,target,lure,dist1,0,0,0,0,0,63,63,17,,,,,,,,,,,,,,,302.4115068083629,None,302.4115068083629,None,302.4115068083629,None,302.4115068083629,None,305.37307821260765,None,None,None,None,None,None,,,,,,,,,,,,,,,,,,,,,,,,,,,,,,,,,,,,,,,,,,pilot1,2022_Jun_16_0904,Hippopolis_Learning,2021.1.4,59.994887530604224,
Hippopolis,stimuli/subj_files/pilot1_cityA.csv,./stimuli/frankfurt.jpg,./stimuli/street_plate1.png,LEGELŐ UTCA,stimuli/scenes/012a.jpg,scene,1,stimuli/scenes/014a.jpg,stimuli/scenes/014b.jpg,stimuli/objects/016b.jpg,stimuli/scenes/014a.jpg,stimuli/objects/016a.jpg,lure,dist2,target,dist1,0,0,0,0,0,64,64,65,,,,,,,,,,,,,,,306.4256591629237,None,306.4256591629237,None,306.4256591629237,None,306.4256591629237,None,309.3987881937064,None,None,None,None,None,None,,,,,,,,,,,,,,,,,,,,,,,,,,,,,,,,,,,,,,,,,,pilot1,2022_Jun_16_0904,Hippopolis_Learning,2021.1.4,59.994887530604224,
Hippopolis,stimuli/subj_files/pilot1_cityA.csv,./stimuli/frankfurt.jpg,./stimuli/street_plate1.png,TORONY UTCA,stimuli/scenes/059a.jpg,scene,2,stimuli/objects/120a.jpg,stimuli/scenes/104b.jpg,stimuli/objects/120b.jpg,stimuli/scenes/104a.jpg,stimuli/objects/120a.jpg,dist2,lure,dist1,target,0,0,0,0,0,65,65,6,,,,,,,,,,,,,,,310.4140041912906,None,310.4140041912906,None,310.4140041912906,None,310.4140041912906,None,313.40487645892426,None,None,None,None,None,None,,,,,,,,,,,,,,,,,,,,,,,,,,,,,,,,,,,,,,,,,,pilot1,2022_Jun_16_0904,Hippopolis_Learning,2021.1.4,59.994887530604224,
Hippopolis,stimuli/subj_files/pilot1_cityA.csv,./stimuli/frankfurt.jpg,./stimuli/street_plate1.png,KOCKA UTCA,stimuli/scenes/002a.jpg,scene,0,stimuli/scenes/002a.jpg,stimuli/scenes/072a.jpg,stimuli/scenes/002b.jpg,stimuli/scenes/072b.jpg,stimuli/scenes/002a.jpg,dist1,lure,dist2,target,0,0,0,0,0,66,66,73,,,,,,,,,,,,,,,314.4249699721113,None,314.4249699721113,None,314.4249699721113,None,314.4249699721113,None,317.40806831931695,None,None,None,None,None,None,,,,,,,,,,,,,,,,,,,,,,,,,,,,,,,,,,,,,,,,,,pilot1,2022_Jun_16_0904,Hippopolis_Learning,2021.1.4,59.994887530604224,
Hippopolis,stimuli/subj_files/pilot1_cityA.csv,./stimuli/frankfurt.jpg,./stimuli/street_plate1.png,FÜZET UTCA,stimuli/scenes/008a.jpg,scene,2,stimuli/objects/024a.jpg,stimuli/objects/024b.jpg,stimuli/scenes/117a.jpg,stimuli/objects/024a.jpg,stimuli/scenes/117b.jpg,lure,dist1,target,dist2,0,0,0,0,0,67,67,69,,,,,,,,,,,,,,,318.44475372321904,None,318.44475372321904,None,318.44475372321904,None,318.44475372321904,None,321.4242170252837,None,None,None,None,None,None,,,,,,,,,,,,,,,,,,,,,,,,,,,,,,,,,,,,,,,,,,pilot1,2022_Jun_16_0904,Hippopolis_Learning,2021.1.4,59.994887530604224,
Hippopolis,stimuli/subj_files/pilot1_cityA.csv,./stimuli/frankfurt.jpg,./stimuli/street_plate1.png,ASZTAL UTCA,stimuli/objects/016a.jpg,object,0,stimuli/objects/016a.jpg,stimuli/objects/016a.jpg,stimuli/scenes/046b.jpg,stimuli/scenes/046a.jpg,stimuli/objects/016b.jpg,target,dist2,dist1,lure,0,0,0,0,0,68,68,56,,,,,,,,,,,,,,,322.49383336119354,None,322.49383336119354,None,322.49383336119354,None,322.49383336119354,None,325.43976237857714,None,None,None,None,None,None,,,,,,,,,,,,,,,,,,,,,,,,,,,,,,,,,,,,,,,,,,pilot1,2022_Jun_16_0904,Hippopolis_Learning,2021.1.4,59.994887530604224,
Hippopolis,stimuli/subj_files/pilot1_cityA.csv,./stimuli/frankfurt.jpg,./stimuli/street_plate1.png,PETREZSELYEM UTCA,stimuli/objects/090a.jpg,object,1,stimuli/objects/040a.jpg,stimuli/objects/040a.jpg,stimuli/objects/053a.jpg,stimuli/objects/053b.jpg,stimuli/objects/040b.jpg,target,dist1,dist2,lure,0,0,0,0,0,69,69,16,,,,,,,,,,,,,,,326.4761952450499,None,326.4761952450499,None,326.4761952450499,None,326.4761952450499,None,329.4563614218496,None,None,None,None,None,None,,,,,,,,,,,,,,,,,,,,,,,,,,,,,,,,,,,,,,,,,,pilot1,2022_Jun_16_0904,Hippopolis_Learning,2021.1.4,59.994887530604224,
Hippopolis,stimuli/subj_files/pilot1_cityA.csv,./stimuli/frankfurt.jpg,./stimuli/street_plate1.png,KORONG UTCA,stimuli/objects/104a.jpg,object,0,stimuli/objects/104a.jpg,stimuli/objects/076b.jpg,stimuli/objects/104a.jpg,stimuli/objects/104b.jpg,stimuli/objects/076a.jpg,dist2,target,lure,dist1,0,0,0,0,0,70,70,5,,,,,,,,,,,,,,,330.48184996657073,None,330.48184996657073,None,330.48184996657073,None,330.48184996657073,None,333.45506918942556,None,None,None,None,None,None,,,,,,,,,,,,,,,,,,,,,,,,,,,,,,,,,,,,,,,,,,pilot1,2022_Jun_16_0904,Hippopolis_Learning,2021.1.4,59.994887530604224,
Hippopolis,stimuli/subj_files/pilot1_cityA.csv,./stimuli/frankfurt.jpg,./stimuli/street_plate1.png,KERET UTCA,stimuli/objects/046a.jpg,object,0,stimuli/objects/046a.jpg,stimuli/objects/046b.jpg,stimuli/scenes/022b.jpg,stimuli/scenes/022a.jpg,stimuli/objects/046a.jpg,lure,dist2,dist1,target,0,0,0,0,0,71,71,29,,,,,,,,,,,,,,,334.50634453445673,None,334.50634453445673,None,334.50634453445673,None,334.50634453445673,None,337.47353365039453,None,None,None,None,None,None,,,,,,,,,,,,,,,,,,,,,,,,,,,,,,,,,,,,,,,,,,pilot1,2022_Jun_16_0904,Hippopolis_Learning,2021.1.4,59.994887530604224,
Hippopolis,stimuli/subj_files/pilot1_cityA.csv,./stimuli/frankfurt.jpg,./stimuli/street_plate1.png,TÉRKÉP UTCA,stimuli/scenes/061a.jpg,scene,2,stimuli/objects/065a.jpg,stimuli/objects/065a.jpg,stimuli/scenes/060b.jpg,stimuli/scenes/060a.jpg,stimuli/objects/065b.jpg,target,dist2,dist1,lure,0,0,0,0,0,72,72,72,,,,,,,,,,,,,,,338.5078249257058,None,338.5078249257058,None,338.5078249257058,None,338.5078249257058,None,341.48620841279626,None,None,None,None,None,None,,,,,,,,,,,,,,,,,,,,,,,,,,,,,,,,,,,,,,,,,,pilot1,2022_Jun_16_0904,Hippopolis_Learning,2021.1.4,59.994887530604224,
Hippopolis,stimuli/subj_files/pilot1_cityA.csv,./stimuli/frankfurt.jpg,./stimuli/street_plate1.png,ÁLLOMÁS UTCA,stimuli/objects/041a.jpg,object,1,stimuli/objects/022a.jpg,stimuli/objects/022b.jpg,stimuli/objects/022a.jpg,stimuli/objects/062b.jpg,stimuli/objects/062a.jpg,lure,target,dist2,dist1,0,0,0,0,0,73,73,24,,,,,,,,,,,,,,,342.53579903487116,None,342.53579903487116,None,342.53579903487116,None,342.53579903487116,None,345.4895193888806,None,None,None,None,None,None,,,,,,,,,,,,,,,,,,,,,,,,,,,,,,,,,,,,,,,,,,pilot1,2022_Jun_16_0904,Hippopolis_Learning,2021.1.4,59.994887530604224,
Hippopolis,stimuli/subj_files/pilot1_cityA.csv,./stimuli/frankfurt.jpg,./stimuli/street_plate1.png,KIFLI UTCA,stimuli/scenes/006a.jpg,scene,0,stimuli/scenes/006a.jpg,stimuli/scenes/006a.jpg,stimuli/scenes/006b.jpg,stimuli/scenes/014b.jpg,stimuli/scenes/014a.jpg,target,lure,dist2,dist1,0,0,0,0,0,74,74,62,,,,,,,,,,,,,,,346.54209225345403,None,346.54209225345403,None,346.54209225345403,None,346.54209225345403,None,349.51506609190255,None,None,None,None,None,None,,,,,,,,,,,,,,,,,,,,,,,,,,,,,,,,,,,,,,,,,,pilot1,2022_Jun_16_0904,Hippopolis_Learning,2021.1.4,59.994887530604224,
Hippopolis,stimuli/subj_files/pilot1_cityA.csv,./stimuli/frankfurt.jpg,./stimuli/street_plate1.png,KULLANCS UTCA,stimuli/scenes/111a.jpg,scene,1,stimuli/scenes/084a.jpg,stimuli/scenes/084b.jpg,stimuli/scenes/084a.jpg,stimuli/objects/054a.jpg,stimuli/objects/054b.jpg,lure,target,dist1,dist2,0,0,0,0,0,75,75,68,,,,,,,,,,,,,,,350.54764962987974,None,350.54764962987974,None,350.54764962987974,None,350.54764962987974,None,353.50535366730765,None,None,None,None,None,None,,,,,,,,,,,,,,,,,,,,,,,,,,,,,,,,,,,,,,,,,,pilot1,2022_Jun_16_0904,Hippopolis_Learning,2021.1.4,59.994887530604224,
Hippopolis,stimuli/subj_files/pilot1_cityA.csv,./stimuli/frankfurt.jpg,./stimuli/street_plate1.png,PAPAGÁJ UTCA,stimuli/scenes/023a.jpg,scene,1,stimuli/scenes/113a.jpg,stimuli/objects/070b.jpg,stimuli/scenes/113b.jpg,stimuli/objects/070a.jpg,stimuli/scenes/113a.jpg,dist2,lure,dist1,target,0,0,0,0,0,76,76,53,,,,,,,,,,,,,,,354.56604038225487,None,354.56604038225487,None,354.56604038225487,None,354.56604038225487,None,357.521057323087,None,None,None,None,None,None,,,,,,,,,,,,,,,,,,,,,,,,,,,,,,,,,,,,,,,,,,pilot1,2022_Jun_16_0904,Hippopolis_Learning,2021.1.4,59.994887530604224,
Hippopolis,stimuli/subj_files/pilot1_cityA.csv,./stimuli/frankfurt.jpg,./stimuli/street_plate1.png,SZŐNYEG UTCA,stimuli/scenes/044a.jpg,scene,0,stimuli/scenes/044a.jpg,stimuli/scenes/044a.jpg,stimuli/scenes/004b.jpg,stimuli/scenes/004a.jpg,stimuli/scenes/044b.jpg,target,dist2,dist1,lure,0,0,0,0,0,77,77,11,,,,,,,,,,,,,,,358.5581150013022,None,358.5581150013022,None,358.5581150013022,None,358.5581150013022,None,361.53379210969433,None,None,None,None,None,None,,,,,,,,,,,,,,,,,,,,,,,,,,,,,,,,,,,,,,,,,,pilot1,2022_Jun_16_0904,Hippopolis_Learning,2021.1.4,59.994887530604224,
Hippopolis,stimuli/subj_files/pilot1_cityA.csv,./stimuli/frankfurt.jpg,./stimuli/street_plate1.png,POLIP UTCA,stimuli/objects/039a.jpg,object,0,stimuli/objects/039a.jpg,stimuli/objects/101a.jpg,stimuli/objects/039b.jpg,stimuli/objects/101b.jpg,stimuli/objects/039a.jpg,dist1,lure,dist2,target,0,0,0,0,0,78,78,12,,,,,,,,,,,,,,,362.57613410102203,None,362.57613410102203,None,362.57613410102203,None,362.57613410102203,None,365.53756617428735,None,None,None,None,None,None,,,,,,,,,,,,,,,,,,,,,,,,,,,,,,,,,,,,,,,,,,pilot1,2022_Jun_16_0904,Hippopolis_Learning,2021.1.4,59.994887530604224,
Hippopolis,stimuli/subj_files/pilot1_cityA.csv,./stimuli/frankfurt.jpg,./stimuli/street_plate1.png,FÜGE UTCA,stimuli/objects/109a.jpg,object,2,stimuli/scenes/104a.jpg,stimuli/scenes/104b.jpg,stimuli/objects/030b.jpg,stimuli/scenes/104a.jpg,stimuli/objects/030a.jpg,lure,dist2,target,dist1,0,0,0,0,0,79,79,9,,,,,,,,,,,,,,,366.5636201291345,None,366.5636201291345,None,366.5636201291345,None,366.5636201291345,None,369.5606027431786,None,370.5529432729818,None,space,370.5529432729818,None,11.487861413042992,,,,,,,,,,,,,,,,,,,,,,,,,,,,,,,,,,,,,,,,,pilot1,2022_Jun_16_0904,Hippopolis_Learning,2021.1.4,59.994887530604224,
Hippopolis,stimuli/subj_files/pilot1_cityA.csv,./stimuli/frankfurt.jpg,./stimuli/street_plate1.png,HARMONIKA UTCA,stimuli/scenes/028a.jpg,scene,2,stimuli/objects/099a.jpg,stimuli/objects/099a.jpg,stimuli/objects/015b.jpg,stimuli/objects/015a.jpg,stimuli/objects/099b.jpg,target,dist2,dist1,lure,0,0,0,0,,,,,0,0,0,63,,,,,,,,,,,,,,,,,,,395.42625474045053,None,,,,,,,382.0632055574097,None,space,9.289358661044389,382.0632055574097,None,391.4379781335592,None,391.4379781335592,None,391.4379781335592,None,391.4379781335592,None,None,391.4379781335592,None,391.4379781335592,None,None,None,None,None,None,None,None,None,None,None,None,,,,,,,,,,,pilot1,2022_Jun_16_0904,Hippopolis_Learning,2021.1.4,59.994887530604224,
Hippopolis,stimuli/subj_files/pilot1_cityA.csv,./stimuli/frankfurt.jpg,./stimuli/street_plate1.png,SZILVA UTCA,stimuli/objects/059a.jpg,object,2,stimuli/scenes/070a.jpg,stimuli/scenes/114b.jpg,stimuli/scenes/070a.jpg,stimuli/scenes/070b.jpg,stimuli/scenes/114a.jpg,dist2,target,lure,dist1,0,0,0,0,,,,,0,1,1,71,,,,,,,,,,,,,,,,,,,399.04704783204943,None,,,,,,,,,,,,,396.45508536184207,None,396.45508536184207,None,396.45508536184207,None,396.45508536184207,None,left,396.45508536184207,None,396.45508536184207,None,None,None,None,None,None,None,None,None,None,None,None,2.545818111859262,,,,,,,,,,pilot1,2022_Jun_16_0904,Hippopolis_Learning,2021.1.4,59.994887530604224,
Hippopolis,stimuli/subj_files/pilot1_cityA.csv,./stimuli/frankfurt.jpg,./stimuli/street_plate1.png,KORONG UTCA,stimuli/objects/104a.jpg,object,0,stimuli/objects/104a.jpg,stimuli/objects/076b.jpg,stimuli/objects/104a.jpg,stimuli/objects/104b.jpg,stimuli/objects/076a.jpg,dist2,target,lure,dist1,0,0,0,0,,,,,0,2,2,5,,,,,,,,,,,,,,,,,,,403.4286298980005,None,,,,,,,,,,,,,400.07343487488106,None,400.07343487488106,None,400.07343487488106,None,400.07343487488106,None,left,400.07343487488106,None,400.07343487488106,None,None,None,None,None,None,None,None,None,None,None,None,3.3110053413547575,,,,,,,,,,pilot1,2022_Jun_16_0904,Hippopolis_Learning,2021.1.4,59.994887530604224,
Hippopolis,stimuli/subj_files/pilot1_cityA.csv,./stimuli/frankfurt.jpg,./stimuli/street_plate1.png,PAPRIKA UTCA,stimuli/scenes/118a.jpg,scene,0,stimuli/scenes/118a.jpg,stimuli/scenes/118a.jpg,stimuli/objects/068b.jpg,stimuli/scenes/118b.jpg,stimuli/objects/068a.jpg,target,dist2,lure,dist1,0,0,0,0,,,,,0,3,3,20,,,,,,,,,,,,,,,,,,,407.4502694248222,None,,,,,,,,,,,,,404.45966400112957,None,404.45966400112957,None,404.45966400112957,None,404.45966400112957,None,left,404.45966400112957,None,404.45966400112957,None,None,None,None,None,None,None,None,None,None,None,None,2.9407510682940483,,,,,,,,,,pilot1,2022_Jun_16_0904,Hippopolis_Learning,2021.1.4,59.994887530604224,
Hippopolis,stimuli/subj_files/pilot1_cityA.csv,./stimuli/frankfurt.jpg,./stimuli/street_plate1.png,PADLÓ UTCA,stimuli/objects/053a.jpg,object,0,stimuli/objects/053a.jpg,stimuli/objects/053a.jpg,stimuli/objects/053b.jpg,stimuli/objects/064b.jpg,stimuli/objects/064a.jpg,target,lure,dist2,dist1,0,0,0,0,,,,,0,4,4,74,,,,,,,,,,,,,,,,,,,410.58378983894363,None,,,,,,,,,,,,,408.47964119771495,None,408.47964119771495,None,408.47964119771495,None,408.47964119771495,None,left,408.47964119771495,None,408.47964119771495,None,None,None,None,None,None,None,None,None,None,None,None,2.0406314553692937,,,,,,,,,,pilot1,2022_Jun_16_0904,Hippopolis_Learning,2021.1.4,59.994887530604224,
Hippopolis,stimuli/subj_files/pilot1_cityA.csv,./stimuli/frankfurt.jpg,./stimuli/street_plate1.png,GYŰRŰ UTCA,stimuli/scenes/007a.jpg,scene,0,stimuli/scenes/007a.jpg,stimuli/scenes/076a.jpg,stimuli/scenes/007b.jpg,stimuli/scenes/007a.jpg,stimuli/scenes/076b.jpg,dist1,lure,target,dist2,0,0,0,0,,,,,0,5,5,76,,,,,,,,,,,,,,,,,,,413.6156453108415,None,,,,,,,,,,,,,411.6020729835145,None,411.6020729835145,None,411.6020729835145,None,411.6020729835145,None,left,411.6020729835145,None,411.6020729835145,None,None,None,None,None,None,None,None,None,None,None,None,1.9583851415663958,,,,,,,,,,pilot1,2022_Jun_16_0904,Hippopolis_Learning,2021.1.4,59.994887530604224,
Hippopolis,stimuli/subj_files/pilot1_cityA.csv,./stimuli/frankfurt.jpg,./stimuli/street_plate1.png,SZŐNYEG UTCA,stimuli/scenes/044a.jpg,scene,0,stimuli/scenes/044a.jpg,stimuli/scenes/044a.jpg,stimuli/scenes/004b.jpg,stimuli/scenes/004a.jpg,stimuli/scenes/044b.jpg,target,dist2,dist1,lure,0,0,0,0,,,,,0,6,6,11,,,,,,,,,,,,,,,,,,,415.7386732958257,None,,,,,,,,,,,,,414.6393129117787,None,414.6393129117787,None,414.6393129117787,None,414.6393129117787,None,right,414.6393129117787,None,414.6393129117787,None,None,None,None,None,None,None,None,None,None,None,None,1.049006862565875,,,,,,,,,,pilot1,2022_Jun_16_0904,Hippopolis_Learning,2021.1.4,59.994887530604224,
Hippopolis,stimuli/subj_files/pilot1_cityA.csv,./stimuli/frankfurt.jpg,./stimuli/street_plate1.png,TISZTÁS UTCA,stimuli/objects/021a.jpg,object,2,stimuli/scenes/029a.jpg,stimuli/objects/018b.jpg,stimuli/scenes/029b.jpg,stimuli/scenes/029a.jpg,stimuli/objects/018a.jpg,dist2,lure,target,dist1,0,0,0,0,,,,,0,7,7,67,,,,,,,,,,,,,,,,,,,418.17563754785806,None,,,,,,,,,,,,,416.7742586690001,None,416.7742586690001,None,416.7742586690001,None,416.7742586690001,None,right,416.7742586690001,None,416.7742586690001,None,None,None,None,None,None,None,None,None,None,None,None,1.3459811420179904,,,,,,,,,,pilot1,2022_Jun_16_0904,Hippopolis_Learning,2021.1.4,59.994887530604224,
Hippopolis,stimuli/subj_files/pilot1_cityA.csv,./stimuli/frankfurt.jpg,./stimuli/street_plate1.png,TRIATLON UTCA,stimuli/objects/119a.jpg,object,2,stimuli/scenes/018a.jpg,stimuli/objects/017a.jpg,stimuli/objects/017b.jpg,stimuli/scenes/018b.jpg,stimuli/scenes/018a.jpg,dist1,dist2,lure,target,0,0,0,0,,,,,0,8,8,75,,,,,,,,,,,,,,,,,,,420.8483696724288,None,,,,,,,,,,,,,419.2082245070487,None,419.2082245070487,None,419.2082245070487,None,419.2082245070487,None,left,419.2082245070487,None,419.2082245070487,None,None,None,None,None,None,None,None,None,None,None,None,1.5999873732216656,,,,,,,,,,pilot1,2022_Jun_16_0904,Hippopolis_Learning,2021.1.4,59.994887530604224,
Hippopolis,stimuli/subj_files/pilot1_cityA.csv,./stimuli/frankfurt.jpg,./stimuli/street_plate1.png,ÁRNYÉK UTCA,stimuli/scenes/088a.jpg,scene,0,stimuli/scenes/088a.jpg,stimuli/scenes/088a.jpg,stimuli/objects/038a.jpg,stimuli/objects/038b.jpg,stimuli/scenes/088b.jpg,target,dist1,dist2,lure,0,0,0,0,,,,,0,9,9,42,,,,,,,,,,,,,,,,,,,424.2889462662861,None,,,,,,,,,,,,,421.87075872533023,None,421.87075872533023,None,421.87075872533023,None,421.87075872533023,None,left,421.87075872533023,None,421.87075872533023,None,None,None,None,None,None,None,None,None,None,None,None,2.3614670927636325,,,,,,,,,,pilot1,2022_Jun_16_0904,Hippopolis_Learning,2021.1.4,59.994887530604224,
Hippopolis,stimuli/subj_files/pilot1_cityA.csv,./stimuli/frankfurt.jpg,./stimuli/street_plate1.png,POGÁCSA UTCA,stimuli/objects/093a.jpg,object,1,stimuli/objects/018a.jpg,stimuli/scenes/064a.jpg,stimuli/scenes/064b.jpg,stimuli/objects/018b.jpg,stimuli/objects/018a.jpg,dist1,dist2,lure,target,0,0,0,0,,,,,0,10,10,10,,,,,,,,,,,,,,,,,,,426.4592503621243,None,,,,,,,,,,,,,425.3069644328207,None,425.3069644328207,None,425.3069644328207,None,425.3069644328207,None,right,425.3069644328207,None,425.3069644328207,None,None,None,None,None,None,None,None,None,None,None,None,1.1013069739565253,,,,,,,,,,pilot1,2022_Jun_16_0904,Hippopolis_Learning,2021.1.4,59.994887530604224,
Hippopolis,stimuli/subj_files/pilot1_cityA.csv,./stimuli/frankfurt.jpg,./stimuli/street_plate1.png,FECSKE UTCA,stimuli/objects/106a.jpg,object,2,stimuli/scenes/051a.jpg,stimuli/scenes/116b.jpg,stimuli/scenes/051b.jpg,stimuli/scenes/116a.jpg,stimuli/scenes/051a.jpg,dist2,lure,dist1,target,0,0,0,0,,,,,0,11,11,49,,,,,,,,,,,,,,,,,,,429.3784555164166,None,,,,,,,,,,,,,427.4925187365152,None,427.4925187365152,None,427.4925187365152,None,427.4925187365152,None,left,427.4925187365152,None,427.4925187365152,None,None,None,None,None,None,None,None,None,None,None,None,1.8115987414494157,,,,,,,,,,pilot1,2022_Jun_16_0904,Hippopolis_Learning,2021.1.4,59.994887530604224,
Hippopolis,stimuli/subj_files/pilot1_cityA.csv,./stimuli/frankfurt.jpg,./stimuli/street_plate1.png,TOLMÁCS UTCA,stimuli/objects/049a.jpg,object,2,stimuli/scenes/097a.jpg,stimuli/scenes/097b.jpg,stimuli/scenes/077a.jpg,stimuli/scenes/097a.jpg,stimuli/scenes/077b.jpg,lure,dist1,target,dist2,0,0,0,0,,,,,0,12,12,23,,,,,,,,,,,,,,,,,,,432.63820137409493,None,,,,,,,,,,,,,430.400517701637,None,430.400517701637,None,430.400517701637,None,430.400517701637,None,left,430.400517701637,None,430.400517701637,None,None,None,None,None,None,None,None,None,None,None,None,2.1995499110780656,,,,,,,,,,pilot1,2022_Jun_16_0904,Hippopolis_Learning,2021.1.4,59.994887530604224,
Hippopolis,stimuli/subj_files/pilot1_cityA.csv,./stimuli/frankfurt.jpg,./stimuli/street_plate1.png,TÖLCSÉR UTCA,stimuli/scenes/068a.jpg,scene,0,stimuli/scenes/068a.jpg,stimuli/objects/039a.jpg,stimuli/scenes/068a.jpg,stimuli/scenes/068b.jpg,stimuli/objects/039b.jpg,dist1,target,lure,dist2,0,0,0,0,,,,,0,13,13,46,,,,,,,,,,,,,,,,,,,436.13859448675066,None,,,,,,,,,,,,,433.67469644220546,None,433.67469644220546,None,433.67469644220546,None,433.67469644220546,None,left,433.67469644220546,None,433.67469644220546,None,None,None,None,None,None,None,None,None,None,None,None,2.4136456004343927,,,,,,,,,,pilot1,2022_Jun_16_0904,Hippopolis_Learning,2021.1.4,59.994887530604224,
Hippopolis,stimuli/subj_files/pilot1_cityA.csv,./stimuli/frankfurt.jpg,./stimuli/street_plate1.png,BONBON UTCA,stimuli/scenes/022a.jpg,scene,0,stimuli/scenes/022a.jpg,stimuli/scenes/022a.jpg,stimuli/scenes/022b.jpg,stimuli/scenes/018a.jpg,stimuli/scenes/018b.jpg,target,lure,dist1,dist2,0,0,0,0,,,,,0,14,14,43,,,,,,,,,,,,,,,,,,,438.1534310556017,None,,,,,,,,,,,,,437.1642148979008,None,437.1642148979008,None,437.1642148979008,None,437.1642148979008,None,right,437.1642148979008,None,437.1642148979008,None,None,None,None,None,None,None,None,None,None,None,None,0.9558037873357534,,,,,,,,,,pilot1,2022_Jun_16_0904,Hippopolis_Learning,2021.1.4,59.994887530604224,
Hippopolis,stimuli/subj_files/pilot1_cityA.csv,./stimuli/frankfurt.jpg,./stimuli/street_plate1.png,ÁLLOMÁS UTCA,stimuli/objects/041a.jpg,object,1,stimuli/objects/022a.jpg,stimuli/objects/022b.jpg,stimuli/objects/022a.jpg,stimuli/objects/062b.jpg,stimuli/objects/062a.jpg,lure,target,dist2,dist1,0,0,0,0,,,,,0,15,15,24,,,,,,,,,,,,,,,,,,,441.58330311393365,None,,,,,,,,,,,,,439.1916052480228,None,439.1916052480228,None,439.1916052480228,None,439.1916052480228,None,left,439.1916052480228,None,439.1916052480228,None,None,None,None,None,None,None,None,None,None,None,None,2.35262144356966,,,,,,,,,,pilot1,2022_Jun_16_0904,Hippopolis_Learning,2021.1.4,59.994887530604224,
Hippopolis,stimuli/subj_files/pilot1_cityA.csv,./stimuli/frankfurt.jpg,./stimuli/street_plate1.png,SZÖCSKE UTCA,stimuli/objects/057a.jpg,object,0,stimuli/objects/057a.jpg,stimuli/objects/057b.jpg,stimuli/objects/057a.jpg,stimuli/scenes/045b.jpg,stimuli/scenes/045a.jpg,lure,target,dist2,dist1,0,0,0,0,,,,,0,16,16,14,,,,,,,,,,,,,,,,,,,445.3829281022772,None,,,,,,,,,,,,,442.61284189717844,None,442.61284189717844,None,442.61284189717844,None,442.61284189717844,None,left,442.61284189717844,None,442.61284189717844,None,None,None,None,None,None,None,None,None,None,None,None,2.707496751565486,,,,,,,,,,pilot1,2022_Jun_16_0904,Hippopolis_Learning,2021.1.4,59.994887530604224,
Hippopolis,stimuli/subj_files/pilot1_cityA.csv,./stimuli/frankfurt.jpg,./stimuli/street_plate1.png,OROSZLÁN UTCA,stimuli/scenes/054a.jpg,scene,2,stimuli/objects/014a.jpg,stimuli/objects/099a.jpg,stimuli/objects/099b.jpg,stimuli/objects/014b.jpg,stimuli/objects/014a.jpg,dist1,dist2,lure,target,0,0,0,0,,,,,0,17,17,52,,,,,,,,,,,,,,,,,,,448.8501178403385,None,,,,,,,,,,,,,446.4015577076934,None,446.4015577076934,None,446.4015577076934,None,446.4015577076934,None,left,446.4015577076934,None,446.4015577076934,None,None,None,None,None,None,None,None,None,None,None,None,2.3743660910986364,,,,,,,,,,pilot1,2022_Jun_16_0904,Hippopolis_Learning,2021.1.4,59.994887530604224,
Hippopolis,stimuli/subj_files/pilot1_cityA.csv,./stimuli/frankfurt.jpg,./stimuli/street_plate1.png,TETŐ UTCA,stimuli/scenes/067a.jpg,scene,2,stimuli/objects/047a.jpg,stimuli/objects/047a.jpg,stimuli/objects/047b.jpg,stimuli/objects/097b.jpg,stimuli/objects/097a.jpg,target,lure,dist2,dist1,0,0,0,0,,,,,0,18,18,8,,,,,,,,,,,,,,,,,,,450.91981814801693,None,,,,,,,,,,,,,449.8724468690343,None,449.8724468690343,None,449.8724468690343,None,449.8724468690343,None,right,449.8724468690343,None,449.8724468690343,None,None,None,None,None,None,None,None,None,None,None,None,0.9994743992574513,,,,,,,,,,pilot1,2022_Jun_16_0904,Hippopolis_Learning,2021.1.4,59.994887530604224,
Hippopolis,stimuli/subj_files/pilot1_cityA.csv,./stimuli/frankfurt.jpg,./stimuli/street_plate1.png,KESELYŰ UTCA,stimuli/scenes/027a.jpg,scene,2,stimuli/objects/101a.jpg,stimuli/scenes/044a.jpg,stimuli/objects/101a.jpg,stimuli/objects/101b.jpg,stimuli/scenes/044b.jpg,dist1,target,lure,dist2,0,0,0,0,,,,,0,19,19,4,,,,,,,,,,,,,,,,,,,453.69069057749584,None,,,,,,,,,,,,,451.9419876304455,None,451.9419876304455,None,451.9419876304455,None,451.9419876304455,None,left,451.9419876304455,None,451.9419876304455,None,None,None,None,None,None,None,None,None,None,None,None,1.681999498512596,,,,,,,,,,pilot1,2022_Jun_16_0904,Hippopolis_Learning,2021.1.4,59.994887530604224,
Hippopolis,stimuli/subj_files/pilot1_cityA.csv,./stimuli/frankfurt.jpg,./stimuli/street_plate1.png,LÁNDZSA UTCA,stimuli/scenes/041a.jpg,scene,1,stimuli/scenes/116a.jpg,stimuli/scenes/116b.jpg,stimuli/scenes/116a.jpg,stimuli/objects/100a.jpg,stimuli/objects/100b.jpg,lure,target,dist1,dist2,0,0,0,0,,,,,0,20,20,32,,,,,,,,,,,,,,,,,,,455.917140070349,None,,,,,,,,,,,,,454.72623427631333,None,454.72623427631333,None,454.72623427631333,None,454.72623427631333,None,left,454.72623427631333,None,454.72623427631333,None,None,None,None,None,None,None,None,None,None,None,None,1.1375672318972647,,,,,,,,,,pilot1,2022_Jun_16_0904,Hippopolis_Learning,2021.1.4,59.994887530604224,
Hippopolis,stimuli/subj_files/pilot1_cityA.csv,./stimuli/frankfurt.jpg,./stimuli/street_plate1.png,ZSÁLYA UTCA,stimuli/objects/034a.jpg,object,2,stimuli/scenes/117a.jpg,stimuli/scenes/117b.jpg,stimuli/scenes/001b.jpg,stimuli/scenes/117a.jpg,stimuli/scenes/001a.jpg,lure,dist2,target,dist1,0,0,0,0,,,,,0,21,21,33,,,,,,,,,,,,,,,,,,,459.1301295091398,None,,,,,,,,,,,,,456.9456217424013,None,456.9456217424013,None,456.9456217424013,None,456.9456217424013,None,left,456.9456217424013,None,456.9456217424013,None,None,None,None,None,None,None,None,None,None,None,None,2.118100085761398,,,,,,,,,,pilot1,2022_Jun_16_0904,Hippopolis_Learning,2021.1.4,59.994887530604224,
Hippopolis,stimuli/subj_files/pilot1_cityA.csv,./stimuli/frankfurt.jpg,./stimuli/street_plate1.png,LEGELŐ UTCA,stimuli/scenes/012a.jpg,scene,1,stimuli/scenes/014a.jpg,stimuli/scenes/014b.jpg,stimuli/objects/016b.jpg,stimuli/scenes/014a.jpg,stimuli/objects/016a.jpg,lure,dist2,target,dist1,0,0,0,0,,,,,0,22,22,65,,,,,,,,,,,,,,,,,,,461.81769322697073,None,,,,,,,,,,,,,460.1552647505887,None,460.1552647505887,None,460.1552647505887,None,460.1552647505887,None,right,460.1552647505887,None,460.1552647505887,None,None,None,None,None,None,None,None,None,None,None,None,1.6128412750549614,,,,,,,,,,pilot1,2022_Jun_16_0904,Hippopolis_Learning,2021.1.4,59.994887530604224,
Hippopolis,stimuli/subj_files/pilot1_cityA.csv,./stimuli/frankfurt.jpg,./stimuli/street_plate1.png,POLIP UTCA,stimuli/objects/039a.jpg,object,0,stimuli/objects/039a.jpg,stimuli/objects/101a.jpg,stimuli/objects/039b.jpg,stimuli/objects/101b.jpg,stimuli/objects/039a.jpg,dist1,lure,dist2,target,0,0,0,0,,,,,0,23,23,12,,,,,,,,,,,,,,,,,,,463.9618335827254,None,,,,,,,,,,,,,462.83530521858484,None,462.83530521858484,None,462.83530521858484,None,462.83530521858484,None,right,462.83530521858484,None,462.83530521858484,None,None,None,None,None,None,None,None,None,None,None,None,1.0924398652277887,,,,,,,,,,pilot1,2022_Jun_16_0904,Hippopolis_Learning,2021.1.4,59.994887530604224,
Hippopolis,stimuli/subj_files/pilot1_cityA.csv,./stimuli/frankfurt.jpg,./stimuli/street_plate1.png,MOTOR UTCA,stimuli/objects/111a.jpg,object,1,stimuli/objects/100a.jpg,stimuli/objects/055a.jpg,stimuli/objects/100b.jpg,stimuli/objects/100a.jpg,stimuli/objects/055b.jpg,dist1,lure,target,dist2,0,0,0,0,,,,,0,24,24,55,,,,,,,,,,,,,,,,,,,466.24501720815897,None,,,,,,,,,,,,,464.99159100372344,None,464.99159100372344,None,464.99159100372344,None,464.99159100372344,None,left,464.99159100372344,None,464.99159100372344,None,None,None,None,None,None,None,None,None,None,None,None,1.2081315158866346,,,,,,,,,,pilot1,2022_Jun_16_0904,Hippopolis_Learning,2021.1.4,59.994887530604224,
Hippopolis,stimuli/subj_files/pilot1_cityA.csv,./stimuli/frankfurt.jpg,./stimuli/street_plate1.png,ÁLOM UTCA,stimuli/scenes/031a.jpg,scene,1,stimuli/scenes/114a.jpg,stimuli/scenes/114b.jpg,stimuli/scenes/080b.jpg,stimuli/scenes/114a.jpg,stimuli/scenes/080a.jpg,lure,dist2,target,dist1,0,0,0,0,,,,,0,25,25,15,,,,,,,,,,,,,,,,,,,470.36316736554727,None,,,,,,,,,,,,,467.2754137474112,None,467.2754137474112,None,467.2754137474112,None,467.2754137474112,None,left,467.2754137474112,None,467.2754137474112,None,None,None,None,None,None,None,None,None,None,None,None,3.02017717435956,,,,,,,,,,pilot1,2022_Jun_16_0904,Hippopolis_Learning,2021.1.4,59.994887530604224,
Hippopolis,stimuli/subj_files/pilot1_cityA.csv,./stimuli/frankfurt.jpg,./stimuli/street_plate1.png,PÉKSÉG UTCA,stimuli/objects/030a.jpg,object,0,stimuli/objects/030a.jpg,stimuli/objects/030a.jpg,stimuli/objects/073a.jpg,stimuli/objects/030b.jpg,stimuli/objects/073b.jpg,target,dist1,lure,dist2,0,0,0,0,,,,,0,26,26,48,,,,,,,,,,,,,,,,,,,473.45047562243417,None,,,,,,,,,,,,,471.3860381678678,None,471.3860381678678,None,471.3860381678678,None,471.3860381678678,None,left,471.3860381678678,None,471.3860381678678,None,None,None,None,None,None,None,None,None,None,None,None,2.0139890764839947,,,,,,,,,,pilot1,2022_Jun_16_0904,Hippopolis_Learning,2021.1.4,59.994887530604224,
Hippopolis,stimuli/subj_files/pilot1_cityA.csv,./stimuli/frankfurt.jpg,./stimuli/street_plate1.png,KULLANCS UTCA,stimuli/scenes/111a.jpg,scene,1,stimuli/scenes/084a.jpg,stimuli/scenes/084b.jpg,stimuli/scenes/084a.jpg,stimuli/objects/054a.jpg,stimuli/objects/054b.jpg,lure,target,dist1,dist2,0,0,0,0,,,,,0,27,27,68,,,,,,,,,,,,,,,,,,,478.25031022913754,None,,,,,,,,,,,,,474.48104041675106,None,474.48104041675106,None,474.48104041675106,None,474.48104041675106,None,left,474.48104041675106,None,474.48104041675106,None,None,None,None,None,None,None,None,None,None,None,None,3.7185965762473643,,,,,,,,,,pilot1,2022_Jun_16_0904,Hippopolis_Learning,2021.1.4,59.994887530604224,
Hippopolis,stimuli/subj_files/pilot1_cityA.csv,./stimuli/frankfurt.jpg,./stimuli/street_plate1.png,TEHÉN UTCA,stimuli/objects/006a.jpg,object,1,stimuli/objects/017a.jpg,stimuli/objects/017a.jpg,stimuli/objects/017b.jpg,stimuli/scenes/113b.jpg,stimuli/scenes/113a.jpg,target,lure,dist2,dist1,0,0,0,0,,,,,0,28,28,28,,,,,,,,,,,,,,,,,,,482.58378952834755,None,,,,,,,,,,,,,479.27256492711604,None,479.27256492711604,None,479.27256492711604,None,479.27256492711604,None,left,479.27256492711604,None,479.27256492711604,None,None,None,None,None,None,None,None,None,None,None,None,3.2471833690069616,,,,,,,,,,pilot1,2022_Jun_16_0904,Hippopolis_Learning,2021.1.4,59.994887530604224,
Hippopolis,stimuli/subj_files/pilot1_cityA.csv,./stimuli/frankfurt.jpg,./stimuli/street_plate1.png,RIBIZLI UTCA,stimuli/scenes/017a.jpg,scene,0,stimuli/scenes/017a.jpg,stimuli/scenes/068b.jpg,stimuli/scenes/017a.jpg,stimuli/scenes/068a.jpg,stimuli/scenes/017b.jpg,dist2,target,dist1,lure,0,0,0,0,,,,,0,29,29,37,,,,,,,,,,,,,,,,,,,485.6597762121819,None,,,,,,,,,,,,,483.6009847712703,None,483.6009847712703,None,483.6009847712703,None,483.6009847712703,None,left,483.6009847712703,None,483.6009847712703,None,None,None,None,None,None,None,None,None,None,None,None,2.0065787225030363,,,,,,,,,,pilot1,2022_Jun_16_0904,Hippopolis_Learning,2021.1.4,59.994887530604224,
Hippopolis,stimuli/subj_files/pilot1_cityA.csv,./stimuli/frankfurt.jpg,./stimuli/street_plate1.png,KERET UTCA,stimuli/objects/046a.jpg,object,0,stimuli/objects/046a.jpg,stimuli/objects/046b.jpg,stimuli/scenes/022b.jpg,stimuli/scenes/022a.jpg,stimuli/objects/046a.jpg,lure,dist2,dist1,target,0,0,0,0,,,,,0,30,30,29,,,,,,,,,,,,,,,,,,,488.5409723185003,None,,,,,,,,,,,,,486.6872306293808,None,486.6872306293808,None,486.6872306293808,None,486.6872306293808,None,left,486.6872306293808,None,486.6872306293808,None,None,None,None,None,None,None,None,None,None,None,None,1.8002563314512372,,,,,,,,,,pilot1,2022_Jun_16_0904,Hippopolis_Learning,2021.1.4,59.994887530604224,
Hippopolis,stimuli/subj_files/pilot1_cityA.csv,./stimuli/frankfurt.jpg,./stimuli/street_plate1.png,KIRAKÓ UTCA,stimuli/scenes/021a.jpg,scene,1,stimuli/scenes/020a.jpg,stimuli/objects/022b.jpg,stimuli/objects/022a.jpg,stimuli/scenes/020a.jpg,stimuli/scenes/020b.jpg,dist2,dist1,target,lure,0,0,0,0,,,,,0,31,31,59,,,,,,,,,,,,,,,,,,,493.56763895601034,None,,,,,,,,,,,,,489.5762093644589,None,489.5762093644589,None,489.5762093644589,None,489.5762093644589,None,None,489.5762093644589,None,489.5762093644589,None,None,None,None,None,None,None,None,None,None,None,None,,,,,,,,,,,pilot1,2022_Jun_16_0904,Hippopolis_Learning,2021.1.4,59.994887530604224,
Hippopolis,stimuli/subj_files/pilot1_cityA.csv,./stimuli/frankfurt.jpg,./stimuli/street_plate1.png,BÚJÓCSKA UTCA,stimuli/objects/025a.jpg,object,2,stimuli/scenes/001a.jpg,stimuli/scenes/096b.jpg,stimuli/scenes/001a.jpg,stimuli/scenes/096a.jpg,stimuli/scenes/001b.jpg,dist2,target,dist1,lure,0,0,0,0,,,,,0,32,32,7,,,,,,,,,,,,,,,,,,,498.00082136830315,None,,,,,,,,,,,,,494.5950324162841,None,494.5950324162841,None,494.5950324162841,None,494.5950324162841,None,right,494.5950324162841,None,494.5950324162841,None,None,None,None,None,None,None,None,None,None,None,None,3.364308448974043,,,,,,,,,,pilot1,2022_Jun_16_0904,Hippopolis_Learning,2021.1.4,59.994887530604224,
Hippopolis,stimuli/subj_files/pilot1_cityA.csv,./stimuli/frankfurt.jpg,./stimuli/street_plate1.png,KULACS UTCA,stimuli/objects/045a.jpg,object,1,stimuli/objects/073a.jpg,stimuli/objects/073a.jpg,stimuli/objects/073b.jpg,stimuli/scenes/002a.jpg,stimuli/scenes/002b.jpg,target,lure,dist1,dist2,0,0,0,0,,,,,0,33,33,51,,,,,,,,,,,,,,,,,,,501.69748576078564,None,,,,,,,,,,,,,499.0202409303747,None,499.0202409303747,None,499.0202409303747,None,499.0202409303747,None,left,499.0202409303747,None,499.0202409303747,None,None,None,None,None,None,None,None,None,None,None,None,2.6031960281543434,,,,,,,,,,pilot1,2022_Jun_16_0904,Hippopolis_Learning,2021.1.4,59.994887530604224,
Hippopolis,stimuli/subj_files/pilot1_cityA.csv,./stimuli/frankfurt.jpg,./stimuli/street_plate1.png,VÁSÁR UTCA,stimuli/objects/060a.jpg,object,1,stimuli/objects/076a.jpg,stimuli/objects/076b.jpg,stimuli/objects/076a.jpg,stimuli/objects/080b.jpg,stimuli/objects/080a.jpg,lure,target,dist2,dist1,0,0,0,0,,,,,0,34,34,40,,,,,,,,,,,,,,,,,,,505.4684421615675,None,,,,,,,,,,,,,502.72151755029336,None,502.72151755029336,None,502.72151755029336,None,502.72151755029336,None,left,502.72151755029336,None,502.72151755029336,None,None,None,None,None,None,None,None,None,None,None,None,2.677713517099619,,,,,,,,,,pilot1,2022_Jun_16_0904,Hippopolis_Learning,2021.1.4,59.994887530604224,
Hippopolis,stimuli/subj_files/pilot1_cityA.csv,./stimuli/frankfurt.jpg,./stimuli/street_plate1.png,TÁBLA UTCA,stimuli/objects/118a.jpg,object,1,stimuli/objects/042a.jpg,stimuli/scenes/084a.jpg,stimuli/scenes/084b.jpg,stimuli/objects/042a.jpg,stimuli/objects/042b.jpg,dist1,dist2,target,lure,0,0,0,0,,,,,0,35,35,78,,,,,,,,,,,,,,,,,,,509.63750409753993,None,,,,,,,,,,,,,506.486782531254,None,506.486782531254,None,506.486782531254,None,506.486782531254,None,left,506.486782531254,None,506.486782531254,None,None,None,None,None,None,None,None,None,None,None,None,3.0887821167707443,,,,,,,,,,pilot1,2022_Jun_16_0904,Hippopolis_Learning,2021.1.4,59.994887530604224,
Hippopolis,stimuli/subj_files/pilot1_cityA.csv,./stimuli/frankfurt.jpg,./stimuli/street_plate1.png,TENISZ UTCA,stimuli/objects/089a.jpg,object,2,stimuli/scenes/120a.jpg,stimuli/objects/040a.jpg,stimuli/objects/040b.jpg,stimuli/scenes/120b.jpg,stimuli/scenes/120a.jpg,dist1,dist2,lure,target,0,0,0,0,,,,,0,36,36,0,,,,,,,,,,,,,,,,,,,511.8801704067737,None,,,,,,,,,,,,,510.6546620200388,None,510.6546620200388,None,510.6546620200388,None,510.6546620200388,None,right,510.6546620200388,None,510.6546620200388,None,None,None,None,None,None,None,None,None,None,None,None,1.1766405440866947,,,,,,,,,,pilot1,2022_Jun_16_0904,Hippopolis_Learning,2021.1.4,59.994887530604224,
Hippopolis,stimuli/subj_files/pilot1_cityA.csv,./stimuli/frankfurt.jpg,./stimuli/street_plate1.png,DARU UTCA,stimuli/scenes/035a.jpg,scene,1,stimuli/scenes/080a.jpg,stimuli/scenes/080b.jpg,stimuli/objects/010b.jpg,stimuli/objects/010a.jpg,stimuli/scenes/080a.jpg,lure,dist2,dist1,target,0,0,0,0,,,,,0,37,37,41,,,,,,,,,,,,,,,,,,,514.3078909213655,None,,,,,,,,,,,,,512.9074540813453,None,512.9074540813453,None,512.9074540813453,None,512.9074540813453,None,left,512.9074540813453,None,512.9074540813453,None,None,None,None,None,None,None,None,None,None,None,None,1.339607683941722,,,,,,,,,,pilot1,2022_Jun_16_0904,Hippopolis_Learning,2021.1.4,59.994887530604224,
Hippopolis,stimuli/subj_files/pilot1_cityA.csv,./stimuli/frankfurt.jpg,./stimuli/street_plate1.png,KÖNYVTÁR UTCA,stimuli/objects/070a.jpg,object,0,stimuli/objects/070a.jpg,stimuli/objects/070a.jpg,stimuli/scenes/100b.jpg,stimuli/scenes/100a.jpg,stimuli/objects/070b.jpg,target,dist2,dist1,lure,0,0,0,0,,,,,0,38,38,79,,,,,,,,,,,,,,,,,,,519.3434392851777,None,,,,,,,,,,,,,515.342179086525,None,515.342179086525,None,515.342179086525,None,515.342179086525,None,None,515.342179086525,None,515.342179086525,None,None,None,None,None,None,None,None,None,None,None,None,,,,,,,,,,,pilot1,2022_Jun_16_0904,Hippopolis_Learning,2021.1.4,59.994887530604224,
Hippopolis,stimuli/subj_files/pilot1_cityA.csv,./stimuli/frankfurt.jpg,./stimuli/street_plate1.png,SZERSZÁM UTCA,stimuli/objects/037a.jpg,object,0,stimuli/objects/037a.jpg,stimuli/objects/037a.jpg,stimuli/scenes/097b.jpg,stimuli/scenes/097a.jpg,stimuli/objects/037b.jpg,target,dist2,dist1,lure,0,0,0,0,,,,,0,39,39,19,,,,,,,,,,,,,,,,,,,523.6825167024508,None,,,,,,,,,,,,,520.3788694660179,None,520.3788694660179,None,520.3788694660179,None,520.3788694660179,None,left,520.3788694660179,None,520.3788694660179,None,None,None,None,None,None,None,None,None,None,None,None,3.244328328408301,,,,,,,,,,pilot1,2022_Jun_16_0904,Hippopolis_Learning,2021.1.4,59.994887530604224,
Hippopolis,stimuli/subj_files/pilot1_cityA.csv,./stimuli/frankfurt.jpg,./stimuli/street_plate1.png,KAKAS UTCA,stimuli/scenes/057a.jpg,scene,1,stimuli/scenes/076a.jpg,stimuli/scenes/076b.jpg,stimuli/objects/014b.jpg,stimuli/objects/014a.jpg,stimuli/scenes/076a.jpg,lure,dist2,dist1,target,0,0,0,0,,,,,0,40,40,18,,,,,,,,,,,,,,,,,,,526.2874058503658,None,,,,,,,,,,,,,524.7144091837108,None,524.7144091837108,None,524.7144091837108,None,524.7144091837108,None,left,524.7144091837108,None,524.7144091837108,None,None,None,None,None,None,None,None,None,None,None,None,1.5326622226275504,,,,,,,,,,pilot1,2022_Jun_16_0904,Hippopolis_Learning,2021.1.4,59.994887530604224,
Hippopolis,stimuli/subj_files/pilot1_cityA.csv,./stimuli/frankfurt.jpg,./stimuli/street_plate1.png,KECSKE UTCA,stimuli/objects/011a.jpg,object,1,stimuli/objects/086a.jpg,stimuli/objects/086b.jpg,stimuli/objects/066a.jpg,stimuli/objects/086a.jpg,stimuli/objects/066b.jpg,lure,dist1,target,dist2,0,0,0,0,,,,,0,41,41,64,,,,,,,,,,,,,,,,,,,531.0810722634196,None,,,,,,,,,,,,,527.3237435487099,None,527.3237435487099,None,527.3237435487099,None,527.3237435487099,None,left,527.3237435487099,None,527.3237435487099,None,None,None,None,None,None,None,None,None,None,None,None,3.7071384717710316,,,,,,,,,,pilot1,2022_Jun_16_0904,Hippopolis_Learning,2021.1.4,59.994887530604224,
Hippopolis,stimuli/subj_files/pilot1_cityA.csv,./stimuli/frankfurt.jpg,./stimuli/street_plate1.png,TORONY UTCA,stimuli/scenes/059a.jpg,scene,2,stimuli/objects/120a.jpg,stimuli/scenes/104b.jpg,stimuli/objects/120b.jpg,stimuli/scenes/104a.jpg,stimuli/objects/120a.jpg,dist2,lure,dist1,target,0,0,0,0,,,,,0,42,42,6,,,,,,,,,,,,,,,,,,,534.1262095822021,None,,,,,,,,,,,,,532.106201284565,None,532.106201284565,None,532.106201284565,None,532.106201284565,None,left,532.106201284565,None,532.106201284565,None,None,None,None,None,None,None,None,None,None,None,None,1.9647184796631336,,,,,,,,,,pilot1,2022_Jun_16_0904,Hippopolis_Learning,2021.1.4,59.994887530604224,
Hippopolis,stimuli/subj_files/pilot1_cityA.csv,./stimuli/frankfurt.jpg,./stimuli/street_plate1.png,EGÉR UTCA,stimuli/objects/013a.jpg,object,1,stimuli/objects/080a.jpg,stimuli/scenes/070a.jpg,stimuli/objects/080a.jpg,stimuli/objects/080b.jpg,stimuli/scenes/070b.jpg,dist1,target,lure,dist2,0,0,0,0,,,,,0,43,43,34,,,,,,,,,,,,,,,,,,,536.2515290640295,None,,,,,,,,,,,,,535.1612233258784,None,535.1612233258784,None,535.1612233258784,None,535.1612233258784,None,left,535.1612233258784,None,535.1612233258784,None,None,None,None,None,None,None,None,None,None,None,None,1.0536965308710933,,,,,,,,,,pilot1,2022_Jun_16_0904,Hippopolis_Learning,2021.1.4,59.994887530604224,
Hippopolis,stimuli/subj_files/pilot1_cityA.csv,./stimuli/frankfurt.jpg,./stimuli/street_plate1.png,LOVAGLÁS UTCA,stimuli/objects/110a.jpg,object,1,stimuli/objects/010a.jpg,stimuli/objects/010b.jpg,stimuli/scenes/007a.jpg,stimuli/objects/010a.jpg,stimuli/scenes/007b.jpg,lure,dist1,target,dist2,0,0,0,0,,,,,0,44,44,22,,,,,,,,,,,,,,,,,,,539.1036550737917,None,,,,,,,,,,,,,537.2652967032045,None,537.2652967032045,None,537.2652967032045,None,537.2652967032045,None,left,537.2652967032045,None,537.2652967032045,None,None,None,None,None,None,None,None,None,None,None,None,1.7822073753923178,,,,,,,,,,pilot1,2022_Jun_16_0904,Hippopolis_Learning,2021.1.4,59.994887530604224,
Hippopolis,stimuli/subj_files/pilot1_cityA.csv,./stimuli/frankfurt.jpg,./stimuli/street_plate1.png,BICIKLI UTCA,stimuli/objects/027a.jpg,object,2,stimuli/scenes/026a.jpg,stimuli/scenes/029b.jpg,stimuli/scenes/026b.jpg,stimuli/scenes/029a.jpg,stimuli/scenes/026a.jpg,dist2,lure,dist1,target,0,0,0,0,,,,,0,45,45,47,,,,,,,,,,,,,,,,,,,543.5769856371917,None,,,,,,,,,,,,,540.1385913765989,None,540.1385913765989,None,540.1385913765989,None,540.1385913765989,None,left,540.1385913765989,None,540.1385913765989,None,None,None,None,None,None,None,None,None,None,None,None,3.3886913652531803,,,,,,,,,,pilot1,2022_Jun_16_0904,Hippopolis_Learning,2021.1.4,59.994887530604224,
Hippopolis,stimuli/subj_files/pilot1_cityA.csv,./stimuli/frankfurt.jpg,./stimuli/street_plate1.png,FIÓK UTCA,stimuli/objects/012a.jpg,object,0,stimuli/objects/012a.jpg,stimuli/objects/012a.jpg,stimuli/objects/024b.jpg,stimuli/objects/012b.jpg,stimuli/objects/024a.jpg,target,dist2,lure,dist1,0,0,0,0,,,,,0,46,46,31,,,,,,,,,,,,,,,,,,,548.6254616114311,None,,,,,,,,,,,,,544.6098839137703,None,544.6098839137703,None,544.6098839137703,None,544.6098839137703,None,None,544.6098839137703,None,544.6098839137703,None,None,None,None,None,None,None,None,None,None,None,None,,,,,,,,,,,pilot1,2022_Jun_16_0904,Hippopolis_Learning,2021.1.4,59.994887530604224,
Hippopolis,stimuli/subj_files/pilot1_cityA.csv,./stimuli/frankfurt.jpg,./stimuli/street_plate1.png,NARANCS UTCA,stimuli/scenes/103a.jpg,scene,2,stimuli/objects/097a.jpg,stimuli/objects/097b.jpg,stimuli/objects/046a.jpg,stimuli/objects/046b.jpg,stimuli/objects/097a.jpg,lure,dist1,dist2,target,0,0,0,0,,,,,0,47,47,13,,,,,,,,,,,,,,,,,,,553.6781265335158,None,,,,,,,,,,,,,549.6588945086114,None,549.6588945086114,None,549.6588945086114,None,549.6588945086114,None,None,549.6588945086114,None,549.6588945086114,None,None,None,None,None,None,None,None,None,None,None,None,,,,,,,,,,,pilot1,2022_Jun_16_0904,Hippopolis_Learning,2021.1.4,59.994887530604224,
Hippopolis,stimuli/subj_files/pilot1_cityA.csv,./stimuli/frankfurt.jpg,./stimuli/street_plate1.png,POHÁR UTCA,stimuli/scenes/062a.jpg,scene,1,stimuli/scenes/064a.jpg,stimuli/scenes/064a.jpg,stimuli/scenes/006b.jpg,stimuli/scenes/006a.jpg,stimuli/scenes/064b.jpg,target,dist2,dist1,lure,0,0,0,0,,,,,0,48,48,38,,,,,,,,,,,,,,,,,,,555.9281988427974,None,,,,,,,,,,,,,554.6989810802042,None,554.6989810802042,None,554.6989810802042,None,554.6989810802042,None,left,554.6989810802042,None,554.6989810802042,None,None,None,None,None,None,None,None,None,None,None,None,1.1797338156029582,,,,,,,,,,pilot1,2022_Jun_16_0904,Hippopolis_Learning,2021.1.4,59.994887530604224,
Hippopolis,stimuli/subj_files/pilot1_cityA.csv,./stimuli/frankfurt.jpg,./stimuli/street_plate1.png,VITORLA UTCA,stimuli/scenes/086a.jpg,scene,2,stimuli/objects/015a.jpg,stimuli/objects/015b.jpg,stimuli/objects/115a.jpg,stimuli/objects/015a.jpg,stimuli/objects/115b.jpg,lure,dist1,target,dist2,0,0,0,0,,,,,0,49,49,77,,,,,,,,,,,,,,,,,,,558.2681744471192,None,,,,,,,,,,,,,556.950180476997,None,556.950180476997,None,556.950180476997,None,556.950180476997,None,left,556.950180476997,None,556.950180476997,None,None,None,None,None,None,None,None,None,None,None,None,1.2804856430739164,,,,,,,,,,pilot1,2022_Jun_16_0904,Hippopolis_Learning,2021.1.4,59.994887530604224,
Hippopolis,stimuli/subj_files/pilot1_cityA.csv,./stimuli/frankfurt.jpg,./stimuli/street_plate1.png,PAPAGÁJ UTCA,stimuli/scenes/023a.jpg,scene,1,stimuli/scenes/113a.jpg,stimuli/objects/070b.jpg,stimuli/scenes/113b.jpg,stimuli/objects/070a.jpg,stimuli/scenes/113a.jpg,dist2,lure,dist1,target,0,0,0,0,,,,,0,50,50,53,,,,,,,,,,,,,,,,,,,560.4839564142749,None,,,,,,,,,,,,,559.299556566868,None,559.299556566868,None,559.299556566868,None,559.299556566868,None,right,559.299556566868,None,559.299556566868,None,None,None,None,None,None,None,None,None,None,None,None,1.1231722920201719,,,,,,,,,,pilot1,2022_Jun_16_0904,Hippopolis_Learning,2021.1.4,59.994887530604224,
Hippopolis,stimuli/subj_files/pilot1_cityA.csv,./stimuli/frankfurt.jpg,./stimuli/street_plate1.png,MENTA UTCA,stimuli/objects/088a.jpg,object,1,stimuli/objects/054a.jpg,stimuli/scenes/088b.jpg,stimuli/scenes/088a.jpg,stimuli/objects/054b.jpg,stimuli/objects/054a.jpg,dist2,dist1,lure,target,0,0,0,0,,,,,0,51,51,26,,,,,,,,,,,,,,,,,,,563.6357061685994,None,,,,,,,,,,,,,561.5028323368169,None,561.5028323368169,None,561.5028323368169,None,561.5028323368169,None,right,561.5028323368169,None,561.5028323368169,None,None,None,None,None,None,None,None,None,None,None,None,2.0877943597733974,,,,,,,,,,pilot1,2022_Jun_16_0904,Hippopolis_Learning,2021.1.4,59.994887530604224,
Hippopolis,stimuli/subj_files/pilot1_cityA.csv,./stimuli/frankfurt.jpg,./stimuli/street_plate1.png,MUNKA UTCA,stimuli/objects/061a.jpg,object,2,stimuli/scenes/077a.jpg,stimuli/scenes/020a.jpg,stimuli/scenes/020b.jpg,stimuli/scenes/077b.jpg,stimuli/scenes/077a.jpg,dist1,dist2,lure,target,0,0,0,0,,,,,0,52,52,25,,,,,,,,,,,,,,,,,,,565.6389219765551,None,,,,,,,,,,,,,564.6543146255426,None,564.6543146255426,None,564.6543146255426,None,564.6543146255426,None,left,564.6543146255426,None,564.6543146255426,None,None,None,None,None,None,None,None,None,None,None,None,0.9522660872898996,,,,,,,,,,pilot1,2022_Jun_16_0904,Hippopolis_Learning,2021.1.4,59.994887530604224,
Hippopolis,stimuli/subj_files/pilot1_cityA.csv,./stimuli/frankfurt.jpg,./stimuli/street_plate1.png,KIFLI UTCA,stimuli/scenes/006a.jpg,scene,0,stimuli/scenes/006a.jpg,stimuli/scenes/006a.jpg,stimuli/scenes/006b.jpg,stimuli/scenes/014b.jpg,stimuli/scenes/014a.jpg,target,lure,dist2,dist1,0,0,0,0,,,,,0,53,53,62,,,,,,,,,,,,,,,,,,,570.1811759532429,None,,,,,,,,,,,,,566.6617619893514,None,566.6617619893514,None,566.6617619893514,None,566.6617619893514,None,right,566.6617619893514,None,566.6617619893514,None,None,None,None,None,None,None,None,None,None,None,None,3.456705706194043,,,,,,,,,,pilot1,2022_Jun_16_0904,Hippopolis_Learning,2021.1.4,59.994887530604224,
Hippopolis,stimuli/subj_files/pilot1_cityA.csv,./stimuli/frankfurt.jpg,./stimuli/street_plate1.png,DOBOZ UTCA,stimuli/scenes/030a.jpg,scene,1,stimuli/scenes/060a.jpg,stimuli/scenes/051a.jpg,stimuli/scenes/060b.jpg,stimuli/scenes/060a.jpg,stimuli/scenes/051b.jpg,dist1,lure,target,dist2,0,0,0,0,,,,,0,54,54,21,,,,,,,,,,,,,,,,,,,573.0329268891364,None,,,,,,,,,,,,,571.1999318273738,None,571.1999318273738,None,571.1999318273738,None,571.1999318273738,None,right,571.1999318273738,None,571.1999318273738,None,None,None,None,None,None,None,None,None,None,None,None,1.7826101290993392,,,,,,,,,,pilot1,2022_Jun_16_0904,Hippopolis_Learning,2021.1.4,59.994887530604224,
Hippopolis,stimuli/subj_files/pilot1_cityA.csv,./stimuli/frankfurt.jpg,./stimuli/street_plate1.png,KOKTÉL UTCA,stimuli/scenes/106a.jpg,scene,1,stimuli/scenes/096a.jpg,stimuli/scenes/096a.jpg,stimuli/scenes/096b.jpg,stimuli/objects/042a.jpg,stimuli/objects/042b.jpg,target,lure,dist1,dist2,0,0,0,0,,,,,0,55,55,44,,,,,,,,,,,,,,,,,,,575.8806247874163,None,,,,,,,,,,,,,574.0526692760177,None,574.0526692760177,None,574.0526692760177,None,574.0526692760177,None,left,574.0526692760177,None,574.0526692760177,None,None,None,None,None,None,None,None,None,None,None,None,1.7779269916936755,,,,,,,,,,pilot1,2022_Jun_16_0904,Hippopolis_Learning,2021.1.4,59.994887530604224,
Hippopolis,stimuli/subj_files/pilot1_cityA.csv,./stimuli/frankfurt.jpg,./stimuli/street_plate1.png,TOLLTARTÓ UTCA,stimuli/objects/117a.jpg,object,2,stimuli/scenes/045a.jpg,stimuli/scenes/045b.jpg,stimuli/scenes/120b.jpg,stimuli/scenes/045a.jpg,stimuli/scenes/120a.jpg,lure,dist2,target,dist1,0,0,0,0,,,,,0,56,56,58,,,,,,,,,,,,,,,,,,,580.0331234452315,None,,,,,,,,,,,,,576.8995927679352,None,576.8995927679352,None,576.8995927679352,None,576.8995927679352,None,left,576.8995927679352,None,576.8995927679352,None,None,None,None,None,None,None,None,None,None,None,None,3.0910412687808275,,,,,,,,,,pilot1,2022_Jun_16_0904,Hippopolis_Learning,2021.1.4,59.994887530604224,
Hippopolis,stimuli/subj_files/pilot1_cityA.csv,./stimuli/frankfurt.jpg,./stimuli/street_plate1.png,FÜGE UTCA,stimuli/objects/109a.jpg,object,2,stimuli/scenes/104a.jpg,stimuli/scenes/104b.jpg,stimuli/objects/030b.jpg,stimuli/scenes/104a.jpg,stimuli/objects/030a.jpg,lure,dist2,target,dist1,0,0,0,0,,,,,0,57,57,9,,,,,,,,,,,,,,,,,,,583.2716014287435,None,,,,,,,,,,,,,581.053995097056,None,581.053995097056,None,581.053995097056,None,581.053995097056,None,left,581.053995097056,None,581.053995097056,None,None,None,None,None,None,None,None,None,None,None,None,2.168440855573863,,,,,,,,,,pilot1,2022_Jun_16_0904,Hippopolis_Learning,2021.1.4,59.994887530604224,
Hippopolis,stimuli/subj_files/pilot1_cityA.csv,./stimuli/frankfurt.jpg,./stimuli/street_plate1.png,LEPKE UTCA,stimuli/scenes/046a.jpg,scene,0,stimuli/scenes/046a.jpg,stimuli/scenes/094a.jpg,stimuli/scenes/046a.jpg,stimuli/scenes/046b.jpg,stimuli/scenes/094b.jpg,dist1,target,lure,dist2,0,0,0,0,,,,,0,58,58,61,,,,,,,,,,,,,,,,,,,587.0387231190689,None,,,,,,,,,,,,,584.2893325365148,None,584.2893325365148,None,584.2893325365148,None,584.2893325365148,None,left,584.2893325365148,None,584.2893325365148,None,None,None,None,None,None,None,None,None,None,None,None,2.709044009447098,,,,,,,,,,pilot1,2022_Jun_16_0904,Hippopolis_Learning,2021.1.4,59.994887530604224,
Hippopolis,stimuli/subj_files/pilot1_cityA.csv,./stimuli/frankfurt.jpg,./stimuli/street_plate1.png,KENYÉR UTCA,stimuli/scenes/071a.jpg,scene,2,stimuli/objects/055a.jpg,stimuli/objects/033b.jpg,stimuli/objects/055a.jpg,stimuli/objects/055b.jpg,stimuli/objects/033a.jpg,dist2,target,lure,dist1,0,0,0,0,,,,,0,59,59,17,,,,,,,,,,,,,,,,,,,590.6868885220028,None,,,,,,,,,,,,,588.0714823757298,None,588.0714823757298,None,588.0714823757298,None,588.0714823757298,None,left,588.0714823757298,None,588.0714823757298,None,None,None,None,None,None,None,None,None,None,None,None,2.5749460561200976,,,,,,,,,,pilot1,2022_Jun_16_0904,Hippopolis_Learning,2021.1.4,59.994887530604224,
Hippopolis,stimuli/subj_files/pilot1_cityA.csv,./stimuli/frankfurt.jpg,./stimuli/street_plate1.png,FÜZET UTCA,stimuli/scenes/008a.jpg,scene,2,stimuli/objects/024a.jpg,stimuli/objects/024b.jpg,stimuli/scenes/117a.jpg,stimuli/objects/024a.jpg,stimuli/scenes/117b.jpg,lure,dist1,target,dist2,0,0,0,0,,,,,0,60,60,69,,,,,,,,,,,,,,,,,,,595.5811730297282,None,,,,,,,,,,,,,591.7105707405135,None,591.7105707405135,None,591.7105707405135,None,591.7105707405135,None,left,591.7105707405135,None,591.7105707405135,None,None,None,None,None,None,None,None,None,None,None,None,3.83192022331059,,,,,,,,,,pilot1,2022_Jun_16_0904,Hippopolis_Learning,2021.1.4,59.994887530604224,
Hippopolis,stimuli/subj_files/pilot1_cityA.csv,./stimuli/frankfurt.jpg,./stimuli/street_plate1.png,TELEFON UTCA,stimuli/objects/102a.jpg,object,2,stimuli/scenes/004a.jpg,stimuli/objects/057a.jpg,stimuli/scenes/004b.jpg,stimuli/scenes/004a.jpg,stimuli/objects/057b.jpg,dist1,lure,target,dist2,0,0,0,0,,,,,0,61,61,66,,,,,,,,,,,,,,,,,,,597.8781218063086,None,,,,,,,,,,,,,596.6111490884796,None,596.6111490884796,None,596.6111490884796,None,596.6111490884796,None,left,596.6111490884796,None,596.6111490884796,None,None,None,None,None,None,None,None,None,None,None,None,1.2191339959390461,,,,,,,,,,pilot1,2022_Jun_16_0904,Hippopolis_Learning,2021.1.4,59.994887530604224,
Hippopolis,stimuli/subj_files/pilot1_cityA.csv,./stimuli/frankfurt.jpg,./stimuli/street_plate1.png,PETREZSELYEM UTCA,stimuli/objects/090a.jpg,object,1,stimuli/objects/040a.jpg,stimuli/objects/040a.jpg,stimuli/objects/053a.jpg,stimuli/objects/053b.jpg,stimuli/objects/040b.jpg,target,dist1,dist2,lure,0,0,0,0,,,,,0,62,62,16,,,,,,,,,,,,,,,,,,,600.3499604710378,None,,,,,,,,,,,,,598.9045160021633,None,598.9045160021633,None,598.9045160021633,None,598.9045160021633,None,left,598.9045160021633,None,598.9045160021633,None,None,None,None,None,None,None,None,None,None,None,None,1.3902523070573807,,,,,,,,,,pilot1,2022_Jun_16_0904,Hippopolis_Learning,2021.1.4,59.994887530604224,
Hippopolis,stimuli/subj_files/pilot1_cityA.csv,./stimuli/frankfurt.jpg,./stimuli/street_plate1.png,SZIKLA UTCA,stimuli/objects/077a.jpg,object,1,stimuli/objects/072a.jpg,stimuli/scenes/017b.jpg,stimuli/objects/072a.jpg,stimuli/scenes/017a.jpg,stimuli/objects/072b.jpg,dist2,target,dist1,lure,0,0,0,0,,,,,0,63,63,1,,,,,,,,,,,,,,,,,,,605.3875468610786,None,,,,,,,,,,,,,601.3710831054486,None,601.3710831054486,None,601.3710831054486,None,601.3710831054486,None,None,601.3710831054486,None,601.3710831054486,None,None,None,None,None,None,None,None,None,None,None,None,,,,,,,,,,,pilot1,2022_Jun_16_0904,Hippopolis_Learning,2021.1.4,59.994887530604224,
Hippopolis,stimuli/subj_files/pilot1_cityA.csv,./stimuli/frankfurt.jpg,./stimuli/street_plate1.png,MÁLNA UTCA,stimuli/scenes/003a.jpg,scene,2,stimuli/objects/115a.jpg,stimuli/objects/115a.jpg,stimuli/objects/115b.jpg,stimuli/objects/086a.jpg,stimuli/objects/086b.jpg,target,lure,dist1,dist2,0,0,0,0,,,,,0,64,64,45,,,,,,,,,,,,,,,,,,,608.3292996813543,None,,,,,,,,,,,,,606.404349302873,None,606.404349302873,None,606.404349302873,None,606.404349302873,None,left,606.404349302873,None,606.404349302873,None,None,None,None,None,None,None,None,None,None,None,None,1.8736234069801867,,,,,,,,,,pilot1,2022_Jun_16_0904,Hippopolis_Learning,2021.1.4,59.994887530604224,
Hippopolis,stimuli/subj_files/pilot1_cityA.csv,./stimuli/frankfurt.jpg,./stimuli/street_plate1.png,KABÁT UTCA,stimuli/scenes/032a.jpg,scene,1,stimuli/scenes/105a.jpg,stimuli/scenes/105a.jpg,stimuli/scenes/024b.jpg,stimuli/scenes/024a.jpg,stimuli/scenes/105b.jpg,target,dist2,dist1,lure,0,0,0,0,,,,,0,65,65,50,,,,,,,,,,,,,,,,,,,611.7970570069738,None,,,,,,,,,,,,,609.3584347786382,None,609.3584347786382,None,609.3584347786382,None,609.3584347786382,None,right,609.3584347786382,None,609.3584347786382,None,None,None,None,None,None,None,None,None,None,None,None,2.3755699968896806,,,,,,,,,,pilot1,2022_Jun_16_0904,Hippopolis_Learning,2021.1.4,59.994887530604224,
Hippopolis,stimuli/subj_files/pilot1_cityA.csv,./stimuli/frankfurt.jpg,./stimuli/street_plate1.png,MARTINI UTCA,stimuli/scenes/069a.jpg,scene,0,stimuli/scenes/069a.jpg,stimuli/objects/065a.jpg,stimuli/scenes/069b.jpg,stimuli/scenes/069a.jpg,stimuli/objects/065b.jpg,dist1,lure,target,dist2,0,0,0,0,,,,,0,66,66,54,,,,,,,,,,,,,,,,,,,615.4286019071005,None,,,,,,,,,,,,,612.8277374953032,None,612.8277374953032,None,612.8277374953032,None,612.8277374953032,None,left,612.8277374953032,None,612.8277374953032,None,None,None,None,None,None,None,None,None,None,None,None,2.5543428026139736,,,,,,,,,,pilot1,2022_Jun_16_0904,Hippopolis_Learning,2021.1.4,59.994887530604224,
Hippopolis,stimuli/subj_files/pilot1_cityA.csv,./stimuli/frankfurt.jpg,./stimuli/street_plate1.png,KÁRTYA UTCA,stimuli/scenes/079a.jpg,scene,1,stimuli/scenes/094a.jpg,stimuli/scenes/094a.jpg,stimuli/scenes/105a.jpg,stimuli/scenes/105b.jpg,stimuli/scenes/094b.jpg,target,dist1,dist2,lure,0,0,0,0,,,,,0,67,67,30,,,,,,,,,,,,,,,,,,,617.6819998095743,None,,,,,,,,,,,,,616.4542465773411,None,616.4542465773411,None,616.4542465773411,None,616.4542465773411,None,left,616.4542465773411,None,616.4542465773411,None,None,None,None,None,None,None,None,None,None,None,None,1.1837840545922518,,,,,,,,,,pilot1,2022_Jun_16_0904,Hippopolis_Learning,2021.1.4,59.994887530604224,
Hippopolis,stimuli/subj_files/pilot1_cityA.csv,./stimuli/frankfurt.jpg,./stimuli/street_plate1.png,TÉRKÉP UTCA,stimuli/scenes/061a.jpg,scene,2,stimuli/objects/065a.jpg,stimuli/objects/065a.jpg,stimuli/scenes/060b.jpg,stimuli/scenes/060a.jpg,stimuli/objects/065b.jpg,target,dist2,dist1,lure,0,0,0,0,,,,,0,68,68,72,,,,,,,,,,,,,,,,,,,629.5622722264379,None,,,,,,,,,,,,,618.7065422721207,None,618.7065422721207,None,618.7065422721207,None,618.7065422721207,None,right,618.7065422721207,None,618.7065422721207,None,620.2665948448703,None,620.2665948448703,None,620.2665948448703,None,620.2665948448703,None,space,620.2665948448703,None,1.5074573159217834,9.259709158912301,,,,,,,,,pilot1,2022_Jun_16_0904,Hippopolis_Learning,2021.1.4,59.994887530604224,
Hippopolis,stimuli/subj_files/pilot1_cityA.csv,./stimuli/frankfurt.jpg,./stimuli/street_plate1.png,ZSEMLE UTCA,stimuli/objects/035a.jpg,object,2,stimuli/scenes/100a.jpg,stimuli/objects/120a.jpg,stimuli/scenes/100b.jpg,stimuli/objects/120b.jpg,stimuli/scenes/100a.jpg,dist1,lure,dist2,target,0,0,0,0,,,,,0,69,69,27,,,,,,,,,,,,,,,,,,,632.5660108365119,None,,,,,,,,,,,,,630.5896212127991,None,630.5896212127991,None,630.5896212127991,None,630.5896212127991,None,left,630.5896212127991,None,630.5896212127991,None,None,None,None,None,None,None,None,None,None,None,None,1.9282632214017212,,,,,,,,,,pilot1,2022_Jun_16_0904,Hippopolis_Learning,2021.1.4,59.994887530604224,
Hippopolis,stimuli/subj_files/pilot1_cityA.csv,./stimuli/frankfurt.jpg,./stimuli/street_plate1.png,MANDARIN UTCA,stimuli/scenes/047a.jpg,scene,1,stimuli/scenes/024a.jpg,stimuli/scenes/024a.jpg,stimuli/scenes/024b.jpg,stimuli/scenes/069a.jpg,stimuli/scenes/069b.jpg,target,lure,dist1,dist2,0,0,0,0,,,,,0,70,70,60,,,,,,,,,,,,,,,,,,,636.818773352541,None,,,,,,,,,,,,,633.5947382040322,None,633.5947382040322,None,633.5947382040322,None,633.5947382040322,None,left,633.5947382040322,None,633.5947382040322,None,None,None,None,None,None,None,None,None,None,None,None,3.1629696278832853,,,,,,,,,,pilot1,2022_Jun_16_0904,Hippopolis_Learning,2021.1.4,59.994887530604224,
Hippopolis,stimuli/subj_files/pilot1_cityA.csv,./stimuli/frankfurt.jpg,./stimuli/street_plate1.png,SZITAKÖTŐ UTCA,stimuli/objects/064a.jpg,object,0,stimuli/objects/064a.jpg,stimuli/objects/037b.jpg,stimuli/objects/064a.jpg,stimuli/objects/064b.jpg,stimuli/objects/037a.jpg,dist2,target,lure,dist1,0,0,0,0,,,,,0,71,71,3,,,,,,,,,,,,,,,,,,,640.6807430321351,None,,,,,,,,,,,,,637.8523067049682,None,637.8523067049682,None,637.8523067049682,None,637.8523067049682,None,left,637.8523067049682,None,637.8523067049682,None,None,None,None,None,None,None,None,None,None,None,None,2.777837110683322,,,,,,,,,,pilot1,2022_Jun_16_0904,Hippopolis_Learning,2021.1.4,59.994887530604224,
Hippopolis,stimuli/subj_files/pilot1_cityA.csv,./stimuli/frankfurt.jpg,./stimuli/street_plate1.png,KOCKA UTCA,stimuli/scenes/002a.jpg,scene,0,stimuli/scenes/002a.jpg,stimuli/scenes/072a.jpg,stimuli/scenes/002b.jpg,stimuli/scenes/072b.jpg,stimuli/scenes/002a.jpg,dist1,lure,dist2,target,0,0,0,0,,,,,0,72,72,73,,,,,,,,,,,,,,,,,,,644.5055943862535,None,,,,,,,,,,,,,641.6988380174153,None,641.6988380174153,None,641.6988380174153,None,641.6988380174153,None,left,641.6988380174153,None,641.6988380174153,None,None,None,None,None,None,None,None,None,None,None,None,2.7709113052114844,,,,,,,,,,pilot1,2022_Jun_16_0904,Hippopolis_Learning,2021.1.4,59.994887530604224,
Hippopolis,stimuli/subj_files/pilot1_cityA.csv,./stimuli/frankfurt.jpg,./stimuli/street_plate1.png,SIVATAG UTCA,stimuli/scenes/085a.jpg,scene,2,stimuli/objects/038a.jpg,stimuli/objects/012b.jpg,stimuli/objects/038a.jpg,stimuli/objects/038b.jpg,stimuli/objects/012a.jpg,dist2,target,lure,dist1,0,0,0,0,,,,,0,73,73,35,,,,,,,,,,,,,,,,,,,647.3069625664502,None,,,,,,,,,,,,,645.5340014169924,None,645.5340014169924,None,645.5340014169924,None,645.5340014169924,None,right,645.5340014169924,None,645.5340014169924,None,None,None,None,None,None,None,None,None,None,None,None,1.7195861996151507,,,,,,,,,,pilot1,2022_Jun_16_0904,Hippopolis_Learning,2021.1.4,59.994887530604224,
Hippopolis,stimuli/subj_files/pilot1_cityA.csv,./stimuli/frankfurt.jpg,./stimuli/street_plate1.png,EPER UTCA,stimuli/objects/028a.jpg,object,1,stimuli/objects/062a.jpg,stimuli/objects/062a.jpg,stimuli/objects/047b.jpg,stimuli/objects/062b.jpg,stimuli/objects/047a.jpg,target,dist2,lure,dist1,0,0,0,0,,,,,0,74,74,39,,,,,,,,,,,,,,,,,,,652.3082492006943,None,,,,,,,,,,,,,648.3399382838979,None,648.3399382838979,None,648.3399382838979,None,648.3399382838979,None,left,648.3399382838979,None,648.3399382838979,None,None,None,None,None,None,None,None,None,None,None,None,3.9056511763483286,,,,,,,,,,pilot1,2022_Jun_16_0904,Hippopolis_Learning,2021.1.4,59.994887530604224,
Hippopolis,stimuli/subj_files/pilot1_cityA.csv,./stimuli/frankfurt.jpg,./stimuli/street_plate1.png,SÜTEMÉNY UTCA,stimuli/scenes/043a.jpg,scene,2,stimuli/objects/033a.jpg,stimuli/objects/033b.jpg,stimuli/scenes/026a.jpg,stimuli/scenes/026b.jpg,stimuli/objects/033a.jpg,lure,dist1,dist2,target,0,0,0,0,,,,,0,75,75,2,,,,,,,,,,,,,,,,,,,654.749191227369,None,,,,,,,,,,,,,653.3428135397844,None,653.3428135397844,None,653.3428135397844,None,653.3428135397844,None,left,653.3428135397844,None,653.3428135397844,None,None,None,None,None,None,None,None,None,None,None,None,1.3667949461378157,,,,,,,,,,pilot1,2022_Jun_16_0904,Hippopolis_Learning,2021.1.4,59.994887530604224,
Hippopolis,stimuli/subj_files/pilot1_cityA.csv,./stimuli/frankfurt.jpg,./stimuli/street_plate1.png,ASZTAL UTCA,stimuli/objects/016a.jpg,object,0,stimuli/objects/016a.jpg,stimuli/objects/016a.jpg,stimuli/scenes/046b.jpg,stimuli/scenes/046a.jpg,stimuli/objects/016b.jpg,target,dist2,dist1,lure,0,0,0,0,,,,,0,76,76,56,,,,,,,,,,,,,,,,,,,658.137349838391,None,,,,,,,,,,,,,655.7681103800423,None,655.7681103800423,None,655.7681103800423,None,655.7681103800423,None,right,655.7681103800423,None,655.7681103800423,None,None,None,None,None,None,None,None,None,None,None,None,2.3334659258835018,,,,,,,,,,pilot1,2022_Jun_16_0904,Hippopolis_Learning,2021.1.4,59.994887530604224,
