CityName,StimuliFile,CityImage,StreetSign,Cue,Image,Category,Novelty,UpdateImage,TestImage1,TestImage2,TestImage3,TestImage4,TestImage1Type,TestImage2Type,TestImage3Type,TestImage4Type,CityBlock.thisRepN,CityBlock.thisTrialN,CityBlock.thisN,CityBlock.thisIndex,LearningTrials.thisRepN,LearningTrials.thisTrialN,LearningTrials.thisN,LearningTrials.thisIndex,learning_instructions_text.started,intro_key.started,intro_key.keys,intro_key.rt,cityname_text.started,city_image.started,fx_cross.started,test_resp,plate_updating.started,city_text_updating.started,street_text_updating.started,test_image1.started,test_image2.started,test_image3.started,test_image4.started,button_d.started,button_f.started,button_j.started,button_k.started,key_resp.started,key_resp.keys,key_resp.rt,short_break_key.keys,fx_cross.stopped,short_break_text.started,short_break_key.started,short_break_key.rt,n_targets,n_lures,n_dist1s,n_dist2s,break_text.started,break_key_resp.started,break_key_resp.keys,break_key_resp.rt,end_text.started,participant,date,expName,psychopyVersion,frameRate,
,,,,,,,,,,,,,,,,,,,,,,,,,14.894002180546522,14.894002180546522,space,20.115589363500476,,,,,,,,,,,,,,,,,,,,,,,,,,,,,,,,,pilot1,2022-10-14_15h29.51.521,Hippopolis_4AFCT,2022.2.2,60.00903258085784,
Hippopolis,stimuli/subj_files/pilot1_cityA.csv,./stimuli/frankfurt.jpg,./stimuli/street_plate1.png,PADLÓ UTCA,stimuli/objects/053a.jpg,object,0,stimuli/objects/053a.jpg,stimuli/objects/053a.jpg,stimuli/objects/053b.jpg,stimuli/objects/064b.jpg,stimuli/objects/064a.jpg,target,lure,dist2,dist1,0,0,0,0,0,0,0,74,,,,,35.09051374532282,35.09051374532282,38.06661477126181,invalid,39.14559422247112,39.14559422247112,39.14559422247112,39.14559422247112,39.14559422247112,39.14559422247112,39.14559422247112,39.14559422247112,39.14559422247112,39.14559422247112,39.14559422247112,39.14559422247112,d,2.167810758575797,None,,,,,,,,,,,,,,pilot1,2022-10-14_15h29.51.521,Hippopolis_4AFCT,2022.2.2,60.00903258085784,
Hippopolis,stimuli/subj_files/pilot1_cityA.csv,./stimuli/frankfurt.jpg,./stimuli/street_plate1.png,KERET UTCA,stimuli/objects/046a.jpg,object,0,stimuli/objects/046a.jpg,stimuli/objects/046b.jpg,stimuli/scenes/022b.jpg,stimuli/scenes/022a.jpg,stimuli/objects/046a.jpg,lure,dist2,dist1,target,0,0,0,0,0,1,1,29,,,,,,,41.34098336659372,invalid,42.39927529357374,42.39927529357374,42.39927529357374,42.39927529357374,42.39927529357374,42.39927529357374,42.39927529357374,42.39927529357374,42.39927529357374,42.39927529357374,42.39927529357374,42.39927529357374,d,2.4822854921221733,None,,,,,,,,,,,,,,pilot1,2022-10-14_15h29.51.521,Hippopolis_4AFCT,2022.2.2,60.00903258085784,
Hippopolis,stimuli/subj_files/pilot1_cityA.csv,./stimuli/frankfurt.jpg,./stimuli/street_plate1.png,KAKAS UTCA,stimuli/scenes/057a.jpg,scene,1,stimuli/scenes/076a.jpg,stimuli/scenes/076b.jpg,stimuli/objects/014b.jpg,stimuli/objects/014a.jpg,stimuli/scenes/076a.jpg,lure,dist2,dist1,target,0,0,0,0,0,2,2,18,,,,,,,44.90856847539544,invalid,45.98903578147292,45.98903578147292,45.98903578147292,45.98903578147292,45.98903578147292,45.98903578147292,45.98903578147292,45.98903578147292,45.98903578147292,45.98903578147292,45.98903578147292,45.98903578147292,k,2.045866085216403,None,,,,,,,,,,,,,,pilot1,2022-10-14_15h29.51.521,Hippopolis_4AFCT,2022.2.2,60.00903258085784,
Hippopolis,stimuli/subj_files/pilot1_cityA.csv,./stimuli/frankfurt.jpg,./stimuli/street_plate1.png,KULLANCS UTCA,stimuli/scenes/111a.jpg,scene,1,stimuli/scenes/084a.jpg,stimuli/scenes/084b.jpg,stimuli/scenes/084a.jpg,stimuli/objects/054a.jpg,stimuli/objects/054b.jpg,lure,target,dist1,dist2,0,0,0,0,0,3,3,68,,,,,,,48.05639821104705,invalid,49.10029800795019,49.10029800795019,49.10029800795019,49.10029800795019,49.10029800795019,49.10029800795019,49.10029800795019,49.10029800795019,49.10029800795019,49.10029800795019,49.10029800795019,49.10029800795019,f,2.0534055028110743,None,,,,,,,,,,,,,,pilot1,2022-10-14_15h29.51.521,Hippopolis_4AFCT,2022.2.2,60.00903258085784,
Hippopolis,stimuli/subj_files/pilot1_cityA.csv,./stimuli/frankfurt.jpg,./stimuli/street_plate1.png,MUNKA UTCA,stimuli/objects/061a.jpg,object,2,stimuli/scenes/077a.jpg,stimuli/scenes/020a.jpg,stimuli/scenes/020b.jpg,stimuli/scenes/077b.jpg,stimuli/scenes/077a.jpg,dist1,dist2,lure,target,0,0,0,0,0,4,4,25,,,,,,,51.17851145006716,invalid,52.229963725432754,52.229963725432754,52.229963725432754,52.229963725432754,52.229963725432754,52.229963725432754,52.229963725432754,52.229963725432754,52.229963725432754,52.229963725432754,52.229963725432754,52.229963725432754,d,1.7873330023139715,None,,,,,,,,,,,,,,pilot1,2022-10-14_15h29.51.521,Hippopolis_4AFCT,2022.2.2,60.00903258085784,
Hippopolis,stimuli/subj_files/pilot1_cityA.csv,./stimuli/frankfurt.jpg,./stimuli/street_plate1.png,VITORLA UTCA,stimuli/scenes/086a.jpg,scene,2,stimuli/objects/015a.jpg,stimuli/objects/015b.jpg,stimuli/objects/115a.jpg,stimuli/objects/015a.jpg,stimuli/objects/115b.jpg,lure,dist1,target,dist2,0,0,0,0,0,5,5,77,,,,,,,54.04299383610487,invalid,55.12091835215688,55.12091835215688,55.12091835215688,55.12091835215688,55.12091835215688,55.12091835215688,55.12091835215688,55.12091835215688,55.12091835215688,55.12091835215688,55.12091835215688,55.12091835215688,j,2.2888276986777782,None,,,,,,,,,,,,,,pilot1,2022-10-14_15h29.51.521,Hippopolis_4AFCT,2022.2.2,60.00903258085784,
Hippopolis,stimuli/subj_files/pilot1_cityA.csv,./stimuli/frankfurt.jpg,./stimuli/street_plate1.png,ÁLOM UTCA,stimuli/scenes/031a.jpg,scene,1,stimuli/scenes/114a.jpg,stimuli/scenes/114b.jpg,stimuli/scenes/080b.jpg,stimuli/scenes/114a.jpg,stimuli/scenes/080a.jpg,lure,dist2,target,dist1,0,0,0,0,0,6,6,15,,,,,,,57.43418265134096,invalid,58.499942775815725,58.499942775815725,58.499942775815725,58.499942775815725,58.499942775815725,58.499942775815725,58.499942775815725,58.499942775815725,58.499942775815725,58.499942775815725,58.499942775815725,58.499942775815725,j,2.3811396844685078,None,,,,,,,,,,,,,,pilot1,2022-10-14_15h29.51.521,Hippopolis_4AFCT,2022.2.2,60.00903258085784,
Hippopolis,stimuli/subj_files/pilot1_cityA.csv,./stimuli/frankfurt.jpg,./stimuli/street_plate1.png,HARMONIKA UTCA,stimuli/scenes/028a.jpg,scene,2,stimuli/objects/099a.jpg,stimuli/objects/099a.jpg,stimuli/objects/015b.jpg,stimuli/objects/015a.jpg,stimuli/objects/099b.jpg,target,dist2,dist1,lure,0,0,0,0,0,7,7,63,,,,,,,60.9062875546515,invalid,61.976895647123456,61.976895647123456,61.976895647123456,61.976895647123456,61.976895647123456,61.976895647123456,61.976895647123456,61.976895647123456,61.976895647123456,61.976895647123456,61.976895647123456,61.976895647123456,d,2.4722978342324495,None,,,,,,,,,,,,,,pilot1,2022-10-14_15h29.51.521,Hippopolis_4AFCT,2022.2.2,60.00903258085784,
Hippopolis,stimuli/subj_files/pilot1_cityA.csv,./stimuli/frankfurt.jpg,./stimuli/street_plate1.png,TÖLCSÉR UTCA,stimuli/scenes/068a.jpg,scene,0,stimuli/scenes/068a.jpg,stimuli/objects/039a.jpg,stimuli/scenes/068a.jpg,stimuli/scenes/068b.jpg,stimuli/objects/039b.jpg,dist1,target,lure,dist2,0,0,0,0,0,8,8,46,,,,,,,64.47009766846895,invalid,65.55790317058563,65.55790317058563,65.55790317058563,65.55790317058563,65.55790317058563,65.55790317058563,65.55790317058563,65.55790317058563,65.55790317058563,65.55790317058563,65.55790317058563,65.55790317058563,f,2.2190779838711023,None,,,,,,,,,,,,,,pilot1,2022-10-14_15h29.51.521,Hippopolis_4AFCT,2022.2.2,60.00903258085784,
Hippopolis,stimuli/subj_files/pilot1_cityA.csv,./stimuli/frankfurt.jpg,./stimuli/street_plate1.png,PAPAGÁJ UTCA,stimuli/scenes/023a.jpg,scene,1,stimuli/scenes/113a.jpg,stimuli/objects/070b.jpg,stimuli/scenes/113b.jpg,stimuli/objects/070a.jpg,stimuli/scenes/113a.jpg,dist2,lure,dist1,target,0,0,0,0,0,9,9,53,,,,,,,67.79888647422194,invalid,68.8517911490053,68.8517911490053,68.8517911490053,68.8517911490053,68.8517911490053,68.8517911490053,68.8517911490053,68.8517911490053,68.8517911490053,68.8517911490053,68.8517911490053,68.8517911490053,j,2.3494416009634733,None,,,,,,,,,,,,,,pilot1,2022-10-14_15h29.51.521,Hippopolis_4AFCT,2022.2.2,60.00903258085784,
Hippopolis,stimuli/subj_files/pilot1_cityA.csv,./stimuli/frankfurt.jpg,./stimuli/street_plate1.png,GYŰRŰ UTCA,stimuli/scenes/007a.jpg,scene,0,stimuli/scenes/007a.jpg,stimuli/scenes/076a.jpg,stimuli/scenes/007b.jpg,stimuli/scenes/007a.jpg,stimuli/scenes/076b.jpg,dist1,lure,target,dist2,0,0,0,0,0,10,10,76,,,,,,,71.21959694847465,invalid,72.2655027359724,72.2655027359724,72.2655027359724,72.2655027359724,72.2655027359724,72.2655027359724,72.2655027359724,72.2655027359724,72.2655027359724,72.2655027359724,72.2655027359724,72.2655027359724,j,2.7590479031205177,None,,,,,,,,,,,,,,pilot1,2022-10-14_15h29.51.521,Hippopolis_4AFCT,2022.2.2,60.00903258085784,
Hippopolis,stimuli/subj_files/pilot1_cityA.csv,./stimuli/frankfurt.jpg,./stimuli/street_plate1.png,NARANCS UTCA,stimuli/scenes/103a.jpg,scene,2,stimuli/objects/097a.jpg,stimuli/objects/097b.jpg,stimuli/objects/046a.jpg,stimuli/objects/046b.jpg,stimuli/objects/097a.jpg,lure,dist1,dist2,target,0,0,0,0,0,11,11,13,,,,,,,75.05641998164356,invalid,76.11011678911746,76.11011678911746,76.11011678911746,76.11011678911746,76.11011678911746,76.11011678911746,76.11011678911746,76.11011678911746,76.11011678911746,76.11011678911746,76.11011678911746,76.11011678911746,k,2.354317558929324,None,,,,,,,,,,,,,,pilot1,2022-10-14_15h29.51.521,Hippopolis_4AFCT,2022.2.2,60.00903258085784,
Hippopolis,stimuli/subj_files/pilot1_cityA.csv,./stimuli/frankfurt.jpg,./stimuli/street_plate1.png,PAPRIKA UTCA,stimuli/scenes/118a.jpg,scene,0,stimuli/scenes/118a.jpg,stimuli/scenes/118a.jpg,stimuli/objects/068b.jpg,stimuli/scenes/118b.jpg,stimuli/objects/068a.jpg,target,dist2,lure,dist1,0,0,0,0,0,12,12,20,,,,,,,78.50264728814363,invalid,79.55973997525871,79.55973997525871,79.55973997525871,79.55973997525871,79.55973997525871,79.55973997525871,79.55973997525871,79.55973997525871,79.55973997525871,79.55973997525871,79.55973997525871,79.55973997525871,d,2.728849494829774,None,,,,,,,,,,,,,,pilot1,2022-10-14_15h29.51.521,Hippopolis_4AFCT,2022.2.2,60.00903258085784,
Hippopolis,stimuli/subj_files/pilot1_cityA.csv,./stimuli/frankfurt.jpg,./stimuli/street_plate1.png,KÖNYVTÁR UTCA,stimuli/objects/070a.jpg,object,0,stimuli/objects/070a.jpg,stimuli/objects/070a.jpg,stimuli/scenes/100b.jpg,stimuli/scenes/100a.jpg,stimuli/objects/070b.jpg,target,dist2,dist1,lure,0,0,0,0,0,13,13,79,,,,,,,82.32778674177825,invalid,83.37785752676427,83.37785752676427,83.37785752676427,83.37785752676427,83.37785752676427,83.37785752676427,83.37785752676427,83.37785752676427,83.37785752676427,83.37785752676427,83.37785752676427,83.37785752676427,d,2.335502604022622,None,,,,,,,,,,,,,,pilot1,2022-10-14_15h29.51.521,Hippopolis_4AFCT,2022.2.2,60.00903258085784,
Hippopolis,stimuli/subj_files/pilot1_cityA.csv,./stimuli/frankfurt.jpg,./stimuli/street_plate1.png,TRIATLON UTCA,stimuli/objects/119a.jpg,object,2,stimuli/scenes/018a.jpg,stimuli/objects/017a.jpg,stimuli/objects/017b.jpg,stimuli/scenes/018b.jpg,stimuli/scenes/018a.jpg,dist1,dist2,lure,target,0,0,0,0,0,14,14,75,,,,,,,85.73553540371358,invalid,86.79999334551394,86.79999334551394,86.79999334551394,86.79999334551394,86.79999334551394,86.79999334551394,86.79999334551394,86.79999334551394,86.79999334551394,86.79999334551394,86.79999334551394,86.79999334551394,d,1.4888564348220825,None,,,,,,,,,,,,,,pilot1,2022-10-14_15h29.51.521,Hippopolis_4AFCT,2022.2.2,60.00903258085784,
Hippopolis,stimuli/subj_files/pilot1_cityA.csv,./stimuli/frankfurt.jpg,./stimuli/street_plate1.png,TENISZ UTCA,stimuli/objects/089a.jpg,object,2,stimuli/scenes/120a.jpg,stimuli/objects/040a.jpg,stimuli/objects/040b.jpg,stimuli/scenes/120b.jpg,stimuli/scenes/120a.jpg,dist1,dist2,lure,target,0,0,0,0,0,15,15,0,,,,,,,88.32182817161083,invalid,89.39094965346158,89.39094965346158,89.39094965346158,89.39094965346158,89.39094965346158,89.39094965346158,89.39094965346158,89.39094965346158,89.39094965346158,89.39094965346158,89.39094965346158,89.39094965346158,k,1.68177992105484,None,,,,,,,,,,,,,,pilot1,2022-10-14_15h29.51.521,Hippopolis_4AFCT,2022.2.2,60.00903258085784,
Hippopolis,stimuli/subj_files/pilot1_cityA.csv,./stimuli/frankfurt.jpg,./stimuli/street_plate1.png,TOLMÁCS UTCA,stimuli/objects/049a.jpg,object,2,stimuli/scenes/097a.jpg,stimuli/scenes/097b.jpg,stimuli/scenes/077a.jpg,stimuli/scenes/097a.jpg,stimuli/scenes/077b.jpg,lure,dist1,target,dist2,0,0,0,0,0,16,16,23,,,,,,,91.09285562485456,invalid,92.13429131731391,92.13429131731391,92.13429131731391,92.13429131731391,92.13429131731391,92.13429131731391,92.13429131731391,92.13429131731391,92.13429131731391,92.13429131731391,92.13429131731391,92.13429131731391,j,1.8504330907016993,None,,,,,,,,,,,,,,pilot1,2022-10-14_15h29.51.521,Hippopolis_4AFCT,2022.2.2,60.00903258085784,
Hippopolis,stimuli/subj_files/pilot1_cityA.csv,./stimuli/frankfurt.jpg,./stimuli/street_plate1.png,ÁLLOMÁS UTCA,stimuli/objects/041a.jpg,object,1,stimuli/objects/022a.jpg,stimuli/objects/022b.jpg,stimuli/objects/022a.jpg,stimuli/objects/062b.jpg,stimuli/objects/062a.jpg,lure,target,dist2,dist1,0,0,0,0,0,17,17,24,,,,,,,94.0064160618931,invalid,95.04658938013017,95.04658938013017,95.04658938013017,95.04658938013017,95.04658938013017,95.04658938013017,95.04658938013017,95.04658938013017,95.04658938013017,95.04658938013017,95.04658938013017,95.04658938013017,f,1.7704263851046562,None,,,,,,,,,,,,,,pilot1,2022-10-14_15h29.51.521,Hippopolis_4AFCT,2022.2.2,60.00903258085784,
Hippopolis,stimuli/subj_files/pilot1_cityA.csv,./stimuli/frankfurt.jpg,./stimuli/street_plate1.png,KORONG UTCA,stimuli/objects/104a.jpg,object,0,stimuli/objects/104a.jpg,stimuli/objects/076b.jpg,stimuli/objects/104a.jpg,stimuli/objects/104b.jpg,stimuli/objects/076a.jpg,dist2,target,lure,dist1,0,0,0,0,0,18,18,5,,,,,,,96.84018470160663,invalid,97.88909792155027,97.88909792155027,97.88909792155027,97.88909792155027,97.88909792155027,97.88909792155027,97.88909792155027,97.88909792155027,97.88909792155027,97.88909792155027,97.88909792155027,97.88909792155027,f,2.591447802260518,None,,,,,,,,,,,,,,pilot1,2022-10-14_15h29.51.521,Hippopolis_4AFCT,2022.2.2,60.00903258085784,
Hippopolis,stimuli/subj_files/pilot1_cityA.csv,./stimuli/frankfurt.jpg,./stimuli/street_plate1.png,EPER UTCA,stimuli/objects/028a.jpg,object,1,stimuli/objects/062a.jpg,stimuli/objects/062a.jpg,stimuli/objects/047b.jpg,stimuli/objects/062b.jpg,stimuli/objects/047a.jpg,target,dist2,lure,dist1,0,0,0,0,0,19,19,39,,,,,,,100.50209711678326,invalid,101.54659964330494,101.54659964330494,101.54659964330494,101.54659964330494,101.54659964330494,101.54659964330494,101.54659964330494,101.54659964330494,101.54659964330494,101.54659964330494,101.54659964330494,101.54659964330494,d,1.6702154595404863,None,,,,,,,,,,,,,,pilot1,2022-10-14_15h29.51.521,Hippopolis_4AFCT,2022.2.2,60.00903258085784,
Hippopolis,stimuli/subj_files/pilot1_cityA.csv,./stimuli/frankfurt.jpg,./stimuli/street_plate1.png,KOKTÉL UTCA,stimuli/scenes/106a.jpg,scene,1,stimuli/scenes/096a.jpg,stimuli/scenes/096a.jpg,stimuli/scenes/096b.jpg,stimuli/objects/042a.jpg,stimuli/objects/042b.jpg,target,lure,dist1,dist2,0,0,0,0,0,20,20,44,,,,,,,103.24067167565227,invalid,104.27160623669624,104.27160623669624,104.27160623669624,104.27160623669624,104.27160623669624,104.27160623669624,104.27160623669624,104.27160623669624,104.27160623669624,104.27160623669624,104.27160623669624,104.27160623669624,f,2.081333253532648,None,,,,,,,,,,,,,,pilot1,2022-10-14_15h29.51.521,Hippopolis_4AFCT,2022.2.2,60.00903258085784,
Hippopolis,stimuli/subj_files/pilot1_cityA.csv,./stimuli/frankfurt.jpg,./stimuli/street_plate1.png,MARTINI UTCA,stimuli/scenes/069a.jpg,scene,0,stimuli/scenes/069a.jpg,stimuli/objects/065a.jpg,stimuli/scenes/069b.jpg,stimuli/scenes/069a.jpg,stimuli/objects/065b.jpg,dist1,lure,target,dist2,0,0,0,0,0,21,21,54,,,,,,,106.3761146478355,invalid,107.41746356897056,107.41746356897056,107.41746356897056,107.41746356897056,107.41746356897056,107.41746356897056,107.41746356897056,107.41746356897056,107.41746356897056,107.41746356897056,107.41746356897056,107.41746356897056,j,1.894687432795763,None,,,,,,,,,,,,,,pilot1,2022-10-14_15h29.51.521,Hippopolis_4AFCT,2022.2.2,60.00903258085784,
Hippopolis,stimuli/subj_files/pilot1_cityA.csv,./stimuli/frankfurt.jpg,./stimuli/street_plate1.png,SZITAKÖTŐ UTCA,stimuli/objects/064a.jpg,object,0,stimuli/objects/064a.jpg,stimuli/objects/037b.jpg,stimuli/objects/064a.jpg,stimuli/objects/064b.jpg,stimuli/objects/037a.jpg,dist2,target,lure,dist1,0,0,0,0,0,22,22,3,,,,,,,109.3416025787592,invalid,110.40616377443075,110.40616377443075,110.40616377443075,110.40616377443075,110.40616377443075,110.40616377443075,110.40616377443075,110.40616377443075,110.40616377443075,110.40616377443075,110.40616377443075,110.40616377443075,j,2.4748393781483173,None,,,,,,,,,,,,,,pilot1,2022-10-14_15h29.51.521,Hippopolis_4AFCT,2022.2.2,60.00903258085784,
Hippopolis,stimuli/subj_files/pilot1_cityA.csv,./stimuli/frankfurt.jpg,./stimuli/street_plate1.png,SÜTEMÉNY UTCA,stimuli/scenes/043a.jpg,scene,2,stimuli/objects/033a.jpg,stimuli/objects/033b.jpg,stimuli/scenes/026a.jpg,stimuli/scenes/026b.jpg,stimuli/objects/033a.jpg,lure,dist1,dist2,target,0,0,0,0,0,23,23,2,,,,,,,112.90605803206563,invalid,113.95327284559608,113.95327284559608,113.95327284559608,113.95327284559608,113.95327284559608,113.95327284559608,113.95327284559608,113.95327284559608,113.95327284559608,113.95327284559608,113.95327284559608,113.95327284559608,k,2.431494105607271,None,,,,,,,,,,,,,,pilot1,2022-10-14_15h29.51.521,Hippopolis_4AFCT,2022.2.2,60.00903258085784,
Hippopolis,stimuli/subj_files/pilot1_cityA.csv,./stimuli/frankfurt.jpg,./stimuli/street_plate1.png,PÉKSÉG UTCA,stimuli/objects/030a.jpg,object,0,stimuli/objects/030a.jpg,stimuli/objects/030a.jpg,stimuli/objects/073a.jpg,stimuli/objects/030b.jpg,stimuli/objects/073b.jpg,target,dist1,lure,dist2,0,0,0,0,0,24,24,48,,,,,,,116.4085196480155,invalid,117.46987934224308,117.46987934224308,117.46987934224308,117.46987934224308,117.46987934224308,117.46987934224308,117.46987934224308,117.46987934224308,117.46987934224308,117.46987934224308,117.46987934224308,117.46987934224308,d,2.2748799957334995,None,,,,,,,,,,,,,,pilot1,2022-10-14_15h29.51.521,Hippopolis_4AFCT,2022.2.2,60.00903258085784,
Hippopolis,stimuli/subj_files/pilot1_cityA.csv,./stimuli/frankfurt.jpg,./stimuli/street_plate1.png,FÜZET UTCA,stimuli/scenes/008a.jpg,scene,2,stimuli/objects/024a.jpg,stimuli/objects/024b.jpg,stimuli/scenes/117a.jpg,stimuli/objects/024a.jpg,stimuli/scenes/117b.jpg,lure,dist1,target,dist2,0,0,0,0,0,25,25,69,,,,,,,119.77239557169378,invalid,120.83805150911212,120.83805150911212,120.83805150911212,120.83805150911212,120.83805150911212,120.83805150911212,120.83805150911212,120.83805150911212,120.83805150911212,120.83805150911212,120.83805150911212,120.83805150911212,j,1.8024839889258146,None,,,,,,,,,,,,,,pilot1,2022-10-14_15h29.51.521,Hippopolis_4AFCT,2022.2.2,60.00903258085784,
Hippopolis,stimuli/subj_files/pilot1_cityA.csv,./stimuli/frankfurt.jpg,./stimuli/street_plate1.png,SZERSZÁM UTCA,stimuli/objects/037a.jpg,object,0,stimuli/objects/037a.jpg,stimuli/objects/037a.jpg,stimuli/scenes/097b.jpg,stimuli/scenes/097a.jpg,stimuli/objects/037b.jpg,target,dist2,dist1,lure,0,0,0,0,0,26,26,19,,,,,,,122.67681211046875,invalid,123.70953433774412,123.70953433774412,123.70953433774412,123.70953433774412,123.70953433774412,123.70953433774412,123.70953433774412,123.70953433774412,123.70953433774412,123.70953433774412,123.70953433774412,123.70953433774412,d,1.2833207100629807,None,123.70953433774412,,,,,,,,,,,,,pilot1,2022-10-14_15h29.51.521,Hippopolis_4AFCT,2022.2.2,60.00903258085784,
Hippopolis,stimuli/subj_files/pilot1_cityA.csv,./stimuli/frankfurt.jpg,./stimuli/street_plate1.png,RIBIZLI UTCA,stimuli/scenes/017a.jpg,scene,0,stimuli/scenes/017a.jpg,stimuli/scenes/068b.jpg,stimuli/scenes/017a.jpg,stimuli/scenes/068a.jpg,stimuli/scenes/017b.jpg,dist2,target,dist1,lure,0,0,0,0,0,27,27,37,,,,,,,125.00882916152477,invalid,126.0533475484699,126.0533475484699,126.0533475484699,126.0533475484699,126.0533475484699,126.0533475484699,126.0533475484699,126.0533475484699,126.0533475484699,126.0533475484699,126.0533475484699,126.0533475484699,j,2.4910045582801104,None,,,,,,,,,,,,,,pilot1,2022-10-14_15h29.51.521,Hippopolis_4AFCT,2022.2.2,60.00903258085784,
Hippopolis,stimuli/subj_files/pilot1_cityA.csv,./stimuli/frankfurt.jpg,./stimuli/street_plate1.png,KIRAKÓ UTCA,stimuli/scenes/021a.jpg,scene,1,stimuli/scenes/020a.jpg,stimuli/objects/022b.jpg,stimuli/objects/022a.jpg,stimuli/scenes/020a.jpg,stimuli/scenes/020b.jpg,dist2,dist1,target,lure,0,0,0,0,0,28,28,59,,,,,,,128.58646040037274,invalid,129.62555017136037,129.62555017136037,129.62555017136037,129.62555017136037,129.62555017136037,129.62555017136037,129.62555017136037,129.62555017136037,129.62555017136037,129.62555017136037,129.62555017136037,129.62555017136037,j,2.070650804787874,None,,,,,,,,,,,,,,pilot1,2022-10-14_15h29.51.521,Hippopolis_4AFCT,2022.2.2,60.00903258085784,
Hippopolis,stimuli/subj_files/pilot1_cityA.csv,./stimuli/frankfurt.jpg,./stimuli/street_plate1.png,FÜGE UTCA,stimuli/objects/109a.jpg,object,2,stimuli/scenes/104a.jpg,stimuli/scenes/104b.jpg,stimuli/objects/030b.jpg,stimuli/scenes/104a.jpg,stimuli/objects/030a.jpg,lure,dist2,target,dist1,0,0,0,0,0,29,29,9,,,,,,,131.71765347011387,invalid,132.77077180705965,132.77077180705965,132.77077180705965,132.77077180705965,132.77077180705965,132.77077180705965,132.77077180705965,132.77077180705965,132.77077180705965,132.77077180705965,132.77077180705965,132.77077180705965,j,2.0300868656486273,None,132.77077180705965,,,,,,,,,,,,,pilot1,2022-10-14_15h29.51.521,Hippopolis_4AFCT,2022.2.2,60.00903258085784,
Hippopolis,stimuli/subj_files/pilot1_cityA.csv,./stimuli/frankfurt.jpg,./stimuli/street_plate1.png,POGÁCSA UTCA,stimuli/objects/093a.jpg,object,1,stimuli/objects/018a.jpg,stimuli/scenes/064a.jpg,stimuli/scenes/064b.jpg,stimuli/objects/018b.jpg,stimuli/objects/018a.jpg,dist1,dist2,lure,target,0,0,0,0,0,30,30,10,,,,,,,134.82509529404342,invalid,135.8811924494803,135.8811924494803,135.8811924494803,135.8811924494803,135.8811924494803,135.8811924494803,135.8811924494803,135.8811924494803,135.8811924494803,135.8811924494803,135.8811924494803,135.8811924494803,k,1.7677464429289103,None,,,,,,,,,,,,,,pilot1,2022-10-14_15h29.51.521,Hippopolis_4AFCT,2022.2.2,60.00903258085784,
Hippopolis,stimuli/subj_files/pilot1_cityA.csv,./stimuli/frankfurt.jpg,./stimuli/street_plate1.png,LOVAGLÁS UTCA,stimuli/objects/110a.jpg,object,1,stimuli/objects/010a.jpg,stimuli/objects/010b.jpg,stimuli/scenes/007a.jpg,stimuli/objects/010a.jpg,stimuli/scenes/007b.jpg,lure,dist1,target,dist2,0,0,0,0,0,31,31,22,,,,,,,137.67367747798562,invalid,138.70989510416985,138.70989510416985,138.70989510416985,138.70989510416985,138.70989510416985,138.70989510416985,138.70989510416985,138.70989510416985,138.70989510416985,138.70989510416985,138.70989510416985,138.70989510416985,j,1.6911735571920872,None,,,,,,,,,,,,,,pilot1,2022-10-14_15h29.51.521,Hippopolis_4AFCT,2022.2.2,60.00903258085784,
Hippopolis,stimuli/subj_files/pilot1_cityA.csv,./stimuli/frankfurt.jpg,./stimuli/street_plate1.png,KECSKE UTCA,stimuli/objects/011a.jpg,object,1,stimuli/objects/086a.jpg,stimuli/objects/086b.jpg,stimuli/objects/066a.jpg,stimuli/objects/086a.jpg,stimuli/objects/066b.jpg,lure,dist1,target,dist2,0,0,0,0,0,32,32,64,,,,,,,140.4351520575583,invalid,141.49664766341448,141.49664766341448,141.49664766341448,141.49664766341448,141.49664766341448,141.49664766341448,141.49664766341448,141.49664766341448,141.49664766341448,141.49664766341448,141.49664766341448,141.49664766341448,d,1.7836413569748402,None,,,,,,,,,,,,,,pilot1,2022-10-14_15h29.51.521,Hippopolis_4AFCT,2022.2.2,60.00903258085784,
Hippopolis,stimuli/subj_files/pilot1_cityA.csv,./stimuli/frankfurt.jpg,./stimuli/street_plate1.png,TÉRKÉP UTCA,stimuli/scenes/061a.jpg,scene,2,stimuli/objects/065a.jpg,stimuli/objects/065a.jpg,stimuli/scenes/060b.jpg,stimuli/scenes/060a.jpg,stimuli/objects/065b.jpg,target,dist2,dist1,lure,0,0,0,0,0,33,33,72,,,,,,,143.30574696324766,invalid,144.3517597373575,144.3517597373575,144.3517597373575,144.3517597373575,144.3517597373575,144.3517597373575,144.3517597373575,144.3517597373575,144.3517597373575,144.3517597373575,144.3517597373575,144.3517597373575,d,1.9844746682792902,None,,,,,,,,,,,,,,pilot1,2022-10-14_15h29.51.521,Hippopolis_4AFCT,2022.2.2,60.00903258085784,
Hippopolis,stimuli/subj_files/pilot1_cityA.csv,./stimuli/frankfurt.jpg,./stimuli/street_plate1.png,FECSKE UTCA,stimuli/objects/106a.jpg,object,2,stimuli/scenes/051a.jpg,stimuli/scenes/116b.jpg,stimuli/scenes/051b.jpg,stimuli/scenes/116a.jpg,stimuli/scenes/051a.jpg,dist2,lure,dist1,target,0,0,0,0,0,34,34,49,,,,,,,146.35735007748008,invalid,147.42430042289197,147.42430042289197,147.42430042289197,147.42430042289197,147.42430042289197,147.42430042289197,147.42430042289197,147.42430042289197,147.42430042289197,147.42430042289197,147.42430042289197,147.42430042289197,k,2.0802938695997,None,,,,,,,,,,,,,,pilot1,2022-10-14_15h29.51.521,Hippopolis_4AFCT,2022.2.2,60.00903258085784,
Hippopolis,stimuli/subj_files/pilot1_cityA.csv,./stimuli/frankfurt.jpg,./stimuli/street_plate1.png,KOCKA UTCA,stimuli/scenes/002a.jpg,scene,0,stimuli/scenes/002a.jpg,stimuli/scenes/072a.jpg,stimuli/scenes/002b.jpg,stimuli/scenes/072b.jpg,stimuli/scenes/002a.jpg,dist1,lure,dist2,target,0,0,0,0,0,35,35,73,,,,,,,149.53306278027594,invalid,150.56603567674756,150.56603567674756,150.56603567674756,150.56603567674756,150.56603567674756,150.56603567674756,150.56603567674756,150.56603567674756,150.56603567674756,150.56603567674756,150.56603567674756,150.56603567674756,k,1.674026221036911,None,,,,,,,,,,,,,,pilot1,2022-10-14_15h29.51.521,Hippopolis_4AFCT,2022.2.2,60.00903258085784,
Hippopolis,stimuli/subj_files/pilot1_cityA.csv,./stimuli/frankfurt.jpg,./stimuli/street_plate1.png,TETŐ UTCA,stimuli/scenes/067a.jpg,scene,2,stimuli/objects/047a.jpg,stimuli/objects/047a.jpg,stimuli/objects/047b.jpg,stimuli/objects/097b.jpg,stimuli/objects/097a.jpg,target,lure,dist2,dist1,0,0,0,0,0,36,36,8,,,,,,,152.2800727635622,invalid,153.3433566559106,153.3433566559106,153.3433566559106,153.3433566559106,153.3433566559106,153.3433566559106,153.3433566559106,153.3433566559106,153.3433566559106,153.3433566559106,153.3433566559106,153.3433566559106,d,2.017121007665992,None,,,,,,,,,,,,,,pilot1,2022-10-14_15h29.51.521,Hippopolis_4AFCT,2022.2.2,60.00903258085784,
Hippopolis,stimuli/subj_files/pilot1_cityA.csv,./stimuli/frankfurt.jpg,./stimuli/street_plate1.png,DARU UTCA,stimuli/scenes/035a.jpg,scene,1,stimuli/scenes/080a.jpg,stimuli/scenes/080b.jpg,stimuli/objects/010b.jpg,stimuli/objects/010a.jpg,stimuli/scenes/080a.jpg,lure,dist2,dist1,target,0,0,0,0,0,37,37,41,,,,,,,155.3909508958459,invalid,156.4374559931457,156.4374559931457,156.4374559931457,156.4374559931457,156.4374559931457,156.4374559931457,156.4374559931457,156.4374559931457,156.4374559931457,156.4374559931457,156.4374559931457,156.4374559931457,k,2.2186904698610306,None,,,,,,,,,,,,,,pilot1,2022-10-14_15h29.51.521,Hippopolis_4AFCT,2022.2.2,60.00903258085784,
Hippopolis,stimuli/subj_files/pilot1_cityA.csv,./stimuli/frankfurt.jpg,./stimuli/street_plate1.png,MANDARIN UTCA,stimuli/scenes/047a.jpg,scene,1,stimuli/scenes/024a.jpg,stimuli/scenes/024a.jpg,stimuli/scenes/024b.jpg,stimuli/scenes/069a.jpg,stimuli/scenes/069b.jpg,target,lure,dist1,dist2,0,0,0,0,0,38,38,60,,,,,,,158.6768553406,invalid,159.7201850619167,159.7201850619167,159.7201850619167,159.7201850619167,159.7201850619167,159.7201850619167,159.7201850619167,159.7201850619167,159.7201850619167,159.7201850619167,159.7201850619167,159.7201850619167,d,1.3201140090823174,None,,,,,,,,,,,,,,pilot1,2022-10-14_15h29.51.521,Hippopolis_4AFCT,2022.2.2,60.00903258085784,
Hippopolis,stimuli/subj_files/pilot1_cityA.csv,./stimuli/frankfurt.jpg,./stimuli/street_plate1.png,MAJORÁNNA UTCA,stimuli/objects/068a.jpg,object,0,stimuli/objects/068a.jpg,stimuli/objects/068a.jpg,stimuli/scenes/118a.jpg,stimuli/objects/068b.jpg,stimuli/scenes/118b.jpg,target,dist1,lure,dist2,0,0,0,0,0,39,39,57,,,,,,,161.06717178411782,invalid,162.11499461345375,162.11499461345375,162.11499461345375,162.11499461345375,162.11499461345375,162.11499461345375,162.11499461345375,162.11499461345375,162.11499461345375,162.11499461345375,162.11499461345375,162.11499461345375,j,2.4287640918046236,None,,,,,,,,,,,,,,pilot1,2022-10-14_15h29.51.521,Hippopolis_4AFCT,2022.2.2,60.00903258085784,
Hippopolis,stimuli/subj_files/pilot1_cityA.csv,./stimuli/frankfurt.jpg,./stimuli/street_plate1.png,SZŐNYEG UTCA,stimuli/scenes/044a.jpg,scene,0,stimuli/scenes/044a.jpg,stimuli/scenes/044a.jpg,stimuli/scenes/004b.jpg,stimuli/scenes/004a.jpg,stimuli/scenes/044b.jpg,target,dist2,dist1,lure,0,0,0,0,0,40,40,11,,,,,,,164.57285635732114,invalid,165.63174013234675,165.63174013234675,165.63174013234675,165.63174013234675,165.63174013234675,165.63174013234675,165.63174013234675,165.63174013234675,165.63174013234675,165.63174013234675,165.63174013234675,165.63174013234675,d,1.5525682736188173,None,,,,,,,,,,,,,,pilot1,2022-10-14_15h29.51.521,Hippopolis_4AFCT,2022.2.2,60.00903258085784,
Hippopolis,stimuli/subj_files/pilot1_cityA.csv,./stimuli/frankfurt.jpg,./stimuli/street_plate1.png,BÚJÓCSKA UTCA,stimuli/objects/025a.jpg,object,2,stimuli/scenes/001a.jpg,stimuli/scenes/096b.jpg,stimuli/scenes/001a.jpg,stimuli/scenes/096a.jpg,stimuli/scenes/001b.jpg,dist2,target,dist1,lure,0,0,0,0,0,41,41,7,,,,,,,167.20673559047282,invalid,168.27347476407886,168.27347476407886,168.27347476407886,168.27347476407886,168.27347476407886,168.27347476407886,168.27347476407886,168.27347476407886,168.27347476407886,168.27347476407886,168.27347476407886,168.27347476407886,f,1.3266977034509182,None,,,,,,,,,,,,,,pilot1,2022-10-14_15h29.51.521,Hippopolis_4AFCT,2022.2.2,60.00903258085784,
Hippopolis,stimuli/subj_files/pilot1_cityA.csv,./stimuli/frankfurt.jpg,./stimuli/street_plate1.png,TORONY UTCA,stimuli/scenes/059a.jpg,scene,2,stimuli/objects/120a.jpg,stimuli/scenes/104b.jpg,stimuli/objects/120b.jpg,stimuli/scenes/104a.jpg,stimuli/objects/120a.jpg,dist2,lure,dist1,target,0,0,0,0,0,42,42,6,,,,,,,169.62426944635808,invalid,170.67541662417352,170.67541662417352,170.67541662417352,170.67541662417352,170.67541662417352,170.67541662417352,170.67541662417352,170.67541662417352,170.67541662417352,170.67541662417352,170.67541662417352,170.67541662417352,k,2.1721405889838934,None,170.67541662417352,,,,,,,,,,,,,pilot1,2022-10-14_15h29.51.521,Hippopolis_4AFCT,2022.2.2,60.00903258085784,
Hippopolis,stimuli/subj_files/pilot1_cityA.csv,./stimuli/frankfurt.jpg,./stimuli/street_plate1.png,SZILVA UTCA,stimuli/objects/059a.jpg,object,2,stimuli/scenes/070a.jpg,stimuli/scenes/114b.jpg,stimuli/scenes/070a.jpg,stimuli/scenes/070b.jpg,stimuli/scenes/114a.jpg,dist2,target,lure,dist1,0,0,0,0,0,43,43,71,,,,,,,172.87232876755297,invalid,173.9291726499796,173.9291726499796,173.9291726499796,173.9291726499796,173.9291726499796,173.9291726499796,173.9291726499796,173.9291726499796,173.9291726499796,173.9291726499796,173.9291726499796,173.9291726499796,f,2.374229744076729,None,,,,,,,,,,,,,,pilot1,2022-10-14_15h29.51.521,Hippopolis_4AFCT,2022.2.2,60.00903258085784,
Hippopolis,stimuli/subj_files/pilot1_cityA.csv,./stimuli/frankfurt.jpg,./stimuli/street_plate1.png,SZIKLA UTCA,stimuli/objects/077a.jpg,object,1,stimuli/objects/072a.jpg,stimuli/scenes/017b.jpg,stimuli/objects/072a.jpg,stimuli/scenes/017a.jpg,stimuli/objects/072b.jpg,dist2,target,dist1,lure,0,0,0,0,0,44,44,1,,,,,,,176.32183501310647,invalid,177.35827221162617,177.35827221162617,177.35827221162617,177.35827221162617,177.35827221162617,177.35827221162617,177.35827221162617,177.35827221162617,177.35827221162617,177.35827221162617,177.35827221162617,177.35827221162617,f,2.018058069050312,space,,179.40691454336047,179.40691454336047,8.512612348422408,,,,,,,,,,pilot1,2022-10-14_15h29.51.521,Hippopolis_4AFCT,2022.2.2,60.00903258085784,
Hippopolis,stimuli/subj_files/pilot1_cityA.csv,./stimuli/frankfurt.jpg,./stimuli/street_plate1.png,TISZTÁS UTCA,stimuli/objects/021a.jpg,object,2,stimuli/scenes/029a.jpg,stimuli/objects/018b.jpg,stimuli/scenes/029b.jpg,stimuli/scenes/029a.jpg,stimuli/objects/018a.jpg,dist2,lure,target,dist1,0,0,0,0,0,45,45,67,,,,,,,187.93993969075382,invalid,189.02109432034194,189.02109432034194,189.02109432034194,189.02109432034194,189.02109432034194,189.02109432034194,189.02109432034194,189.02109432034194,189.02109432034194,189.02109432034194,189.02109432034194,189.02109432034194,j,1.5866716783493757,None,,,,,,,,,,,,,,pilot1,2022-10-14_15h29.51.521,Hippopolis_4AFCT,2022.2.2,60.00903258085784,
Hippopolis,stimuli/subj_files/pilot1_cityA.csv,./stimuli/frankfurt.jpg,./stimuli/street_plate1.png,EGÉR UTCA,stimuli/objects/013a.jpg,object,1,stimuli/objects/080a.jpg,stimuli/scenes/070a.jpg,stimuli/objects/080a.jpg,stimuli/objects/080b.jpg,stimuli/scenes/070b.jpg,dist1,target,lure,dist2,0,0,0,0,0,46,46,34,,,,,,,190.63890758529305,invalid,191.7037294022739,191.7037294022739,191.7037294022739,191.7037294022739,191.7037294022739,191.7037294022739,191.7037294022739,191.7037294022739,191.7037294022739,191.7037294022739,191.7037294022739,191.7037294022739,f,1.5921858213841915,None,,,,,,,,,,,,,,pilot1,2022-10-14_15h29.51.521,Hippopolis_4AFCT,2022.2.2,60.00903258085784,
Hippopolis,stimuli/subj_files/pilot1_cityA.csv,./stimuli/frankfurt.jpg,./stimuli/street_plate1.png,MENTA UTCA,stimuli/objects/088a.jpg,object,1,stimuli/objects/054a.jpg,stimuli/scenes/088b.jpg,stimuli/scenes/088a.jpg,stimuli/objects/054b.jpg,stimuli/objects/054a.jpg,dist2,dist1,lure,target,0,0,0,0,0,47,47,26,,,,,,,193.3224408533424,invalid,194.35921766981483,194.35921766981483,194.35921766981483,194.35921766981483,194.35921766981483,194.35921766981483,194.35921766981483,194.35921766981483,194.35921766981483,194.35921766981483,194.35921766981483,194.35921766981483,k,1.5922293625772,None,,,,,,,,,,,,,,pilot1,2022-10-14_15h29.51.521,Hippopolis_4AFCT,2022.2.2,60.00903258085784,
Hippopolis,stimuli/subj_files/pilot1_cityA.csv,./stimuli/frankfurt.jpg,./stimuli/street_plate1.png,TELEFON UTCA,stimuli/objects/102a.jpg,object,2,stimuli/scenes/004a.jpg,stimuli/objects/057a.jpg,stimuli/scenes/004b.jpg,stimuli/scenes/004a.jpg,stimuli/objects/057b.jpg,dist1,lure,target,dist2,0,0,0,0,0,48,48,66,,,,,,,195.98474171571434,invalid,197.05700996145606,197.05700996145606,197.05700996145606,197.05700996145606,197.05700996145606,197.05700996145606,197.05700996145606,197.05700996145606,197.05700996145606,197.05700996145606,197.05700996145606,197.05700996145606,j,2.526590531691909,None,,,,,,,,,,,,,,pilot1,2022-10-14_15h29.51.521,Hippopolis_4AFCT,2022.2.2,60.00903258085784,
Hippopolis,stimuli/subj_files/pilot1_cityA.csv,./stimuli/frankfurt.jpg,./stimuli/street_plate1.png,KABÁT UTCA,stimuli/scenes/032a.jpg,scene,1,stimuli/scenes/105a.jpg,stimuli/scenes/105a.jpg,stimuli/scenes/024b.jpg,stimuli/scenes/024a.jpg,stimuli/scenes/105b.jpg,target,dist2,dist1,lure,0,0,0,0,0,49,49,50,,,,,,,199.61591177247465,invalid,200.65263012051582,200.65263012051582,200.65263012051582,200.65263012051582,200.65263012051582,200.65263012051582,200.65263012051582,200.65263012051582,200.65263012051582,200.65263012051582,200.65263012051582,200.65263012051582,k,2.40344475209713,None,,,,,,,,,,,,,,pilot1,2022-10-14_15h29.51.521,Hippopolis_4AFCT,2022.2.2,60.00903258085784,
Hippopolis,stimuli/subj_files/pilot1_cityA.csv,./stimuli/frankfurt.jpg,./stimuli/street_plate1.png,MÁLNA UTCA,stimuli/scenes/003a.jpg,scene,2,stimuli/objects/115a.jpg,stimuli/objects/115a.jpg,stimuli/objects/115b.jpg,stimuli/objects/086a.jpg,stimuli/objects/086b.jpg,target,lure,dist1,dist2,0,0,0,0,0,50,50,45,,,,,,,203.07247724197805,invalid,204.1229585558176,204.1229585558176,204.1229585558176,204.1229585558176,204.1229585558176,204.1229585558176,204.1229585558176,204.1229585558176,204.1229585558176,204.1229585558176,204.1229585558176,204.1229585558176,d,1.5402676593512297,None,,,,,,,,,,,,,,pilot1,2022-10-14_15h29.51.521,Hippopolis_4AFCT,2022.2.2,60.00903258085784,
Hippopolis,stimuli/subj_files/pilot1_cityA.csv,./stimuli/frankfurt.jpg,./stimuli/street_plate1.png,KÖTÉNY UTCA,stimuli/scenes/108a.jpg,scene,2,stimuli/objects/066a.jpg,stimuli/objects/072b.jpg,stimuli/objects/072a.jpg,stimuli/objects/066b.jpg,stimuli/objects/066a.jpg,dist2,dist1,lure,target,0,0,0,0,0,51,51,36,,,,,,,205.69144433923066,invalid,206.7310889456421,206.7310889456421,206.7310889456421,206.7310889456421,206.7310889456421,206.7310889456421,206.7310889456421,206.7310889456421,206.7310889456421,206.7310889456421,206.7310889456421,206.7310889456421,k,1.3158491794019938,None,,,,,,,,,,,,,,pilot1,2022-10-14_15h29.51.521,Hippopolis_4AFCT,2022.2.2,60.00903258085784,
Hippopolis,stimuli/subj_files/pilot1_cityA.csv,./stimuli/frankfurt.jpg,./stimuli/street_plate1.png,ZSÁLYA UTCA,stimuli/objects/034a.jpg,object,2,stimuli/scenes/117a.jpg,stimuli/scenes/117b.jpg,stimuli/scenes/001b.jpg,stimuli/scenes/117a.jpg,stimuli/scenes/001a.jpg,lure,dist2,target,dist1,0,0,0,0,0,52,52,33,,,,,,,208.06887920759618,invalid,209.10781969688833,209.10781969688833,209.10781969688833,209.10781969688833,209.10781969688833,209.10781969688833,209.10781969688833,209.10781969688833,209.10781969688833,209.10781969688833,209.10781969688833,209.10781969688833,j,1.9477420132607222,None,,,,,,,,,,,,,,pilot1,2022-10-14_15h29.51.521,Hippopolis_4AFCT,2022.2.2,60.00903258085784,
Hippopolis,stimuli/subj_files/pilot1_cityA.csv,./stimuli/frankfurt.jpg,./stimuli/street_plate1.png,KÁRTYA UTCA,stimuli/scenes/079a.jpg,scene,1,stimuli/scenes/094a.jpg,stimuli/scenes/094a.jpg,stimuli/scenes/105a.jpg,stimuli/scenes/105b.jpg,stimuli/scenes/094b.jpg,target,dist1,dist2,lure,0,0,0,0,0,53,53,30,,,,,,,211.07158807478845,invalid,212.15352022089064,212.15352022089064,212.15352022089064,212.15352022089064,212.15352022089064,212.15352022089064,212.15352022089064,212.15352022089064,212.15352022089064,212.15352022089064,212.15352022089064,212.15352022089064,d,1.7180613055825233,None,,,,,,,,,,,,,,pilot1,2022-10-14_15h29.51.521,Hippopolis_4AFCT,2022.2.2,60.00903258085784,
Hippopolis,stimuli/subj_files/pilot1_cityA.csv,./stimuli/frankfurt.jpg,./stimuli/street_plate1.png,LEPKE UTCA,stimuli/scenes/046a.jpg,scene,0,stimuli/scenes/046a.jpg,stimuli/scenes/094a.jpg,stimuli/scenes/046a.jpg,stimuli/scenes/046b.jpg,stimuli/scenes/094b.jpg,dist1,target,lure,dist2,0,0,0,0,0,54,54,61,,,,,,,213.89593135379255,invalid,214.9321555122733,214.9321555122733,214.9321555122733,214.9321555122733,214.9321555122733,214.9321555122733,214.9321555122733,214.9321555122733,214.9321555122733,214.9321555122733,214.9321555122733,214.9321555122733,f,2.602828461676836,None,,,,,,,,,,,,,,pilot1,2022-10-14_15h29.51.521,Hippopolis_4AFCT,2022.2.2,60.00903258085784,
Hippopolis,stimuli/subj_files/pilot1_cityA.csv,./stimuli/frankfurt.jpg,./stimuli/street_plate1.png,BONBON UTCA,stimuli/scenes/022a.jpg,scene,0,stimuli/scenes/022a.jpg,stimuli/scenes/022a.jpg,stimuli/scenes/022b.jpg,stimuli/scenes/018a.jpg,stimuli/scenes/018b.jpg,target,lure,dist1,dist2,0,0,0,0,0,55,55,43,,,,,,,217.5553274154663,invalid,218.59491915255785,218.59491915255785,218.59491915255785,218.59491915255785,218.59491915255785,218.59491915255785,218.59491915255785,218.59491915255785,218.59491915255785,218.59491915255785,218.59491915255785,218.59491915255785,d,1.2288774847984314,None,,,,,,,,,,,,,,pilot1,2022-10-14_15h29.51.521,Hippopolis_4AFCT,2022.2.2,60.00903258085784,
Hippopolis,stimuli/subj_files/pilot1_cityA.csv,./stimuli/frankfurt.jpg,./stimuli/street_plate1.png,FOGÓ UTCA,stimuli/scenes/072a.jpg,scene,0,stimuli/scenes/072a.jpg,stimuli/scenes/072b.jpg,stimuli/scenes/072a.jpg,stimuli/objects/104b.jpg,stimuli/objects/104a.jpg,lure,target,dist2,dist1,0,0,0,0,0,56,56,70,,,,,,,219.85302802175283,invalid,220.88981136865914,220.88981136865914,220.88981136865914,220.88981136865914,220.88981136865914,220.88981136865914,220.88981136865914,220.88981136865914,220.88981136865914,220.88981136865914,220.88981136865914,220.88981136865914,d,1.4296062979847193,None,,,,,,,,,,,,,,pilot1,2022-10-14_15h29.51.521,Hippopolis_4AFCT,2022.2.2,60.00903258085784,
Hippopolis,stimuli/subj_files/pilot1_cityA.csv,./stimuli/frankfurt.jpg,./stimuli/street_plate1.png,PETREZSELYEM UTCA,stimuli/objects/090a.jpg,object,1,stimuli/objects/040a.jpg,stimuli/objects/040a.jpg,stimuli/objects/053a.jpg,stimuli/objects/053b.jpg,stimuli/objects/040b.jpg,target,dist1,dist2,lure,0,0,0,0,0,57,57,16,,,,,,,222.34760686941445,invalid,223.3931808117777,223.3931808117777,223.3931808117777,223.3931808117777,223.3931808117777,223.3931808117777,223.3931808117777,223.3931808117777,223.3931808117777,223.3931808117777,223.3931808117777,223.3931808117777,d,2.381724376231432,None,,,,,,,,,,,,,,pilot1,2022-10-14_15h29.51.521,Hippopolis_4AFCT,2022.2.2,60.00903258085784,
Hippopolis,stimuli/subj_files/pilot1_cityA.csv,./stimuli/frankfurt.jpg,./stimuli/street_plate1.png,MOTOR UTCA,stimuli/objects/111a.jpg,object,1,stimuli/objects/100a.jpg,stimuli/objects/055a.jpg,stimuli/objects/100b.jpg,stimuli/objects/100a.jpg,stimuli/objects/055b.jpg,dist1,lure,target,dist2,0,0,0,0,0,58,58,55,,,,,,,225.80532026290894,invalid,226.86060102656484,226.86060102656484,226.86060102656484,226.86060102656484,226.86060102656484,226.86060102656484,226.86060102656484,226.86060102656484,226.86060102656484,226.86060102656484,226.86060102656484,226.86060102656484,j,2.5946517921984196,None,,,,,,,,,,,,,,pilot1,2022-10-14_15h29.51.521,Hippopolis_4AFCT,2022.2.2,60.00903258085784,
Hippopolis,stimuli/subj_files/pilot1_cityA.csv,./stimuli/frankfurt.jpg,./stimuli/street_plate1.png,KIFLI UTCA,stimuli/scenes/006a.jpg,scene,0,stimuli/scenes/006a.jpg,stimuli/scenes/006a.jpg,stimuli/scenes/006b.jpg,stimuli/scenes/014b.jpg,stimuli/scenes/014a.jpg,target,lure,dist2,dist1,0,0,0,0,0,59,59,62,,,,,,,229.48020693287253,invalid,230.53750488348305,230.53750488348305,230.53750488348305,230.53750488348305,230.53750488348305,230.53750488348305,230.53750488348305,230.53750488348305,230.53750488348305,230.53750488348305,230.53750488348305,230.53750488348305,d,2.9175641294568777,None,,,,,,,,,,,,,,pilot1,2022-10-14_15h29.51.521,Hippopolis_4AFCT,2022.2.2,60.00903258085784,
Hippopolis,stimuli/subj_files/pilot1_cityA.csv,./stimuli/frankfurt.jpg,./stimuli/street_plate1.png,SZÖCSKE UTCA,stimuli/objects/057a.jpg,object,0,stimuli/objects/057a.jpg,stimuli/objects/057b.jpg,stimuli/objects/057a.jpg,stimuli/scenes/045b.jpg,stimuli/scenes/045a.jpg,lure,target,dist2,dist1,0,0,0,0,0,60,60,14,,,,,,,233.47123470902443,invalid,234.52709923125803,234.52709923125803,234.52709923125803,234.52709923125803,234.52709923125803,234.52709923125803,234.52709923125803,234.52709923125803,234.52709923125803,234.52709923125803,234.52709923125803,234.52709923125803,f,1.7446399126201868,None,,,,,,,,,,,,,,pilot1,2022-10-14_15h29.51.521,Hippopolis_4AFCT,2022.2.2,60.00903258085784,
Hippopolis,stimuli/subj_files/pilot1_cityA.csv,./stimuli/frankfurt.jpg,./stimuli/street_plate1.png,LEGELŐ UTCA,stimuli/scenes/012a.jpg,scene,1,stimuli/scenes/014a.jpg,stimuli/scenes/014b.jpg,stimuli/objects/016b.jpg,stimuli/scenes/014a.jpg,stimuli/objects/016a.jpg,lure,dist2,target,dist1,0,0,0,0,0,61,61,65,,,,,,,236.28813062794507,invalid,237.35619406588376,237.35619406588376,237.35619406588376,237.35619406588376,237.35619406588376,237.35619406588376,237.35619406588376,237.35619406588376,237.35619406588376,237.35619406588376,237.35619406588376,237.35619406588376,j,1.8749786466360092,None,,,,,,,,,,,,,,pilot1,2022-10-14_15h29.51.521,Hippopolis_4AFCT,2022.2.2,60.00903258085784,
Hippopolis,stimuli/subj_files/pilot1_cityA.csv,./stimuli/frankfurt.jpg,./stimuli/street_plate1.png,SIVATAG UTCA,stimuli/scenes/085a.jpg,scene,2,stimuli/objects/038a.jpg,stimuli/objects/012b.jpg,stimuli/objects/038a.jpg,stimuli/objects/038b.jpg,stimuli/objects/012a.jpg,dist2,target,lure,dist1,0,0,0,0,0,62,62,35,,,,,,,239.25828178972006,invalid,240.3461653534323,240.3461653534323,240.3461653534323,240.3461653534323,240.3461653534323,240.3461653534323,240.3461653534323,240.3461653534323,240.3461653534323,240.3461653534323,240.3461653534323,240.3461653534323,f,2.1970198564231396,None,,,,,,,,,,,,,,pilot1,2022-10-14_15h29.51.521,Hippopolis_4AFCT,2022.2.2,60.00903258085784,
Hippopolis,stimuli/subj_files/pilot1_cityA.csv,./stimuli/frankfurt.jpg,./stimuli/street_plate1.png,TEHÉN UTCA,stimuli/objects/006a.jpg,object,1,stimuli/objects/017a.jpg,stimuli/objects/017a.jpg,stimuli/objects/017b.jpg,stimuli/scenes/113b.jpg,stimuli/scenes/113a.jpg,target,lure,dist2,dist1,0,0,0,0,0,63,63,28,,,,,,,242.58015598915517,invalid,243.62764262221754,243.62764262221754,243.62764262221754,243.62764262221754,243.62764262221754,243.62764262221754,243.62764262221754,243.62764262221754,243.62764262221754,243.62764262221754,243.62764262221754,243.62764262221754,k,2.371379680931568,None,,,,,,,,,,,,,,pilot1,2022-10-14_15h29.51.521,Hippopolis_4AFCT,2022.2.2,60.00903258085784,
Hippopolis,stimuli/subj_files/pilot1_cityA.csv,./stimuli/frankfurt.jpg,./stimuli/street_plate1.png,OROSZLÁN UTCA,stimuli/scenes/054a.jpg,scene,2,stimuli/objects/014a.jpg,stimuli/objects/099a.jpg,stimuli/objects/099b.jpg,stimuli/objects/014b.jpg,stimuli/objects/014a.jpg,dist1,dist2,lure,target,0,0,0,0,0,64,64,52,,,,,,,246.0182952620089,invalid,247.04020286351442,247.04020286351442,247.04020286351442,247.04020286351442,247.04020286351442,247.04020286351442,247.04020286351442,247.04020286351442,247.04020286351442,247.04020286351442,247.04020286351442,247.04020286351442,j,2.127317413687706,None,247.04020286351442,,,,,,,,,,,,,pilot1,2022-10-14_15h29.51.521,Hippopolis_4AFCT,2022.2.2,60.00903258085784,
Hippopolis,stimuli/subj_files/pilot1_cityA.csv,./stimuli/frankfurt.jpg,./stimuli/street_plate1.png,TOLLTARTÓ UTCA,stimuli/objects/117a.jpg,object,2,stimuli/scenes/045a.jpg,stimuli/scenes/045b.jpg,stimuli/scenes/120b.jpg,stimuli/scenes/045a.jpg,stimuli/scenes/120a.jpg,lure,dist2,target,dist1,0,0,0,0,0,65,65,58,,,,,,,249.18458975851536,invalid,250.21415029466152,250.21415029466152,250.21415029466152,250.21415029466152,250.21415029466152,250.21415029466152,250.21415029466152,250.21415029466152,250.21415029466152,250.21415029466152,250.21415029466152,250.21415029466152,f,2.2806305047124624,None,,,,,,,,,,,,,,pilot1,2022-10-14_15h29.51.521,Hippopolis_4AFCT,2022.2.2,60.00903258085784,
Hippopolis,stimuli/subj_files/pilot1_cityA.csv,./stimuli/frankfurt.jpg,./stimuli/street_plate1.png,ÁRNYÉK UTCA,stimuli/scenes/088a.jpg,scene,0,stimuli/scenes/088a.jpg,stimuli/scenes/088a.jpg,stimuli/objects/038a.jpg,stimuli/objects/038b.jpg,stimuli/scenes/088b.jpg,target,dist1,dist2,lure,0,0,0,0,0,66,66,42,,,,,,,252.51511180214584,invalid,253.54298232868314,253.54298232868314,253.54298232868314,253.54298232868314,253.54298232868314,253.54298232868314,253.54298232868314,253.54298232868314,253.54298232868314,253.54298232868314,253.54298232868314,253.54298232868314,d,1.4801725167781115,None,,,,,,,,,,,,,,pilot1,2022-10-14_15h29.51.521,Hippopolis_4AFCT,2022.2.2,60.00903258085784,
Hippopolis,stimuli/subj_files/pilot1_cityA.csv,./stimuli/frankfurt.jpg,./stimuli/street_plate1.png,DOBOZ UTCA,stimuli/scenes/030a.jpg,scene,1,stimuli/scenes/060a.jpg,stimuli/scenes/051a.jpg,stimuli/scenes/060b.jpg,stimuli/scenes/060a.jpg,stimuli/scenes/051b.jpg,dist1,lure,target,dist2,0,0,0,0,0,67,67,21,,,,,,,255.05674778297544,invalid,256.07859442569315,256.07859442569315,256.07859442569315,256.07859442569315,256.07859442569315,256.07859442569315,256.07859442569315,256.07859442569315,256.07859442569315,256.07859442569315,256.07859442569315,256.07859442569315,k,2.5123489256948233,None,256.07859442569315,,,,,,,,,,,,,pilot1,2022-10-14_15h29.51.521,Hippopolis_4AFCT,2022.2.2,60.00903258085784,
Hippopolis,stimuli/subj_files/pilot1_cityA.csv,./stimuli/frankfurt.jpg,./stimuli/street_plate1.png,KENYÉR UTCA,stimuli/scenes/071a.jpg,scene,2,stimuli/objects/055a.jpg,stimuli/objects/033b.jpg,stimuli/objects/055a.jpg,stimuli/objects/055b.jpg,stimuli/objects/033a.jpg,dist2,target,lure,dist1,0,0,0,0,0,68,68,17,,,,,,,258.6209239512682,invalid,259.6781578361988,259.6781578361988,259.6781578361988,259.6781578361988,259.6781578361988,259.6781578361988,259.6781578361988,259.6781578361988,259.6781578361988,259.6781578361988,259.6781578361988,259.6781578361988,d,1.7924571428447962,None,,,,,,,,,,,,,,pilot1,2022-10-14_15h29.51.521,Hippopolis_4AFCT,2022.2.2,60.00903258085784,
Hippopolis,stimuli/subj_files/pilot1_cityA.csv,./stimuli/frankfurt.jpg,./stimuli/street_plate1.png,FIÓK UTCA,stimuli/objects/012a.jpg,object,0,stimuli/objects/012a.jpg,stimuli/objects/012a.jpg,stimuli/objects/024b.jpg,stimuli/objects/012b.jpg,stimuli/objects/024a.jpg,target,dist2,lure,dist1,0,0,0,0,0,69,69,31,,,,,,,261.4909839257598,invalid,262.5390997249633,262.5390997249633,262.5390997249633,262.5390997249633,262.5390997249633,262.5390997249633,262.5390997249633,262.5390997249633,262.5390997249633,262.5390997249633,262.5390997249633,262.5390997249633,d,1.7316566370427608,None,,,,,,,,,,,,,,pilot1,2022-10-14_15h29.51.521,Hippopolis_4AFCT,2022.2.2,60.00903258085784,
Hippopolis,stimuli/subj_files/pilot1_cityA.csv,./stimuli/frankfurt.jpg,./stimuli/street_plate1.png,ZSEMLE UTCA,stimuli/objects/035a.jpg,object,2,stimuli/scenes/100a.jpg,stimuli/objects/120a.jpg,stimuli/scenes/100b.jpg,stimuli/objects/120b.jpg,stimuli/scenes/100a.jpg,dist1,lure,dist2,target,0,0,0,0,0,70,70,27,,,,,,,264.29150878079236,invalid,265.3323681782931,265.3323681782931,265.3323681782931,265.3323681782931,265.3323681782931,265.3323681782931,265.3323681782931,265.3323681782931,265.3323681782931,265.3323681782931,265.3323681782931,265.3323681782931,k,1.3223946206271648,None,,,,,,,,,,,,,,pilot1,2022-10-14_15h29.51.521,Hippopolis_4AFCT,2022.2.2,60.00903258085784,
Hippopolis,stimuli/subj_files/pilot1_cityA.csv,./stimuli/frankfurt.jpg,./stimuli/street_plate1.png,TÁBLA UTCA,stimuli/objects/118a.jpg,object,1,stimuli/objects/042a.jpg,stimuli/scenes/084a.jpg,stimuli/scenes/084b.jpg,stimuli/objects/042a.jpg,stimuli/objects/042b.jpg,dist1,dist2,target,lure,0,0,0,0,0,71,71,78,,,,,,,266.68764259666204,invalid,267.7268135417253,267.7268135417253,267.7268135417253,267.7268135417253,267.7268135417253,267.7268135417253,267.7268135417253,267.7268135417253,267.7268135417253,267.7268135417253,267.7268135417253,267.7268135417253,j,2.608067985624075,None,,,,,,,,,,,,,,pilot1,2022-10-14_15h29.51.521,Hippopolis_4AFCT,2022.2.2,60.00903258085784,
Hippopolis,stimuli/subj_files/pilot1_cityA.csv,./stimuli/frankfurt.jpg,./stimuli/street_plate1.png,VÁSÁR UTCA,stimuli/objects/060a.jpg,object,1,stimuli/objects/076a.jpg,stimuli/objects/076b.jpg,stimuli/objects/076a.jpg,stimuli/objects/080b.jpg,stimuli/objects/080a.jpg,lure,target,dist2,dist1,0,0,0,0,0,72,72,40,,,,,,,270.3655631337315,invalid,271.4014072418213,271.4014072418213,271.4014072418213,271.4014072418213,271.4014072418213,271.4014072418213,271.4014072418213,271.4014072418213,271.4014072418213,271.4014072418213,271.4014072418213,271.4014072418213,f,1.894049869850278,None,,,,,,,,,,,,,,pilot1,2022-10-14_15h29.51.521,Hippopolis_4AFCT,2022.2.2,60.00903258085784,
Hippopolis,stimuli/subj_files/pilot1_cityA.csv,./stimuli/frankfurt.jpg,./stimuli/street_plate1.png,KESELYŰ UTCA,stimuli/scenes/027a.jpg,scene,2,stimuli/objects/101a.jpg,stimuli/scenes/044a.jpg,stimuli/objects/101a.jpg,stimuli/objects/101b.jpg,stimuli/scenes/044b.jpg,dist1,target,lure,dist2,0,0,0,0,0,73,73,4,,,,,,,273.32099311985075,invalid,274.3727884348482,274.3727884348482,274.3727884348482,274.3727884348482,274.3727884348482,274.3727884348482,274.3727884348482,274.3727884348482,274.3727884348482,274.3727884348482,274.3727884348482,274.3727884348482,f,2.2340411245822906,None,274.3727884348482,,,,,,,,,,,,,pilot1,2022-10-14_15h29.51.521,Hippopolis_4AFCT,2022.2.2,60.00903258085784,
Hippopolis,stimuli/subj_files/pilot1_cityA.csv,./stimuli/frankfurt.jpg,./stimuli/street_plate1.png,POHÁR UTCA,stimuli/scenes/062a.jpg,scene,1,stimuli/scenes/064a.jpg,stimuli/scenes/064a.jpg,stimuli/scenes/006b.jpg,stimuli/scenes/006a.jpg,stimuli/scenes/064b.jpg,target,dist2,dist1,lure,0,0,0,0,0,74,74,38,,,,,,,276.63608395680785,invalid,277.66324010305107,277.66324010305107,277.66324010305107,277.66324010305107,277.66324010305107,277.66324010305107,277.66324010305107,277.66324010305107,277.66324010305107,277.66324010305107,277.66324010305107,277.66324010305107,d,1.8875613436102867,None,,,,,,,,,,,,,,pilot1,2022-10-14_15h29.51.521,Hippopolis_4AFCT,2022.2.2,60.00903258085784,
Hippopolis,stimuli/subj_files/pilot1_cityA.csv,./stimuli/frankfurt.jpg,./stimuli/street_plate1.png,LÁNDZSA UTCA,stimuli/scenes/041a.jpg,scene,1,stimuli/scenes/116a.jpg,stimuli/scenes/116b.jpg,stimuli/scenes/116a.jpg,stimuli/objects/100a.jpg,stimuli/objects/100b.jpg,lure,target,dist1,dist2,0,0,0,0,0,75,75,32,,,,,,,279.5711766127497,invalid,280.61298395879567,280.61298395879567,280.61298395879567,280.61298395879567,280.61298395879567,280.61298395879567,280.61298395879567,280.61298395879567,280.61298395879567,280.61298395879567,280.61298395879567,280.61298395879567,f,2.6183088049292564,None,,,,,,,,,,,,,,pilot1,2022-10-14_15h29.51.521,Hippopolis_4AFCT,2022.2.2,60.00903258085784,
Hippopolis,stimuli/subj_files/pilot1_cityA.csv,./stimuli/frankfurt.jpg,./stimuli/street_plate1.png,KULACS UTCA,stimuli/objects/045a.jpg,object,1,stimuli/objects/073a.jpg,stimuli/objects/073a.jpg,stimuli/objects/073b.jpg,stimuli/scenes/002a.jpg,stimuli/scenes/002b.jpg,target,lure,dist1,dist2,0,0,0,0,0,76,76,51,,,,,,,283.26676355674863,invalid,284.30588069558144,284.30588069558144,284.30588069558144,284.30588069558144,284.30588069558144,284.30588069558144,284.30588069558144,284.30588069558144,284.30588069558144,284.30588069558144,284.30588069558144,284.30588069558144,d,1.5483025088906288,None,,,,,,,,,,,,,,pilot1,2022-10-14_15h29.51.521,Hippopolis_4AFCT,2022.2.2,60.00903258085784,
Hippopolis,stimuli/subj_files/pilot1_cityA.csv,./stimuli/frankfurt.jpg,./stimuli/street_plate1.png,POLIP UTCA,stimuli/objects/039a.jpg,object,0,stimuli/objects/039a.jpg,stimuli/objects/101a.jpg,stimuli/objects/039b.jpg,stimuli/objects/101b.jpg,stimuli/objects/039a.jpg,dist1,lure,dist2,target,0,0,0,0,0,77,77,12,,,,,,,285.8821130283177,invalid,286.9207350462675,286.9207350462675,286.9207350462675,286.9207350462675,286.9207350462675,286.9207350462675,286.9207350462675,286.9207350462675,286.9207350462675,286.9207350462675,286.9207350462675,286.9207350462675,k,1.4459347538650036,None,,,,,,,,,,,,,,pilot1,2022-10-14_15h29.51.521,Hippopolis_4AFCT,2022.2.2,60.00903258085784,
Hippopolis,stimuli/subj_files/pilot1_cityA.csv,./stimuli/frankfurt.jpg,./stimuli/street_plate1.png,BICIKLI UTCA,stimuli/objects/027a.jpg,object,2,stimuli/scenes/026a.jpg,stimuli/scenes/029b.jpg,stimuli/scenes/026b.jpg,stimuli/scenes/029a.jpg,stimuli/scenes/026a.jpg,dist2,lure,dist1,target,0,0,0,0,0,78,78,47,,,,,,,288.3881107866764,invalid,289.42124509625137,289.42124509625137,289.42124509625137,289.42124509625137,289.42124509625137,289.42124509625137,289.42124509625137,289.42124509625137,289.42124509625137,289.42124509625137,289.42124509625137,289.42124509625137,f,2.993665838614106,None,289.42124509625137,,,,,,,,,,,,,pilot1,2022-10-14_15h29.51.521,Hippopolis_4AFCT,2022.2.2,60.00903258085784,
Hippopolis,stimuli/subj_files/pilot1_cityA.csv,./stimuli/frankfurt.jpg,./stimuli/street_plate1.png,ASZTAL UTCA,stimuli/objects/016a.jpg,object,0,stimuli/objects/016a.jpg,stimuli/objects/016a.jpg,stimuli/scenes/046b.jpg,stimuli/scenes/046a.jpg,stimuli/objects/016b.jpg,target,dist2,dist1,lure,0,0,0,0,0,79,79,56,,,,,,,292.4325103703886,invalid,293.46732349321246,293.46732349321246,293.46732349321246,293.46732349321246,293.46732349321246,293.46732349321246,293.46732349321246,293.46732349321246,293.46732349321246,293.46732349321246,293.46732349321246,293.46732349321246,d,1.219045640900731,None,293.46732349321246,,,,,,,,,,,,,pilot1,2022-10-14_15h29.51.521,Hippopolis_4AFCT,2022.2.2,60.00903258085784,
Camponello,stimuli/subj_files/pilot1_cityB.csv,./stimuli/leipzig.jpg,./stimuli/street_plate2.png,MEDVE UTCA,stimuli/scenes/063a.jpg,scene,0,stimuli/scenes/063a.jpg,stimuli/scenes/063b.jpg,stimuli/scenes/063a.jpg,stimuli/scenes/101b.jpg,stimuli/scenes/101a.jpg,lure,target,dist2,dist1,0,1,1,1,0,0,0,74,,,,,355.49529571831226,355.49529571831226,358.4944155700505,invalid,359.5386251285672,359.5386251285672,359.5386251285672,359.5386251285672,359.5386251285672,359.5386251285672,359.5386251285672,359.5386251285672,359.5386251285672,359.5386251285672,359.5386251285672,359.5386251285672,k,1.962905129417777,None,,,,,0,0,0,0,294.7041682321578,294.7041682321578,space,60.733976745978,,pilot1,2022-10-14_15h29.51.521,Hippopolis_4AFCT,2022.2.2,60.00903258085784,
Camponello,stimuli/subj_files/pilot1_cityB.csv,./stimuli/leipzig.jpg,./stimuli/street_plate2.png,LÁMPA UTCA,stimuli/objects/009a.jpg,object,2,stimuli/scenes/039a.jpg,stimuli/objects/005b.jpg,stimuli/scenes/039a.jpg,stimuli/scenes/039b.jpg,stimuli/objects/005a.jpg,dist2,target,lure,dist1,0,1,1,1,0,1,1,55,,,,,,,361.5276478473097,invalid,362.62639486417174,362.62639486417174,362.62639486417174,362.62639486417174,362.62639486417174,362.62639486417174,362.62639486417174,362.62639486417174,362.62639486417174,362.62639486417174,362.62639486417174,362.62639486417174,j,1.8350410722196102,None,362.62639486417174,,,,,,,,,,,,,pilot1,2022-10-14_15h29.51.521,Hippopolis_4AFCT,2022.2.2,60.00903258085784,
Camponello,stimuli/subj_files/pilot1_cityB.csv,./stimuli/leipzig.jpg,./stimuli/street_plate2.png,SUGÁR UTCA,stimuli/objects/098a.jpg,object,1,stimuli/objects/019a.jpg,stimuli/objects/019b.jpg,stimuli/scenes/042a.jpg,stimuli/scenes/042b.jpg,stimuli/objects/019a.jpg,lure,dist1,dist2,target,0,1,1,1,0,2,2,3,,,,,,,364.4847902338952,invalid,365.5177858341485,365.5177858341485,365.5177858341485,365.5177858341485,365.5177858341485,365.5177858341485,365.5177858341485,365.5177858341485,365.5177858341485,365.5177858341485,365.5177858341485,365.5177858341485,k,2.3836367540061474,None,365.5177858341485,,,,,,,,,,,,,pilot1,2022-10-14_15h29.51.521,Hippopolis_4AFCT,2022.2.2,60.00903258085784,
Camponello,stimuli/subj_files/pilot1_cityB.csv,./stimuli/leipzig.jpg,./stimuli/street_plate2.png,ÁLLOMÁS UTCA,stimuli/objects/001a.jpg,object,0,stimuli/objects/001a.jpg,stimuli/objects/001b.jpg,stimuli/objects/001a.jpg,stimuli/objects/107b.jpg,stimuli/objects/107a.jpg,lure,target,dist2,dist1,0,1,1,1,0,3,3,76,,,,,,,367.92891917936504,invalid,368.98690352216363,368.98690352216363,368.98690352216363,368.98690352216363,368.98690352216363,368.98690352216363,368.98690352216363,368.98690352216363,368.98690352216363,368.98690352216363,368.98690352216363,368.98690352216363,f,1.474813874810934,None,,,,,,,,,,,,,,pilot1,2022-10-14_15h29.51.521,Hippopolis_4AFCT,2022.2.2,60.00903258085784,
Camponello,stimuli/subj_files/pilot1_cityB.csv,./stimuli/leipzig.jpg,./stimuli/street_plate2.png,MÁRVÁNY UTCA,stimuli/scenes/036a.jpg,scene,2,stimuli/objects/029a.jpg,stimuli/objects/029a.jpg,stimuli/objects/108b.jpg,stimuli/objects/108a.jpg,stimuli/objects/029b.jpg,target,dist2,dist1,lure,0,1,1,1,0,4,4,71,,,,,,,370.4866671562195,invalid,371.53523640334606,371.53523640334606,371.53523640334606,371.53523640334606,371.53523640334606,371.53523640334606,371.53523640334606,371.53523640334606,371.53523640334606,371.53523640334606,371.53523640334606,371.53523640334606,d,1.646354116499424,None,,,,,,,,,,,,,,pilot1,2022-10-14_15h29.51.521,Hippopolis_4AFCT,2022.2.2,60.00903258085784,
Camponello,stimuli/subj_files/pilot1_cityB.csv,./stimuli/leipzig.jpg,./stimuli/street_plate2.png,FEJSZE UTCA,stimuli/objects/079a.jpg,object,2,stimuli/scenes/101a.jpg,stimuli/objects/083b.jpg,stimuli/scenes/101b.jpg,stimuli/scenes/101a.jpg,stimuli/objects/083a.jpg,dist2,lure,target,dist1,0,1,1,1,0,5,5,48,,,,,,,373.2044170387089,invalid,374.2464473750442,374.2464473750442,374.2464473750442,374.2464473750442,374.2464473750442,374.2464473750442,374.2464473750442,374.2464473750442,374.2464473750442,374.2464473750442,374.2464473750442,374.2464473750442,f,2.118911223486066,None,374.2464473750442,,,,,,,,,,,,,pilot1,2022-10-14_15h29.51.521,Hippopolis_4AFCT,2022.2.2,60.00903258085784,
Camponello,stimuli/subj_files/pilot1_cityB.csv,./stimuli/leipzig.jpg,./stimuli/street_plate2.png,HEGESZTŐ UTCA,stimuli/objects/052a.jpg,object,0,stimuli/objects/052a.jpg,stimuli/objects/052a.jpg,stimuli/objects/067a.jpg,stimuli/objects/067b.jpg,stimuli/objects/052b.jpg,target,dist1,dist2,lure,0,1,1,1,0,6,6,66,,,,,,,376.39586759731174,invalid,377.4838304668665,377.4838304668665,377.4838304668665,377.4838304668665,377.4838304668665,377.4838304668665,377.4838304668665,377.4838304668665,377.4838304668665,377.4838304668665,377.4838304668665,377.4838304668665,d,1.3300515972077847,None,,,,,,,,,,,,,,pilot1,2022-10-14_15h29.51.521,Hippopolis_4AFCT,2022.2.2,60.00903258085784,
Camponello,stimuli/subj_files/pilot1_cityB.csv,./stimuli/leipzig.jpg,./stimuli/street_plate2.png,SZÚNYOG UTCA,stimuli/objects/084a.jpg,object,0,stimuli/objects/084a.jpg,stimuli/objects/084b.jpg,stimuli/objects/023b.jpg,stimuli/objects/084a.jpg,stimuli/objects/023a.jpg,lure,dist2,target,dist1,0,1,1,1,0,7,7,63,,,,,,,378.8378499764949,invalid,379.8708514869213,379.8708514869213,379.8708514869213,379.8708514869213,379.8708514869213,379.8708514869213,379.8708514869213,379.8708514869213,379.8708514869213,379.8708514869213,379.8708514869213,379.8708514869213,j,1.838392786681652,None,,,,,,,,,,,,,,pilot1,2022-10-14_15h29.51.521,Hippopolis_4AFCT,2022.2.2,60.00903258085784,
Camponello,stimuli/subj_files/pilot1_cityB.csv,./stimuli/leipzig.jpg,./stimuli/street_plate2.png,KÖMÉNYMAG UTCA,stimuli/scenes/093a.jpg,scene,0,stimuli/scenes/093a.jpg,stimuli/scenes/093b.jpg,stimuli/objects/007b.jpg,stimuli/scenes/093a.jpg,stimuli/objects/007a.jpg,lure,dist2,target,dist1,0,1,1,1,0,8,8,15,,,,,,,381.73759955354035,invalid,382.79087028466165,382.79087028466165,382.79087028466165,382.79087028466165,382.79087028466165,382.79087028466165,382.79087028466165,382.79087028466165,382.79087028466165,382.79087028466165,382.79087028466165,382.79087028466165,j,1.6880622506141663,None,382.79087028466165,,,,,,,,,,,,,pilot1,2022-10-14_15h29.51.521,Hippopolis_4AFCT,2022.2.2,60.00903258085784,
Camponello,stimuli/subj_files/pilot1_cityB.csv,./stimuli/leipzig.jpg,./stimuli/street_plate2.png,PULÓVER UTCA,stimuli/scenes/091a.jpg,scene,1,stimuli/scenes/042a.jpg,stimuli/scenes/099b.jpg,stimuli/scenes/099a.jpg,stimuli/scenes/042a.jpg,stimuli/scenes/042b.jpg,dist2,dist1,target,lure,0,1,1,1,0,9,9,7,,,,,,,384.49719814397395,invalid,385.5565310101956,385.5565310101956,385.5565310101956,385.5565310101956,385.5565310101956,385.5565310101956,385.5565310101956,385.5565310101956,385.5565310101956,385.5565310101956,385.5565310101956,385.5565310101956,j,1.880508029833436,None,,,,,,,,,,,,,,pilot1,2022-10-14_15h29.51.521,Hippopolis_4AFCT,2022.2.2,60.00903258085784,
Camponello,stimuli/subj_files/pilot1_cityB.csv,./stimuli/leipzig.jpg,./stimuli/street_plate2.png,SIRÁLY UTCA,stimuli/scenes/013a.jpg,scene,0,stimuli/scenes/013a.jpg,stimuli/scenes/013a.jpg,stimuli/scenes/102a.jpg,stimuli/scenes/102b.jpg,stimuli/scenes/013b.jpg,target,dist1,dist2,lure,0,1,1,1,0,10,10,40,,,,,,,387.46180406212807,invalid,388.4971542917192,388.4971542917192,388.4971542917192,388.4971542917192,388.4971542917192,388.4971542917192,388.4971542917192,388.4971542917192,388.4971542917192,388.4971542917192,388.4971542917192,388.4971542917192,d,1.7082036472856998,None,,,,,,,,,,,,,,pilot1,2022-10-14_15h29.51.521,Hippopolis_4AFCT,2022.2.2,60.00903258085784,
Camponello,stimuli/subj_files/pilot1_cityB.csv,./stimuli/leipzig.jpg,./stimuli/street_plate2.png,KANÁL UTCA,stimuli/scenes/005a.jpg,scene,0,stimuli/scenes/005a.jpg,stimuli/scenes/005b.jpg,stimuli/objects/113b.jpg,stimuli/objects/113a.jpg,stimuli/scenes/005a.jpg,lure,dist2,dist1,target,0,1,1,1,0,11,11,14,,,,,,,390.2377522587776,invalid,391.2992071211338,391.2992071211338,391.2992071211338,391.2992071211338,391.2992071211338,391.2992071211338,391.2992071211338,391.2992071211338,391.2992071211338,391.2992071211338,391.2992071211338,391.2992071211338,k,1.7544375453144312,None,,,,,,,,,,,,,,pilot1,2022-10-14_15h29.51.521,Hippopolis_4AFCT,2022.2.2,60.00903258085784,
Camponello,stimuli/subj_files/pilot1_cityB.csv,./stimuli/leipzig.jpg,./stimuli/street_plate2.png,KÁRÁSZ UTCA,stimuli/objects/005a.jpg,object,0,stimuli/objects/005a.jpg,stimuli/objects/087a.jpg,stimuli/objects/087b.jpg,stimuli/objects/005a.jpg,stimuli/objects/005b.jpg,dist1,dist2,target,lure,0,1,1,1,0,12,12,47,,,,,,,393.06950184330344,invalid,394.1191925778985,394.1191925778985,394.1191925778985,394.1191925778985,394.1191925778985,394.1191925778985,394.1191925778985,394.1191925778985,394.1191925778985,394.1191925778985,394.1191925778985,394.1191925778985,j,1.3823401685804129,None,,,,,,,,,,,,,,pilot1,2022-10-14_15h29.51.521,Hippopolis_4AFCT,2022.2.2,60.00903258085784,
Camponello,stimuli/subj_files/pilot1_cityB.csv,./stimuli/leipzig.jpg,./stimuli/street_plate2.png,KATONA UTCA,stimuli/objects/004a.jpg,object,0,stimuli/objects/004a.jpg,stimuli/objects/004b.jpg,stimuli/scenes/083b.jpg,stimuli/objects/004a.jpg,stimuli/scenes/083a.jpg,lure,dist2,target,dist1,0,1,1,1,0,13,13,32,,,,,,,395.52178973145783,invalid,396.56815083138645,396.56815083138645,396.56815083138645,396.56815083138645,396.56815083138645,396.56815083138645,396.56815083138645,396.56815083138645,396.56815083138645,396.56815083138645,396.56815083138645,396.56815083138645,j,1.8454706724733114,None,,,,,,,,,,,,,,pilot1,2022-10-14_15h29.51.521,Hippopolis_4AFCT,2022.2.2,60.00903258085784,
Camponello,stimuli/subj_files/pilot1_cityB.csv,./stimuli/leipzig.jpg,./stimuli/street_plate2.png,FŰRÉSZ UTCA,stimuli/objects/044a.jpg,object,0,stimuli/objects/044a.jpg,stimuli/scenes/038b.jpg,stimuli/scenes/038a.jpg,stimuli/objects/044a.jpg,stimuli/objects/044b.jpg,dist2,dist1,target,lure,0,1,1,1,0,14,14,42,,,,,,,398.43114194087684,invalid,399.494502030313,399.494502030313,399.494502030313,399.494502030313,399.494502030313,399.494502030313,399.494502030313,399.494502030313,399.494502030313,399.494502030313,399.494502030313,399.494502030313,j,2.2141799461096525,None,,,,,,,,,,,,,,pilot1,2022-10-14_15h29.51.521,Hippopolis_4AFCT,2022.2.2,60.00903258085784,
Camponello,stimuli/subj_files/pilot1_cityB.csv,./stimuli/leipzig.jpg,./stimuli/street_plate2.png,BAGOLY UTCA,stimuli/objects/056a.jpg,object,0,stimuli/objects/056a.jpg,stimuli/scenes/073a.jpg,stimuli/objects/056b.jpg,stimuli/objects/056a.jpg,stimuli/scenes/073b.jpg,dist1,lure,target,dist2,0,1,1,1,0,15,15,61,,,,,,,401.73447238467634,invalid,402.8162306789309,402.8162306789309,402.8162306789309,402.8162306789309,402.8162306789309,402.8162306789309,402.8162306789309,402.8162306789309,402.8162306789309,402.8162306789309,402.8162306789309,402.8162306789309,j,1.4054417237639427,None,,,,,,,,,,,,,,pilot1,2022-10-14_15h29.51.521,Hippopolis_4AFCT,2022.2.2,60.00903258085784,
Camponello,stimuli/subj_files/pilot1_cityB.csv,./stimuli/leipzig.jpg,./stimuli/street_plate2.png,TIGRIS UTCA,stimuli/scenes/048a.jpg,scene,0,stimuli/scenes/048a.jpg,stimuli/scenes/048b.jpg,stimuli/objects/084b.jpg,stimuli/objects/084a.jpg,stimuli/scenes/048a.jpg,lure,dist2,dist1,target,0,1,1,1,0,16,16,44,,,,,,,404.23843553848565,invalid,405.2854447774589,405.2854447774589,405.2854447774589,405.2854447774589,405.2854447774589,405.2854447774589,405.2854447774589,405.2854447774589,405.2854447774589,405.2854447774589,405.2854447774589,405.2854447774589,k,1.495381660759449,None,,,,,,,,,,,,,,pilot1,2022-10-14_15h29.51.521,Hippopolis_4AFCT,2022.2.2,60.00903258085784,
Camponello,stimuli/subj_files/pilot1_cityB.csv,./stimuli/leipzig.jpg,./stimuli/street_plate2.png,FOLYÓ UTCA,stimuli/scenes/089a.jpg,scene,2,stimuli/objects/114a.jpg,stimuli/objects/008b.jpg,stimuli/objects/114a.jpg,stimuli/objects/008a.jpg,stimuli/objects/114b.jpg,dist2,target,dist1,lure,0,1,1,1,0,17,17,12,,,,,,,406.8025040999055,invalid,407.8444470446557,407.8444470446557,407.8444470446557,407.8444470446557,407.8444470446557,407.8444470446557,407.8444470446557,407.8444470446557,407.8444470446557,407.8444470446557,407.8444470446557,407.8444470446557,f,2.0246999226510525,None,,,,,,,,,,,,,,pilot1,2022-10-14_15h29.51.521,Hippopolis_4AFCT,2022.2.2,60.00903258085784,
Camponello,stimuli/subj_files/pilot1_cityB.csv,./stimuli/leipzig.jpg,./stimuli/street_plate2.png,KÍGYÓ UTCA,stimuli/objects/023a.jpg,object,0,stimuli/objects/023a.jpg,stimuli/scenes/107b.jpg,stimuli/objects/023a.jpg,stimuli/objects/023b.jpg,stimuli/scenes/107a.jpg,dist2,target,lure,dist1,0,1,1,1,0,18,18,45,,,,,,,409.8995747938752,invalid,410.9527391586453,410.9527391586453,410.9527391586453,410.9527391586453,410.9527391586453,410.9527391586453,410.9527391586453,410.9527391586453,410.9527391586453,410.9527391586453,410.9527391586453,410.9527391586453,f,2.340389136224985,None,,,,,,,,,,,,,,pilot1,2022-10-14_15h29.51.521,Hippopolis_4AFCT,2022.2.2,60.00903258085784,
Camponello,stimuli/subj_files/pilot1_cityB.csv,./stimuli/leipzig.jpg,./stimuli/street_plate2.png,LÉPCSŐ UTCA,stimuli/objects/003a.jpg,object,0,stimuli/objects/003a.jpg,stimuli/scenes/010a.jpg,stimuli/scenes/010b.jpg,stimuli/objects/003b.jpg,stimuli/objects/003a.jpg,dist1,dist2,lure,target,0,1,1,1,0,19,19,34,,,,,,,413.3227661661804,invalid,414.37721001170576,414.37721001170576,414.37721001170576,414.37721001170576,414.37721001170576,414.37721001170576,414.37721001170576,414.37721001170576,414.37721001170576,414.37721001170576,414.37721001170576,414.37721001170576,j,2.5319053195416927,None,,,,,,,,,,,,,,pilot1,2022-10-14_15h29.51.521,Hippopolis_4AFCT,2022.2.2,60.00903258085784,
Camponello,stimuli/subj_files/pilot1_cityB.csv,./stimuli/leipzig.jpg,./stimuli/street_plate2.png,MOSODA UTCA,stimuli/objects/002a.jpg,object,0,stimuli/objects/002a.jpg,stimuli/objects/002b.jpg,stimuli/objects/092a.jpg,stimuli/objects/002a.jpg,stimuli/objects/092b.jpg,lure,dist1,target,dist2,0,1,1,1,0,20,20,2,,,,,,,416.9356792140752,invalid,417.9885101802647,417.9885101802647,417.9885101802647,417.9885101802647,417.9885101802647,417.9885101802647,417.9885101802647,417.9885101802647,417.9885101802647,417.9885101802647,417.9885101802647,417.9885101802647,j,1.5606413763016462,None,,,,,,,,,,,,,,pilot1,2022-10-14_15h29.51.521,Hippopolis_4AFCT,2022.2.2,60.00903258085784,
Camponello,stimuli/subj_files/pilot1_cityB.csv,./stimuli/leipzig.jpg,./stimuli/street_plate2.png,HAJÓ UTCA,stimuli/objects/078a.jpg,object,1,stimuli/objects/083a.jpg,stimuli/scenes/066b.jpg,stimuli/objects/083a.jpg,stimuli/objects/083b.jpg,stimuli/scenes/066a.jpg,dist2,target,lure,dist1,0,1,1,1,0,21,21,78,,,,,,,419.57227259874344,invalid,420.62878277152777,420.62878277152777,420.62878277152777,420.62878277152777,420.62878277152777,420.62878277152777,420.62878277152777,420.62878277152777,420.62878277152777,420.62878277152777,420.62878277152777,420.62878277152777,f,1.8641173709183931,None,,,,,,,,,,,,,,pilot1,2022-10-14_15h29.51.521,Hippopolis_4AFCT,2022.2.2,60.00903258085784,
Camponello,stimuli/subj_files/pilot1_cityB.csv,./stimuli/leipzig.jpg,./stimuli/street_plate2.png,LIGET UTCA,stimuli/scenes/095a.jpg,scene,0,stimuli/scenes/095a.jpg,stimuli/scenes/115b.jpg,stimuli/scenes/115a.jpg,stimuli/scenes/095b.jpg,stimuli/scenes/095a.jpg,dist2,dist1,lure,target,0,1,1,1,0,22,22,54,,,,,,,422.51895304210484,invalid,423.59577068686485,423.59577068686485,423.59577068686485,423.59577068686485,423.59577068686485,423.59577068686485,423.59577068686485,423.59577068686485,423.59577068686485,423.59577068686485,423.59577068686485,423.59577068686485,k,1.7772377338260412,None,,,,,,,,,,,,,,pilot1,2022-10-14_15h29.51.521,Hippopolis_4AFCT,2022.2.2,60.00903258085784,
Camponello,stimuli/subj_files/pilot1_cityB.csv,./stimuli/leipzig.jpg,./stimuli/street_plate2.png,REPÜLŐ UTCA,stimuli/scenes/056a.jpg,scene,0,stimuli/scenes/056a.jpg,stimuli/scenes/055b.jpg,stimuli/scenes/056a.jpg,stimuli/scenes/055a.jpg,stimuli/scenes/056b.jpg,dist2,target,dist1,lure,0,1,1,1,0,23,23,22,,,,,,,425.4114434197545,invalid,426.4626226313412,426.4626226313412,426.4626226313412,426.4626226313412,426.4626226313412,426.4626226313412,426.4626226313412,426.4626226313412,426.4626226313412,426.4626226313412,426.4626226313412,426.4626226313412,j,2.44639939814806,None,,,,,,,,,,,,,,pilot1,2022-10-14_15h29.51.521,Hippopolis_4AFCT,2022.2.2,60.00903258085784,
Camponello,stimuli/subj_files/pilot1_cityB.csv,./stimuli/leipzig.jpg,./stimuli/street_plate2.png,SZAXOFON UTCA,stimuli/scenes/107a.jpg,scene,0,stimuli/scenes/107a.jpg,stimuli/scenes/063a.jpg,stimuli/scenes/063b.jpg,stimuli/scenes/107b.jpg,stimuli/scenes/107a.jpg,dist1,dist2,lure,target,0,1,1,1,0,24,24,37,,,,,,,428.9374833628535,invalid,429.97814775817096,429.97814775817096,429.97814775817096,429.97814775817096,429.97814775817096,429.97814775817096,429.97814775817096,429.97814775817096,429.97814775817096,429.97814775817096,429.97814775817096,429.97814775817096,k,2.483037196099758,None,,,,,,,,,,,,,,pilot1,2022-10-14_15h29.51.521,Hippopolis_4AFCT,2022.2.2,60.00903258085784,
Camponello,stimuli/subj_files/pilot1_cityB.csv,./stimuli/leipzig.jpg,./stimuli/street_plate2.png,AKÁC UTCA,stimuli/scenes/015a.jpg,scene,0,stimuli/scenes/015a.jpg,stimuli/scenes/015b.jpg,stimuli/objects/075b.jpg,stimuli/scenes/015a.jpg,stimuli/objects/075a.jpg,lure,dist2,target,dist1,0,1,1,1,0,25,25,75,,,,,,,432.48483843915164,invalid,433.5576229542494,433.5576229542494,433.5576229542494,433.5576229542494,433.5576229542494,433.5576229542494,433.5576229542494,433.5576229542494,433.5576229542494,433.5576229542494,433.5576229542494,433.5576229542494,j,2.535375528037548,None,,,,,,,,,,,,,,pilot1,2022-10-14_15h29.51.521,Hippopolis_4AFCT,2022.2.2,60.00903258085784,
Camponello,stimuli/subj_files/pilot1_cityB.csv,./stimuli/leipzig.jpg,./stimuli/street_plate2.png,ELEFÁNT UTCA,stimuli/scenes/099a.jpg,scene,0,stimuli/scenes/099a.jpg,stimuli/scenes/099b.jpg,stimuli/scenes/099a.jpg,stimuli/objects/116b.jpg,stimuli/objects/116a.jpg,lure,target,dist2,dist1,0,1,1,1,0,26,26,51,,,,,,,436.126125222072,invalid,437.1865497212857,437.1865497212857,437.1865497212857,437.1865497212857,437.1865497212857,437.1865497212857,437.1865497212857,437.1865497212857,437.1865497212857,437.1865497212857,437.1865497212857,437.1865497212857,f,2.218292383477092,None,,,,,,,,,,,,,,pilot1,2022-10-14_15h29.51.521,Hippopolis_4AFCT,2022.2.2,60.00903258085784,
Camponello,stimuli/subj_files/pilot1_cityB.csv,./stimuli/leipzig.jpg,./stimuli/street_plate2.png,KOCSI UTCA,stimuli/scenes/066a.jpg,scene,0,stimuli/scenes/066a.jpg,stimuli/scenes/066a.jpg,stimuli/objects/058b.jpg,stimuli/objects/058a.jpg,stimuli/scenes/066b.jpg,target,dist2,dist1,lure,0,1,1,1,0,27,27,73,,,,,,,439.44504765979946,invalid,440.54280443303287,440.54280443303287,440.54280443303287,440.54280443303287,440.54280443303287,440.54280443303287,440.54280443303287,440.54280443303287,440.54280443303287,440.54280443303287,440.54280443303287,440.54280443303287,d,1.950107216835022,None,,,,,,,,,,,,,,pilot1,2022-10-14_15h29.51.521,Hippopolis_4AFCT,2022.2.2,60.00903258085784,
Camponello,stimuli/subj_files/pilot1_cityB.csv,./stimuli/leipzig.jpg,./stimuli/street_plate2.png,BOLYGÓ UTCA,stimuli/objects/113a.jpg,object,0,stimuli/objects/113a.jpg,stimuli/objects/113a.jpg,stimuli/scenes/112a.jpg,stimuli/objects/113b.jpg,stimuli/scenes/112b.jpg,target,dist1,lure,dist2,0,1,1,1,0,28,28,64,,,,,,,442.5189763661474,invalid,443.59742399677634,443.59742399677634,443.59742399677634,443.59742399677634,443.59742399677634,443.59742399677634,443.59742399677634,443.59742399677634,443.59742399677634,443.59742399677634,443.59742399677634,443.59742399677634,j,1.7107150219380856,None,,,,,,,,,,,,,,pilot1,2022-10-14_15h29.51.521,Hippopolis_4AFCT,2022.2.2,60.00903258085784,
Camponello,stimuli/subj_files/pilot1_cityB.csv,./stimuli/leipzig.jpg,./stimuli/street_plate2.png,FÉNYKÉP UTCA,stimuli/scenes/011a.jpg,scene,0,stimuli/scenes/011a.jpg,stimuli/scenes/011a.jpg,stimuli/scenes/011b.jpg,stimuli/scenes/065b.jpg,stimuli/scenes/065a.jpg,target,lure,dist2,dist1,0,1,1,1,0,29,29,29,,,,,,,445.33726590685546,invalid,446.3660598117858,446.3660598117858,446.3660598117858,446.3660598117858,446.3660598117858,446.3660598117858,446.3660598117858,446.3660598117858,446.3660598117858,446.3660598117858,446.3660598117858,446.3660598117858,d,1.7104935869574547,None,,,,,,,,,,,,,,pilot1,2022-10-14_15h29.51.521,Hippopolis_4AFCT,2022.2.2,60.00903258085784,
Camponello,stimuli/subj_files/pilot1_cityB.csv,./stimuli/leipzig.jpg,./stimuli/street_plate2.png,PALACK UTCA,stimuli/scenes/010a.jpg,scene,0,stimuli/scenes/010a.jpg,stimuli/scenes/010b.jpg,stimuli/scenes/010a.jpg,stimuli/scenes/033a.jpg,stimuli/scenes/033b.jpg,lure,target,dist1,dist2,0,1,1,1,0,30,30,46,,,,,,,448.11549346894026,invalid,449.16773663274944,449.16773663274944,449.16773663274944,449.16773663274944,449.16773663274944,449.16773663274944,449.16773663274944,449.16773663274944,449.16773663274944,449.16773663274944,449.16773663274944,449.16773663274944,f,2.941609589383006,None,,,,,,,,,,,,,,pilot1,2022-10-14_15h29.51.521,Hippopolis_4AFCT,2022.2.2,60.00903258085784,
Camponello,stimuli/subj_files/pilot1_cityB.csv,./stimuli/leipzig.jpg,./stimuli/street_plate2.png,SZŐLŐ UTCA,stimuli/objects/071a.jpg,object,0,stimuli/objects/071a.jpg,stimuli/objects/096b.jpg,stimuli/objects/071b.jpg,stimuli/objects/096a.jpg,stimuli/objects/071a.jpg,dist2,lure,dist1,target,0,1,1,1,0,31,31,9,,,,,,,452.1358687411994,invalid,453.20108087174594,453.20108087174594,453.20108087174594,453.20108087174594,453.20108087174594,453.20108087174594,453.20108087174594,453.20108087174594,453.20108087174594,453.20108087174594,453.20108087174594,453.20108087174594,f,2.459437720477581,None,,,,,,,,,,,,,,pilot1,2022-10-14_15h29.51.521,Hippopolis_4AFCT,2022.2.2,60.00903258085784,
Camponello,stimuli/subj_files/pilot1_cityB.csv,./stimuli/leipzig.jpg,./stimuli/street_plate2.png,FÓKA UTCA,stimuli/scenes/034a.jpg,scene,0,stimuli/scenes/034a.jpg,stimuli/scenes/034a.jpg,stimuli/objects/004a.jpg,stimuli/scenes/034b.jpg,stimuli/objects/004b.jpg,target,dist1,lure,dist2,0,1,1,1,0,32,32,70,,,,,,,455.67876927368343,invalid,456.71666446886957,456.71666446886957,456.71666446886957,456.71666446886957,456.71666446886957,456.71666446886957,456.71666446886957,456.71666446886957,456.71666446886957,456.71666446886957,456.71666446886957,456.71666446886957,d,1.6154571864753962,None,,,,,,,,,,,,,,pilot1,2022-10-14_15h29.51.521,Hippopolis_4AFCT,2022.2.2,60.00903258085784,
Camponello,stimuli/subj_files/pilot1_cityB.csv,./stimuli/leipzig.jpg,./stimuli/street_plate2.png,ZONGORA UTCA,stimuli/scenes/110a.jpg,scene,2,stimuli/objects/074a.jpg,stimuli/scenes/048a.jpg,stimuli/objects/074a.jpg,stimuli/objects/074b.jpg,stimuli/scenes/048b.jpg,dist1,target,lure,dist2,0,1,1,1,0,33,33,21,,,,,,,458.35353527218103,invalid,459.3889554794878,459.3889554794878,459.3889554794878,459.3889554794878,459.3889554794878,459.3889554794878,459.3889554794878,459.3889554794878,459.3889554794878,459.3889554794878,459.3889554794878,459.3889554794878,f,3.7760839015245438,None,459.3889554794878,,,,,,,,,,,,,pilot1,2022-10-14_15h29.51.521,Hippopolis_4AFCT,2022.2.2,60.00903258085784,
Camponello,stimuli/subj_files/pilot1_cityB.csv,./stimuli/leipzig.jpg,./stimuli/street_plate2.png,KARTON UTCA,stimuli/objects/095a.jpg,object,0,stimuli/objects/095a.jpg,stimuli/scenes/005b.jpg,stimuli/scenes/005a.jpg,stimuli/objects/095a.jpg,stimuli/objects/095b.jpg,dist2,dist1,target,lure,0,1,1,1,0,34,34,77,,,,,,,463.2018210683018,invalid,464.24363556690514,464.24363556690514,464.24363556690514,464.24363556690514,464.24363556690514,464.24363556690514,464.24363556690514,464.24363556690514,464.24363556690514,464.24363556690514,464.24363556690514,464.24363556690514,j,1.6245438605546951,None,,,,,,,,,,,,,,pilot1,2022-10-14_15h29.51.521,Hippopolis_4AFCT,2022.2.2,60.00903258085784,
Camponello,stimuli/subj_files/pilot1_cityB.csv,./stimuli/leipzig.jpg,./stimuli/street_plate2.png,PÁLMAFA UTCA,stimuli/scenes/074a.jpg,scene,2,stimuli/objects/067a.jpg,stimuli/objects/067a.jpg,stimuli/scenes/053a.jpg,stimuli/objects/067b.jpg,stimuli/scenes/053b.jpg,target,dist1,lure,dist2,0,1,1,1,0,35,35,25,,,,,,,465.8985008876771,invalid,466.9322015400976,466.9322015400976,466.9322015400976,466.9322015400976,466.9322015400976,466.9322015400976,466.9322015400976,466.9322015400976,466.9322015400976,466.9322015400976,466.9322015400976,466.9322015400976,d,3.2561900671571493,None,466.9322015400976,,,,,,,,,,,,,pilot1,2022-10-14_15h29.51.521,Hippopolis_4AFCT,2022.2.2,60.00903258085784,
Camponello,stimuli/subj_files/pilot1_cityB.csv,./stimuli/leipzig.jpg,./stimuli/street_plate2.png,RÁDIÓ UTCA,stimuli/scenes/115a.jpg,scene,0,stimuli/scenes/115a.jpg,stimuli/objects/095b.jpg,stimuli/scenes/115a.jpg,stimuli/scenes/115b.jpg,stimuli/objects/095a.jpg,dist2,target,lure,dist1,0,1,1,1,0,36,36,72,,,,,,,470.2053584549576,invalid,471.2393928170204,471.2393928170204,471.2393928170204,471.2393928170204,471.2393928170204,471.2393928170204,471.2393928170204,471.2393928170204,471.2393928170204,471.2393928170204,471.2393928170204,471.2393928170204,f,1.3009351789951324,None,471.2393928170204,,,,,,,,,,,,,pilot1,2022-10-14_15h29.51.521,Hippopolis_4AFCT,2022.2.2,60.00903258085784,
Camponello,stimuli/subj_files/pilot1_cityB.csv,./stimuli/leipzig.jpg,./stimuli/street_plate2.png,ÜVEG UTCA,stimuli/objects/103a.jpg,object,0,stimuli/objects/103a.jpg,stimuli/objects/103b.jpg,stimuli/objects/103a.jpg,stimuli/scenes/025a.jpg,stimuli/scenes/025b.jpg,lure,target,dist1,dist2,0,1,1,1,0,37,37,79,,,,,,,472.57152214087546,invalid,473.6384774632752,473.6384774632752,473.6384774632752,473.6384774632752,473.6384774632752,473.6384774632752,473.6384774632752,473.6384774632752,473.6384774632752,473.6384774632752,473.6384774632752,473.6384774632752,f,1.1898141484707594,None,473.6384774632752,,,,,,,,,,,,,pilot1,2022-10-14_15h29.51.521,Hippopolis_4AFCT,2022.2.2,60.00903258085784,
Camponello,stimuli/subj_files/pilot1_cityB.csv,./stimuli/leipzig.jpg,./stimuli/street_plate2.png,FOGAS UTCA,stimuli/objects/094a.jpg,object,1,stimuli/objects/007a.jpg,stimuli/scenes/015a.jpg,stimuli/objects/007b.jpg,stimuli/objects/007a.jpg,stimuli/scenes/015b.jpg,dist1,lure,target,dist2,0,1,1,1,0,38,38,60,,,,,,,474.8552955687046,invalid,475.89416390284896,475.89416390284896,475.89416390284896,475.89416390284896,475.89416390284896,475.89416390284896,475.89416390284896,475.89416390284896,475.89416390284896,475.89416390284896,475.89416390284896,475.89416390284896,j,2.4695348534733057,None,,,,,,,,,,,,,,pilot1,2022-10-14_15h29.51.521,Hippopolis_4AFCT,2022.2.2,60.00903258085784,
Camponello,stimuli/subj_files/pilot1_cityB.csv,./stimuli/leipzig.jpg,./stimuli/street_plate2.png,KALAPÁCS UTCA,stimuli/objects/069a.jpg,object,1,stimuli/objects/096a.jpg,stimuli/objects/031a.jpg,stimuli/objects/031b.jpg,stimuli/objects/096b.jpg,stimuli/objects/096a.jpg,dist1,dist2,lure,target,0,1,1,1,0,39,39,36,,,,,,,478.3975386340171,invalid,479.4552788361907,479.4552788361907,479.4552788361907,479.4552788361907,479.4552788361907,479.4552788361907,479.4552788361907,479.4552788361907,479.4552788361907,479.4552788361907,479.4552788361907,479.4552788361907,k,1.7569921519607306,None,,,,,,,,,,,,,,pilot1,2022-10-14_15h29.51.521,Hippopolis_4AFCT,2022.2.2,60.00903258085784,
Camponello,stimuli/subj_files/pilot1_cityB.csv,./stimuli/leipzig.jpg,./stimuli/street_plate2.png,PISZTRÁNG UTCA,stimuli/scenes/025a.jpg,scene,0,stimuli/scenes/025a.jpg,stimuli/scenes/025a.jpg,stimuli/scenes/095b.jpg,stimuli/scenes/025b.jpg,stimuli/scenes/095a.jpg,target,dist2,lure,dist1,0,1,1,1,0,40,40,27,,,,,,,481.2427691016346,invalid,482.2698599360883,482.2698599360883,482.2698599360883,482.2698599360883,482.2698599360883,482.2698599360883,482.2698599360883,482.2698599360883,482.2698599360883,482.2698599360883,482.2698599360883,482.2698599360883,d,3.0387399960309267,None,,,,,,,,,,,,,,pilot1,2022-10-14_15h29.51.521,Hippopolis_4AFCT,2022.2.2,60.00903258085784,
Camponello,stimuli/subj_files/pilot1_cityB.csv,./stimuli/leipzig.jpg,./stimuli/street_plate2.png,MOCSÁR UTCA,stimuli/objects/031a.jpg,object,0,stimuli/objects/031a.jpg,stimuli/scenes/013a.jpg,stimuli/scenes/013b.jpg,stimuli/objects/031a.jpg,stimuli/objects/031b.jpg,dist1,dist2,target,lure,0,1,1,1,0,41,41,58,,,,,,,485.337254088372,invalid,486.375545816496,486.375545816496,486.375545816496,486.375545816496,486.375545816496,486.375545816496,486.375545816496,486.375545816496,486.375545816496,486.375545816496,486.375545816496,486.375545816496,j,2.100824024528265,None,,,,,,,,,,,,,,pilot1,2022-10-14_15h29.51.521,Hippopolis_4AFCT,2022.2.2,60.00903258085784,
Camponello,stimuli/subj_files/pilot1_cityB.csv,./stimuli/leipzig.jpg,./stimuli/street_plate2.png,KAKAÓ UTCA,stimuli/scenes/016a.jpg,scene,0,stimuli/scenes/016a.jpg,stimuli/scenes/075b.jpg,stimuli/scenes/075a.jpg,stimuli/scenes/016a.jpg,stimuli/scenes/016b.jpg,dist2,dist1,target,lure,0,1,1,1,0,42,42,18,,,,,,,488.5053278505802,invalid,489.55804436840117,489.55804436840117,489.55804436840117,489.55804436840117,489.55804436840117,489.55804436840117,489.55804436840117,489.55804436840117,489.55804436840117,489.55804436840117,489.55804436840117,489.55804436840117,j,2.069399628788233,None,489.55804436840117,,,,,,,,,,,,,pilot1,2022-10-14_15h29.51.521,Hippopolis_4AFCT,2022.2.2,60.00903258085784,
Camponello,stimuli/subj_files/pilot1_cityB.csv,./stimuli/leipzig.jpg,./stimuli/street_plate2.png,TELEP UTCA,stimuli/scenes/033a.jpg,scene,0,stimuli/scenes/033a.jpg,stimuli/scenes/033a.jpg,stimuli/scenes/011a.jpg,stimuli/scenes/011b.jpg,stimuli/scenes/033b.jpg,target,dist1,dist2,lure,0,1,1,1,0,43,43,17,,,,,,,491.65554144978523,invalid,492.68966133892536,492.68966133892536,492.68966133892536,492.68966133892536,492.68966133892536,492.68966133892536,492.68966133892536,492.68966133892536,492.68966133892536,492.68966133892536,492.68966133892536,492.68966133892536,d,1.9783621467649937,None,,,,,,,,,,,,,,pilot1,2022-10-14_15h29.51.521,Hippopolis_4AFCT,2022.2.2,60.00903258085784,
Camponello,stimuli/subj_files/pilot1_cityB.csv,./stimuli/leipzig.jpg,./stimuli/street_plate2.png,TENGER UTCA,stimuli/scenes/037a.jpg,scene,1,stimuli/scenes/119a.jpg,stimuli/objects/081a.jpg,stimuli/objects/081b.jpg,stimuli/scenes/119a.jpg,stimuli/scenes/119b.jpg,dist1,dist2,target,lure,0,1,1,1,0,44,44,59,,,,,,,494.6920825242996,invalid,495.7777144033462,495.7777144033462,495.7777144033462,495.7777144033462,495.7777144033462,495.7777144033462,495.7777144033462,495.7777144033462,495.7777144033462,495.7777144033462,495.7777144033462,495.7777144033462,j,2.6822050660848618,space,,498.48467702791095,498.48467702791095,10.295023879036307,,,,,,,,,,pilot1,2022-10-14_15h29.51.521,Hippopolis_4AFCT,2022.2.2,60.00903258085784,
Camponello,stimuli/subj_files/pilot1_cityB.csv,./stimuli/leipzig.jpg,./stimuli/street_plate2.png,HENTES UTCA,stimuli/objects/063a.jpg,object,2,stimuli/scenes/090a.jpg,stimuli/scenes/090a.jpg,stimuli/scenes/019b.jpg,stimuli/scenes/019a.jpg,stimuli/scenes/090b.jpg,target,dist2,dist1,lure,0,1,1,1,0,45,45,56,,,,,,,508.79950257763267,invalid,509.84248490445316,509.84248490445316,509.84248490445316,509.84248490445316,509.84248490445316,509.84248490445316,509.84248490445316,509.84248490445316,509.84248490445316,509.84248490445316,509.84248490445316,509.84248490445316,j,2.937041837722063,None,,,,,,,,,,,,,,pilot1,2022-10-14_15h29.51.521,Hippopolis_4AFCT,2022.2.2,60.00903258085784,
Camponello,stimuli/subj_files/pilot1_cityB.csv,./stimuli/leipzig.jpg,./stimuli/street_plate2.png,BETON UTCA,stimuli/objects/116a.jpg,object,0,stimuli/objects/116a.jpg,stimuli/objects/116b.jpg,stimuli/objects/116a.jpg,stimuli/objects/001b.jpg,stimuli/objects/001a.jpg,lure,target,dist2,dist1,0,1,1,1,0,46,46,52,,,,,,,512.7998605463654,invalid,513.8411562852561,513.8411562852561,513.8411562852561,513.8411562852561,513.8411562852561,513.8411562852561,513.8411562852561,513.8411562852561,513.8411562852561,513.8411562852561,513.8411562852561,513.8411562852561,f,1.6424777321517467,None,,,,,,,,,,,,,,pilot1,2022-10-14_15h29.51.521,Hippopolis_4AFCT,2022.2.2,60.00903258085784,
Camponello,stimuli/subj_files/pilot1_cityB.csv,./stimuli/leipzig.jpg,./stimuli/street_plate2.png,KERÉK UTCA,stimuli/objects/085a.jpg,object,2,stimuli/scenes/053a.jpg,stimuli/scenes/052b.jpg,stimuli/scenes/053b.jpg,stimuli/scenes/052a.jpg,stimuli/scenes/053a.jpg,dist2,lure,dist1,target,0,1,1,1,0,47,47,43,,,,,,,515.504799451679,invalid,516.5737598314881,516.5737598314881,516.5737598314881,516.5737598314881,516.5737598314881,516.5737598314881,516.5737598314881,516.5737598314881,516.5737598314881,516.5737598314881,516.5737598314881,516.5737598314881,k,2.54163608700037,None,,,,,,,,,,,,,,pilot1,2022-10-14_15h29.51.521,Hippopolis_4AFCT,2022.2.2,60.00903258085784,
Camponello,stimuli/subj_files/pilot1_cityB.csv,./stimuli/leipzig.jpg,./stimuli/street_plate2.png,SAPKA UTCA,stimuli/objects/092a.jpg,object,0,stimuli/objects/092a.jpg,stimuli/scenes/093a.jpg,stimuli/scenes/093b.jpg,stimuli/objects/092a.jpg,stimuli/objects/092b.jpg,dist1,dist2,target,lure,0,1,1,1,0,48,48,53,,,,,,,519.1374987252057,invalid,520.1866187639534,520.1866187639534,520.1866187639534,520.1866187639534,520.1866187639534,520.1866187639534,520.1866187639534,520.1866187639534,520.1866187639534,520.1866187639534,520.1866187639534,520.1866187639534,j,1.9053736124187708,None,,,,,,,,,,,,,,pilot1,2022-10-14_15h29.51.521,Hippopolis_4AFCT,2022.2.2,60.00903258085784,
Camponello,stimuli/subj_files/pilot1_cityB.csv,./stimuli/leipzig.jpg,./stimuli/street_plate2.png,TERASZ UTCA,stimuli/objects/050a.jpg,object,0,stimuli/objects/050a.jpg,stimuli/scenes/049a.jpg,stimuli/objects/050a.jpg,stimuli/objects/050b.jpg,stimuli/scenes/049b.jpg,dist1,target,lure,dist2,0,1,1,1,0,49,49,62,,,,,,,522.1110398564488,invalid,523.1758433263749,523.1758433263749,523.1758433263749,523.1758433263749,523.1758433263749,523.1758433263749,523.1758433263749,523.1758433263749,523.1758433263749,523.1758433263749,523.1758433263749,523.1758433263749,f,1.9722147956490517,None,,,,,,,,,,,,,,pilot1,2022-10-14_15h29.51.521,Hippopolis_4AFCT,2022.2.2,60.00903258085784,
Camponello,stimuli/subj_files/pilot1_cityB.csv,./stimuli/leipzig.jpg,./stimuli/street_plate2.png,SÜTŐ UTCA,stimuli/scenes/073a.jpg,scene,0,stimuli/scenes/073a.jpg,stimuli/objects/019a.jpg,stimuli/objects/019b.jpg,stimuli/scenes/073b.jpg,stimuli/scenes/073a.jpg,dist1,dist2,lure,target,0,1,1,1,0,50,50,38,,,,,,,525.1754623427987,invalid,526.201519081369,526.201519081369,526.201519081369,526.201519081369,526.201519081369,526.201519081369,526.201519081369,526.201519081369,526.201519081369,526.201519081369,526.201519081369,526.201519081369,k,1.970321387052536,None,,,,,,,,,,,,,,pilot1,2022-10-14_15h29.51.521,Hippopolis_4AFCT,2022.2.2,60.00903258085784,
Camponello,stimuli/subj_files/pilot1_cityB.csv,./stimuli/leipzig.jpg,./stimuli/street_plate2.png,HÁRFA UTCA,stimuli/scenes/075a.jpg,scene,0,stimuli/scenes/075a.jpg,stimuli/scenes/034a.jpg,stimuli/scenes/075a.jpg,stimuli/scenes/034b.jpg,stimuli/scenes/075b.jpg,dist1,target,dist2,lure,0,1,1,1,0,51,51,6,,,,,,,528.1892169117928,invalid,529.215366018936,529.215366018936,529.215366018936,529.215366018936,529.215366018936,529.215366018936,529.215366018936,529.215366018936,529.215366018936,529.215366018936,529.215366018936,529.215366018936,f,1.4846569169312716,None,,,,,,,,,,,,,,pilot1,2022-10-14_15h29.51.521,Hippopolis_4AFCT,2022.2.2,60.00903258085784,
Camponello,stimuli/subj_files/pilot1_cityB.csv,./stimuli/leipzig.jpg,./stimuli/street_plate2.png,KÖRTE UTCA,stimuli/scenes/050a.jpg,scene,1,stimuli/scenes/019a.jpg,stimuli/scenes/019a.jpg,stimuli/objects/114b.jpg,stimuli/scenes/019b.jpg,stimuli/objects/114a.jpg,target,dist2,lure,dist1,0,1,1,1,0,52,52,20,,,,,,,530.729069892317,invalid,531.7638724409044,531.7638724409044,531.7638724409044,531.7638724409044,531.7638724409044,531.7638724409044,531.7638724409044,531.7638724409044,531.7638724409044,531.7638724409044,531.7638724409044,531.7638724409044,d,2.103470377624035,None,531.7638724409044,,,,,,,,,,,,,pilot1,2022-10-14_15h29.51.521,Hippopolis_4AFCT,2022.2.2,60.00903258085784,
Camponello,stimuli/subj_files/pilot1_cityB.csv,./stimuli/leipzig.jpg,./stimuli/street_plate2.png,SZÁMOLÓGÉP UTCA,stimuli/objects/051a.jpg,object,0,stimuli/objects/051a.jpg,stimuli/objects/051b.jpg,stimuli/objects/051a.jpg,stimuli/scenes/039b.jpg,stimuli/scenes/039a.jpg,lure,target,dist2,dist1,0,1,1,1,0,53,53,5,,,,,,,533.8844405990094,invalid,534.9260495230556,534.9260495230556,534.9260495230556,534.9260495230556,534.9260495230556,534.9260495230556,534.9260495230556,534.9260495230556,534.9260495230556,534.9260495230556,534.9260495230556,534.9260495230556,f,1.676995400339365,None,,,,,,,,,,,,,,pilot1,2022-10-14_15h29.51.521,Hippopolis_4AFCT,2022.2.2,60.00903258085784,
Camponello,stimuli/subj_files/pilot1_cityB.csv,./stimuli/leipzig.jpg,./stimuli/street_plate2.png,BÖGRE UTCA,stimuli/scenes/081a.jpg,scene,1,stimuli/scenes/083a.jpg,stimuli/scenes/040b.jpg,stimuli/scenes/083a.jpg,stimuli/scenes/040a.jpg,stimuli/scenes/083b.jpg,dist2,target,dist1,lure,0,1,1,1,0,54,54,24,,,,,,,536.6278031021357,invalid,537.6718220133334,537.6718220133334,537.6718220133334,537.6718220133334,537.6718220133334,537.6718220133334,537.6718220133334,537.6718220133334,537.6718220133334,537.6718220133334,537.6718220133334,537.6718220133334,j,3.30015548504889,None,,,,,,,,,,,,,,pilot1,2022-10-14_15h29.51.521,Hippopolis_4AFCT,2022.2.2,60.00903258085784,
Camponello,stimuli/subj_files/pilot1_cityB.csv,./stimuli/leipzig.jpg,./stimuli/street_plate2.png,ANANÁSZ UTCA,stimuli/scenes/092a.jpg,scene,1,stimuli/scenes/087a.jpg,stimuli/scenes/087b.jpg,stimuli/scenes/119a.jpg,stimuli/scenes/087a.jpg,stimuli/scenes/119b.jpg,lure,dist1,target,dist2,0,1,1,1,0,55,55,69,,,,,,,541.0030292030424,invalid,542.0381259638816,542.0381259638816,542.0381259638816,542.0381259638816,542.0381259638816,542.0381259638816,542.0381259638816,542.0381259638816,542.0381259638816,542.0381259638816,542.0381259638816,542.0381259638816,f,2.0691044814884663,None,542.0381259638816,,,,,,,,,,,,,pilot1,2022-10-14_15h29.51.521,Hippopolis_4AFCT,2022.2.2,60.00903258085784,
Camponello,stimuli/subj_files/pilot1_cityB.csv,./stimuli/leipzig.jpg,./stimuli/street_plate2.png,SZALVÉTA UTCA,stimuli/scenes/098a.jpg,scene,2,stimuli/objects/043a.jpg,stimuli/objects/003a.jpg,stimuli/objects/043b.jpg,stimuli/objects/043a.jpg,stimuli/objects/003b.jpg,dist1,lure,target,dist2,0,1,1,1,0,56,56,23,,,,,,,544.1348517499864,invalid,545.1706097107381,545.1706097107381,545.1706097107381,545.1706097107381,545.1706097107381,545.1706097107381,545.1706097107381,545.1706097107381,545.1706097107381,545.1706097107381,545.1706097107381,545.1706097107381,j,1.8653439804911613,None,545.1706097107381,,,,,,,,,,,,,pilot1,2022-10-14_15h29.51.521,Hippopolis_4AFCT,2022.2.2,60.00903258085784,
Camponello,stimuli/subj_files/pilot1_cityB.csv,./stimuli/leipzig.jpg,./stimuli/street_plate2.png,PULYKA UTCA,stimuli/scenes/009a.jpg,scene,2,stimuli/objects/081a.jpg,stimuli/objects/081a.jpg,stimuli/objects/043b.jpg,stimuli/objects/043a.jpg,stimuli/objects/081b.jpg,target,dist2,dist1,lure,0,1,1,1,0,57,57,50,,,,,,,547.0652370117605,invalid,548.1034304630011,548.1034304630011,548.1034304630011,548.1034304630011,548.1034304630011,548.1034304630011,548.1034304630011,548.1034304630011,548.1034304630011,548.1034304630011,548.1034304630011,548.1034304630011,d,1.7804311495274305,None,,,,,,,,,,,,,,pilot1,2022-10-14_15h29.51.521,Hippopolis_4AFCT,2022.2.2,60.00903258085784,
Camponello,stimuli/subj_files/pilot1_cityB.csv,./stimuli/leipzig.jpg,./stimuli/street_plate2.png,MAJOM UTCA,stimuli/objects/048a.jpg,object,1,stimuli/objects/107a.jpg,stimuli/scenes/087a.jpg,stimuli/objects/107b.jpg,stimuli/scenes/087b.jpg,stimuli/objects/107a.jpg,dist1,lure,dist2,target,0,1,1,1,0,58,58,8,,,,,,,549.9122921545058,invalid,550.9535776320845,550.9535776320845,550.9535776320845,550.9535776320845,550.9535776320845,550.9535776320845,550.9535776320845,550.9535776320845,550.9535776320845,550.9535776320845,550.9535776320845,550.9535776320845,k,1.569743910804391,None,,,,,,,,,,,,,,pilot1,2022-10-14_15h29.51.521,Hippopolis_4AFCT,2022.2.2,60.00903258085784,
Camponello,stimuli/subj_files/pilot1_cityB.csv,./stimuli/leipzig.jpg,./stimuli/street_plate2.png,FÉNYMÁSOLÓ UTCA,stimuli/objects/075a.jpg,object,0,stimuli/objects/075a.jpg,stimuli/objects/075b.jpg,stimuli/objects/029a.jpg,stimuli/objects/075a.jpg,stimuli/objects/029b.jpg,lure,dist1,target,dist2,0,1,1,1,0,59,59,39,,,,,,,552.553823389113,invalid,553.5923374872655,553.5923374872655,553.5923374872655,553.5923374872655,553.5923374872655,553.5923374872655,553.5923374872655,553.5923374872655,553.5923374872655,553.5923374872655,553.5923374872655,553.5923374872655,j,1.9389993138611317,None,,,,,,,,,,,,,,pilot1,2022-10-14_15h29.51.521,Hippopolis_4AFCT,2022.2.2,60.00903258085784,
Camponello,stimuli/subj_files/pilot1_cityB.csv,./stimuli/leipzig.jpg,./stimuli/street_plate2.png,KESZTYŰ UTCA,stimuli/objects/082a.jpg,object,0,stimuli/objects/082a.jpg,stimuli/scenes/078a.jpg,stimuli/objects/082b.jpg,stimuli/scenes/078b.jpg,stimuli/objects/082a.jpg,dist1,lure,dist2,target,0,1,1,1,0,60,60,16,,,,,,,555.5507052391768,invalid,556.6188971232623,556.6188971232623,556.6188971232623,556.6188971232623,556.6188971232623,556.6188971232623,556.6188971232623,556.6188971232623,556.6188971232623,556.6188971232623,556.6188971232623,556.6188971232623,k,2.255988534539938,None,,,,,,,,,,,,,,pilot1,2022-10-14_15h29.51.521,Hippopolis_4AFCT,2022.2.2,60.00903258085784,
Camponello,stimuli/subj_files/pilot1_cityB.csv,./stimuli/leipzig.jpg,./stimuli/street_plate2.png,DOMINÓ UTCA,stimuli/scenes/052a.jpg,scene,0,stimuli/scenes/052a.jpg,stimuli/scenes/052a.jpg,stimuli/scenes/052b.jpg,stimuli/scenes/090a.jpg,stimuli/scenes/090b.jpg,target,lure,dist1,dist2,0,1,1,1,0,61,61,31,,,,,,,558.8985313661397,invalid,559.9190661851317,559.9190661851317,559.9190661851317,559.9190661851317,559.9190661851317,559.9190661851317,559.9190661851317,559.9190661851317,559.9190661851317,559.9190661851317,559.9190661851317,559.9190661851317,d,3.212323237210512,None,559.9190661851317,,,,,,,,,,,,,pilot1,2022-10-14_15h29.51.521,Hippopolis_4AFCT,2022.2.2,60.00903258085784,
Camponello,stimuli/subj_files/pilot1_cityB.csv,./stimuli/leipzig.jpg,./stimuli/street_plate2.png,LIMONÁDÉ UTCA,stimuli/scenes/082a.jpg,scene,0,stimuli/scenes/082a.jpg,stimuli/objects/002b.jpg,stimuli/scenes/082b.jpg,stimuli/scenes/082a.jpg,stimuli/objects/002a.jpg,dist2,lure,target,dist1,0,1,1,1,0,62,62,11,,,,,,,563.1541266832501,invalid,564.200163403526,564.200163403526,564.200163403526,564.200163403526,564.200163403526,564.200163403526,564.200163403526,564.200163403526,564.200163403526,564.200163403526,564.200163403526,564.200163403526,j,2.1626866161823273,None,,,,,,,,,,,,,,pilot1,2022-10-14_15h29.51.521,Hippopolis_4AFCT,2022.2.2,60.00903258085784,
Camponello,stimuli/subj_files/pilot1_cityB.csv,./stimuli/leipzig.jpg,./stimuli/street_plate2.png,CSAVARHÚZÓ UTCA,stimuli/objects/105a.jpg,object,2,stimuli/scenes/102a.jpg,stimuli/scenes/102b.jpg,stimuli/scenes/102a.jpg,stimuli/objects/082b.jpg,stimuli/objects/082a.jpg,lure,target,dist2,dist1,0,1,1,1,0,63,63,10,,,,,,,566.3829384390265,invalid,567.4315198138356,567.4315198138356,567.4315198138356,567.4315198138356,567.4315198138356,567.4315198138356,567.4315198138356,567.4315198138356,567.4315198138356,567.4315198138356,567.4315198138356,567.4315198138356,f,2.2119845505803823,None,,,,,,,,,,,,,,pilot1,2022-10-14_15h29.51.521,Hippopolis_4AFCT,2022.2.2,60.00903258085784,
Camponello,stimuli/subj_files/pilot1_cityB.csv,./stimuli/leipzig.jpg,./stimuli/street_plate2.png,CUKOR UTCA,stimuli/scenes/065a.jpg,scene,0,stimuli/scenes/065a.jpg,stimuli/objects/052b.jpg,stimuli/scenes/065a.jpg,stimuli/objects/052a.jpg,stimuli/scenes/065b.jpg,dist2,target,dist1,lure,0,1,1,1,0,64,64,49,,,,,,,569.6615360993892,invalid,570.7014326211065,570.7014326211065,570.7014326211065,570.7014326211065,570.7014326211065,570.7014326211065,570.7014326211065,570.7014326211065,570.7014326211065,570.7014326211065,570.7014326211065,570.7014326211065,f,1.7419562358409166,None,,,,,,,,,,,,,,pilot1,2022-10-14_15h29.51.521,Hippopolis_4AFCT,2022.2.2,60.00903258085784,
