CityName,StimuliFile,CityImage,StreetSign,Cue,Image,Category,Novelty,UpdateImage,TestImage1,TestImage2,TestImage3,TestImage4,TestImage1Type,TestImage2Type,TestImage3Type,TestImage4Type,CityBlock.thisRepN,CityBlock.thisTrialN,CityBlock.thisN,CityBlock.thisIndex,LearningTrials.thisRepN,LearningTrials.thisTrialN,LearningTrials.thisN,LearningTrials.thisIndex,trials.thisRepN,trials.thisTrialN,trials.thisN,trials.thisIndex,cityname_text.started,cityname_text.stopped,city_image.started,city_image.stopped,plate.started,plate.stopped,city_text.started,city_text.stopped,street_text.started,street_text.stopped,learning_image.started,learning_image.stopped,fx_cross.started,fx_cross.stopped,test_text.started,test_text.stopped,key_resp.keys,key_resp.rt,key_resp.started,key_resp.stopped,plate_test.started,plate_test.stopped,city_text_test.started,city_text_test.stopped,street_text_test.started,street_text_test.stopped,test_question.started,test_question.stopped,test_key_resp.keys,test_key_resp.rt,test_key_resp.started,test_key_resp.stopped,button_image.started,button_image.stopped,plate_verbal.started,plate_verbal.stopped,street_text_verbal.started,street_text_verbal.stopped,city_text_verbal.started,city_text_verbal.stopped,question_verbal.started,question_verbal.stopped,verbal_test_key_resp.keys,verbal_test_key_resp.started,verbal_test_key_resp.stopped,verbal_test_key_resp.rt,break_text.started,break_text.stopped,break_key_resp.keys,break_key_resp.rt,break_key_resp.started,break_key_resp.stopped,participant,date,expName,psychopyVersion,frameRate
Camponello,stimuli/subj_files/pilot_cityB.csv,./stimuli/leipzig.jpg,./stimuli/street_plate2.png,TELEFON,stimuli/objects/044a.jpg,object,0,stimuli/objects/044a.jpg,stimuli/scenes/039a.jpg,stimuli/objects/044a.jpg,stimuli/scenes/039b.jpg,stimuli/objects/044b.jpg,dist1,target,dist2,lure,0,0,0,0,0,0,0,35,,,,,14.08287859,None,14.08287859,None,17.11990361,None,17.11990361,None,17.11990361,None,17.11990361,None,20.03669784,None,,,,,,,,,,,,,,,,,,,,,,,,,,,,,,,,,,,,,,,pilot,2022_Jun_14_1511,Hippopolis_Learning,2021.1.2,59.52981434
Camponello,stimuli/subj_files/pilot_cityB.csv,./stimuli/leipzig.jpg,./stimuli/street_plate2.png,KÍGYÓ,stimuli/scenes/006a.jpg,scene,0,stimuli/scenes/006a.jpg,stimuli/scenes/006b.jpg,stimuli/scenes/006a.jpg,stimuli/objects/099b.jpg,stimuli/objects/099a.jpg,lure,target,dist2,dist1,0,0,0,0,0,1,1,6,,,,,,,,,21.08695526,None,21.08695526,None,21.08695526,None,21.08695526,None,24.0391974,None,,,,,,,,,,,,,,,,,,,,,,,,,,,,,,,,,,,,,,,pilot,2022_Jun_14_1511,Hippopolis_Learning,2021.1.2,59.52981434
Camponello,stimuli/subj_files/pilot_cityB.csv,./stimuli/leipzig.jpg,./stimuli/street_plate2.png,ORVOS,stimuli/objects/006a.jpg,object,2,stimuli/scenes/019a.jpg,stimuli/scenes/019b.jpg,stimuli/objects/061b.jpg,stimuli/objects/061a.jpg,stimuli/scenes/019a.jpg,lure,dist2,dist1,target,0,0,0,0,0,2,2,33,,,,,,,,,25.07364698,None,25.07364698,None,25.07364698,None,25.07364698,None,28.03602296,None,,,,,,,,,,,,,,,,,,,,,,,,,,,,,,,,,,,,,,,pilot,2022_Jun_14_1511,Hippopolis_Learning,2021.1.2,59.52981434
Camponello,stimuli/subj_files/pilot_cityB.csv,./stimuli/leipzig.jpg,./stimuli/street_plate2.png,SZEKRÉNY,stimuli/objects/012a.jpg,object,0,stimuli/objects/012a.jpg,stimuli/objects/012a.jpg,stimuli/scenes/048a.jpg,stimuli/scenes/048b.jpg,stimuli/objects/012b.jpg,target,dist1,dist2,lure,0,0,0,0,0,3,3,53,,,,,,,,,29.07056957,None,29.07056957,None,29.07056957,None,29.07056957,None,32.03851257,None,,,,,,,,,,,,,,,,,,,,,,,,,,,,,,,,,,,,,,,pilot,2022_Jun_14_1511,Hippopolis_Learning,2021.1.2,59.52981434
Camponello,stimuli/subj_files/pilot_cityB.csv,./stimuli/leipzig.jpg,./stimuli/street_plate2.png,TISZTÁS,stimuli/objects/053a.jpg,object,1,stimuli/objects/025a.jpg,stimuli/scenes/025b.jpg,stimuli/objects/025b.jpg,stimuli/scenes/025a.jpg,stimuli/objects/025a.jpg,dist2,lure,dist1,target,0,0,0,0,0,4,4,11,,,,,,,,,33.07417911,None,33.07417911,None,33.07417911,None,33.07417911,None,36.02858804,None,,,,,,,,,,,,,,,,,,,,,,,,,,,,,,,,,,,,,,,pilot,2022_Jun_14_1511,Hippopolis_Learning,2021.1.2,59.52981434
Camponello,stimuli/subj_files/pilot_cityB.csv,./stimuli/leipzig.jpg,./stimuli/street_plate2.png,KABÁT,stimuli/objects/016a.jpg,object,0,stimuli/objects/016a.jpg,stimuli/objects/016a.jpg,stimuli/objects/016b.jpg,stimuli/scenes/029b.jpg,stimuli/scenes/029a.jpg,target,lure,dist2,dist1,0,0,0,0,0,5,5,28,,,,,,,,,37.06018848,None,37.06018848,None,37.06018848,None,37.06018848,None,40.03605841,None,,,,,,,,,,,,,,,,,,,,,,,,,,,,,,,,,,,,,,,pilot,2022_Jun_14_1511,Hippopolis_Learning,2021.1.2,59.52981434
Camponello,stimuli/subj_files/pilot_cityB.csv,./stimuli/leipzig.jpg,./stimuli/street_plate2.png,TENISZ,stimuli/scenes/041a.jpg,scene,0,stimuli/scenes/041a.jpg,stimuli/scenes/037a.jpg,stimuli/scenes/037b.jpg,stimuli/scenes/041b.jpg,stimuli/scenes/041a.jpg,dist1,dist2,lure,target,0,0,0,0,0,6,6,10,,,,,,,,,41.08056999,None,41.08056999,None,41.08056999,None,41.08056999,None,44.03603198,None,,,,,,,,,,,,,,,,,,,,,,,,,,,,,,,,,,,,,,,pilot,2022_Jun_14_1511,Hippopolis_Learning,2021.1.2,59.52981434
Camponello,stimuli/subj_files/pilot_cityB.csv,./stimuli/leipzig.jpg,./stimuli/street_plate2.png,TRIATLON,stimuli/objects/039a.jpg,object,2,stimuli/scenes/045a.jpg,stimuli/scenes/006b.jpg,stimuli/scenes/045b.jpg,stimuli/scenes/045a.jpg,stimuli/scenes/006a.jpg,dist2,lure,target,dist1,0,0,0,0,0,7,7,43,,,,,,,,,45.10023898,None,45.10023898,None,45.10023898,None,45.10023898,None,48.0373718,None,,,,,,,,,,,,,,,,,,,,,,,,,,,,,,,,,,,,,,,pilot,2022_Jun_14_1511,Hippopolis_Learning,2021.1.2,59.52981434
Camponello,stimuli/subj_files/pilot_cityB.csv,./stimuli/leipzig.jpg,./stimuli/street_plate2.png,TOLMÁCS,stimuli/scenes/025a.jpg,scene,0,stimuli/scenes/025a.jpg,stimuli/scenes/025a.jpg,stimuli/scenes/025b.jpg,stimuli/objects/021a.jpg,stimuli/objects/021b.jpg,target,lure,dist1,dist2,0,0,0,0,0,8,8,8,,,,,,,,,49.0601297,None,49.0601297,None,49.0601297,None,49.0601297,None,52.03775838,None,,,,,,,,,,,,,,,,,,,,,,,,,,,,,,,,,,,,,,,pilot,2022_Jun_14_1511,Hippopolis_Learning,2021.1.2,59.52981434
Camponello,stimuli/subj_files/pilot_cityB.csv,./stimuli/leipzig.jpg,./stimuli/street_plate2.png,KARTON,stimuli/objects/047a.jpg,object,0,stimuli/objects/047a.jpg,stimuli/objects/047a.jpg,stimuli/objects/004b.jpg,stimuli/objects/047b.jpg,stimuli/objects/004a.jpg,target,dist2,lure,dist1,0,0,0,0,0,9,9,44,,,,,,,,,53.06190866,None,53.06190866,None,53.06190866,None,53.06190866,None,56.03176839,None,,,,,,,,,,,,,,,,,,,,,,,,,,,,,,,,,,,,,,,pilot,2022_Jun_14_1511,Hippopolis_Learning,2021.1.2,59.52981434
Camponello,stimuli/subj_files/pilot_cityB.csv,./stimuli/leipzig.jpg,./stimuli/street_plate2.png,SZÚNYOG,stimuli/scenes/051a.jpg,scene,1,stimuli/scenes/005a.jpg,stimuli/objects/071b.jpg,stimuli/scenes/005a.jpg,stimuli/scenes/005b.jpg,stimuli/objects/071a.jpg,dist2,target,lure,dist1,0,0,0,0,0,10,10,25,,,,,,,,,57.06253627,None,57.06253627,None,57.06253627,None,57.06253627,None,60.03648107,None,,,,,,,,,,,,,,,,,,,,,,,,,,,,,,,,,,,,,,,pilot,2022_Jun_14_1511,Hippopolis_Learning,2021.1.2,59.52981434
Camponello,stimuli/subj_files/pilot_cityB.csv,./stimuli/leipzig.jpg,./stimuli/street_plate2.png,PAPRIKA,stimuli/scenes/007a.jpg,scene,0,stimuli/scenes/007a.jpg,stimuli/scenes/007a.jpg,stimuli/objects/084b.jpg,stimuli/scenes/007b.jpg,stimuli/objects/084a.jpg,target,dist2,lure,dist1,0,0,0,0,0,11,11,52,,,,,,,,,61.06322142,None,61.06322142,None,61.06322142,None,61.06322142,None,64.03582796,None,,,,,,,,,,,,,,,,,,,,,,,,,,,,,,,,,,,,,,,pilot,2022_Jun_14_1511,Hippopolis_Learning,2021.1.2,59.52981434
Camponello,stimuli/subj_files/pilot_cityB.csv,./stimuli/leipzig.jpg,./stimuli/street_plate2.png,FÉNYMÁSOLÓ,stimuli/objects/050a.jpg,object,0,stimuli/objects/050a.jpg,stimuli/objects/015b.jpg,stimuli/objects/015a.jpg,stimuli/objects/050b.jpg,stimuli/objects/050a.jpg,dist2,dist1,lure,target,0,0,0,0,0,12,12,14,,,,,,,,,65.06234998,None,65.06234998,None,65.06234998,None,65.06234998,None,68.03862671,None,,,,,,,,,,,,,,,,,,,,,,,,,,,,,,,,,,,,,,,pilot,2022_Jun_14_1511,Hippopolis_Learning,2021.1.2,59.52981434
Camponello,stimuli/subj_files/pilot_cityB.csv,./stimuli/leipzig.jpg,./stimuli/street_plate2.png,TIGRIS,stimuli/scenes/003a.jpg,scene,2,stimuli/objects/084a.jpg,stimuli/objects/084b.jpg,stimuli/scenes/076b.jpg,stimuli/objects/084a.jpg,stimuli/scenes/076a.jpg,lure,dist2,target,dist1,0,0,0,0,0,13,13,45,,,,,,,,,69.06110533,None,69.06110533,None,69.06110533,None,69.06110533,None,72.04021719,None,,,,,,,,,,,,,,,,,,,,,,,,,,,,,,,,,,,,,,,pilot,2022_Jun_14_1511,Hippopolis_Learning,2021.1.2,59.52981434
Camponello,stimuli/subj_files/pilot_cityB.csv,./stimuli/leipzig.jpg,./stimuli/street_plate2.png,LIMONÁDÉ,stimuli/scenes/049a.jpg,scene,0,stimuli/scenes/049a.jpg,stimuli/objects/067a.jpg,stimuli/objects/067b.jpg,stimuli/scenes/049a.jpg,stimuli/scenes/049b.jpg,dist1,dist2,target,lure,0,0,0,0,0,14,14,34,,,,,,,,,73.07446679,None,73.07446679,None,73.07446679,None,73.07446679,None,76.03536207,None,,,,,,,,,,,,,,,,,,,,,,,,,,,,,,,,,,,,,,,pilot,2022_Jun_14_1511,Hippopolis_Learning,2021.1.2,59.52981434
Camponello,stimuli/subj_files/pilot_cityB.csv,./stimuli/leipzig.jpg,./stimuli/street_plate2.png,ZEBRA,stimuli/scenes/052a.jpg,scene,0,stimuli/scenes/052a.jpg,stimuli/scenes/004b.jpg,stimuli/scenes/052b.jpg,stimuli/scenes/004a.jpg,stimuli/scenes/052a.jpg,dist2,lure,dist1,target,0,0,0,0,0,15,15,4,,,,,,,,,77.07958161,None,77.07958161,None,77.07958161,None,77.07958161,None,80.03928293,None,,,,,,,,,,,,,,,,,,,,,,,,,,,,,,,,,,,,,,,pilot,2022_Jun_14_1511,Hippopolis_Learning,2021.1.2,59.52981434
Camponello,stimuli/subj_files/pilot_cityB.csv,./stimuli/leipzig.jpg,./stimuli/street_plate2.png,KECSKE,stimuli/scenes/054a.jpg,scene,1,stimuli/scenes/064a.jpg,stimuli/objects/047b.jpg,stimuli/objects/047a.jpg,stimuli/scenes/064a.jpg,stimuli/scenes/064b.jpg,dist2,dist1,target,lure,0,0,0,0,0,16,16,39,,,,,,,,,81.0699149,None,81.0699149,None,81.0699149,None,81.0699149,None,84.03597817,None,,,,,,,,,,,,,,,,,,,,,,,,,,,,,,,,,,,,,,,pilot,2022_Jun_14_1511,Hippopolis_Learning,2021.1.2,59.52981434
Camponello,stimuli/subj_files/pilot_cityB.csv,./stimuli/leipzig.jpg,./stimuli/street_plate2.png,MOCSÁR,stimuli/objects/036a.jpg,object,2,stimuli/scenes/079a.jpg,stimuli/scenes/079a.jpg,stimuli/scenes/079b.jpg,stimuli/scenes/049a.jpg,stimuli/scenes/049b.jpg,target,lure,dist1,dist2,0,0,0,0,0,17,17,50,,,,,,,,,85.08514241,None,85.08514241,None,85.08514241,None,85.08514241,None,88.04043428,None,,,,,,,,,,,,,,,,,,,,,,,,,,,,,,,,,,,,,,,pilot,2022_Jun_14_1511,Hippopolis_Learning,2021.1.2,59.52981434
Camponello,stimuli/subj_files/pilot_cityB.csv,./stimuli/leipzig.jpg,./stimuli/street_plate2.png,KIRAKÓ,stimuli/scenes/032a.jpg,scene,0,stimuli/scenes/032a.jpg,stimuli/scenes/032a.jpg,stimuli/scenes/064a.jpg,stimuli/scenes/032b.jpg,stimuli/scenes/064b.jpg,target,dist1,lure,dist2,0,0,0,0,0,18,18,46,,,,,,,,,89.04693836,None,89.04693836,None,89.04693836,None,89.04693836,None,92.02822074,None,,,,,,,,,,,,,,,,,,,,,,,,,,,,,,,,,,,,,,,pilot,2022_Jun_14_1511,Hippopolis_Learning,2021.1.2,59.52981434
Camponello,stimuli/subj_files/pilot_cityB.csv,./stimuli/leipzig.jpg,./stimuli/street_plate2.png,SZŐLŐ,stimuli/objects/068a.jpg,object,0,stimuli/objects/068a.jpg,stimuli/objects/068a.jpg,stimuli/objects/068b.jpg,stimuli/scenes/005a.jpg,stimuli/scenes/005b.jpg,target,lure,dist1,dist2,0,0,0,0,0,19,19,2,,,,,,,,,93.0759842,None,93.0759842,None,93.0759842,None,93.0759842,None,96.03547341,None,,,,,,,,,,,,,,,,,,,,,,,,,,,,,,,,,,,,,,,pilot,2022_Jun_14_1511,Hippopolis_Learning,2021.1.2,59.52981434
Camponello,stimuli/subj_files/pilot_cityB.csv,./stimuli/leipzig.jpg,./stimuli/street_plate2.png,PELIKÁN,stimuli/objects/055a.jpg,object,2,stimuli/scenes/036a.jpg,stimuli/scenes/036b.jpg,stimuli/scenes/036a.jpg,stimuli/scenes/010a.jpg,stimuli/scenes/010b.jpg,lure,target,dist1,dist2,0,0,0,0,0,20,20,5,,,,,,,,,97.06272754,None,97.06272754,None,97.06272754,None,97.06272754,None,100.0353552,None,,,,,,,,,,,,,,,,,,,,,,,,,,,,,,,,,,,,,,,pilot,2022_Jun_14_1511,Hippopolis_Learning,2021.1.2,59.52981434
Camponello,stimuli/subj_files/pilot_cityB.csv,./stimuli/leipzig.jpg,./stimuli/street_plate2.png,PETÁRDA,stimuli/scenes/023a.jpg,scene,0,stimuli/scenes/023a.jpg,stimuli/scenes/023a.jpg,stimuli/scenes/019b.jpg,stimuli/scenes/019a.jpg,stimuli/scenes/023b.jpg,target,dist2,dist1,lure,0,0,0,0,0,21,21,51,,,,,,,,,101.0539656,None,101.0539656,None,101.0539656,None,101.0539656,None,104.0352311,None,,,,,,,,,,,,,,,,,,,,,,,,,,,,,,,,,,,,,,,pilot,2022_Jun_14_1511,Hippopolis_Learning,2021.1.2,59.52981434
Camponello,stimuli/subj_files/pilot_cityB.csv,./stimuli/leipzig.jpg,./stimuli/street_plate2.png,SAPKA,stimuli/objects/029a.jpg,object,0,stimuli/objects/029a.jpg,stimuli/objects/029b.jpg,stimuli/objects/029a.jpg,stimuli/scenes/045a.jpg,stimuli/scenes/045b.jpg,lure,target,dist1,dist2,0,0,0,0,0,22,22,13,,,,,,,,,105.0753214,None,105.0753214,None,105.0753214,None,105.0753214,None,108.0369109,None,,,,,,,,,,,,,,,,,,,,,,,,,,,,,,,,,,,,,,,pilot,2022_Jun_14_1511,Hippopolis_Learning,2021.1.2,59.52981434
Camponello,stimuli/subj_files/pilot_cityB.csv,./stimuli/leipzig.jpg,./stimuli/street_plate2.png,PÁLMAFA,stimuli/scenes/046a.jpg,scene,2,stimuli/objects/052a.jpg,stimuli/scenes/075b.jpg,stimuli/objects/052a.jpg,stimuli/scenes/075a.jpg,stimuli/objects/052b.jpg,dist2,target,dist1,lure,0,0,0,0,0,23,23,12,,,,,,,,,109.0794637,None,109.0794637,None,109.0794637,None,109.0794637,None,112.0388677,None,,,,,,,,,,,,,,,,,,,,,,,,,,,,,,,,,,,,,,,pilot,2022_Jun_14_1511,Hippopolis_Learning,2021.1.2,59.52981434
Camponello,stimuli/subj_files/pilot_cityB.csv,./stimuli/leipzig.jpg,./stimuli/street_plate2.png,MAJORÁNNA,stimuli/scenes/031a.jpg,scene,0,stimuli/scenes/031a.jpg,stimuli/objects/044b.jpg,stimuli/objects/044a.jpg,stimuli/scenes/031b.jpg,stimuli/scenes/031a.jpg,dist2,dist1,lure,target,0,0,0,0,0,24,24,3,,,,,,,,,113.0590536,None,113.0590536,None,113.0590536,None,113.0590536,None,116.043892,None,,,,,,,,,,,,,,,,,,,,,,,,,,,,,,,,,,,,,,,pilot,2022_Jun_14_1511,Hippopolis_Learning,2021.1.2,59.52981434
Camponello,stimuli/subj_files/pilot_cityB.csv,./stimuli/leipzig.jpg,./stimuli/street_plate2.png,MENTA,stimuli/scenes/042a.jpg,scene,0,stimuli/scenes/042a.jpg,stimuli/objects/028a.jpg,stimuli/objects/028b.jpg,stimuli/scenes/042a.jpg,stimuli/scenes/042b.jpg,dist1,dist2,target,lure,0,0,0,0,0,25,25,54,,,,,,,,,117.0592082,None,117.0592082,None,117.0592082,None,117.0592082,None,120.0351733,None,,,,,,,,,,,,,,,,,,,,,,,,,,,,,,,,,,,,,,,pilot,2022_Jun_14_1511,Hippopolis_Learning,2021.1.2,59.52981434
Camponello,stimuli/subj_files/pilot_cityB.csv,./stimuli/leipzig.jpg,./stimuli/street_plate2.png,TÁNYÉR,stimuli/scenes/039a.jpg,scene,0,stimuli/scenes/039a.jpg,stimuli/scenes/041a.jpg,stimuli/scenes/041b.jpg,stimuli/scenes/039b.jpg,stimuli/scenes/039a.jpg,dist1,dist2,lure,target,0,0,0,0,0,26,26,15,,,,,,,,,121.0440556,None,121.0440556,None,121.0440556,None,121.0440556,None,124.0277906,None,,,,,,,,,,,,,,,,,,,,,,,,,,,,,,,,,,,,,,,pilot,2022_Jun_14_1511,Hippopolis_Learning,2021.1.2,59.52981434
Camponello,stimuli/subj_files/pilot_cityB.csv,./stimuli/leipzig.jpg,./stimuli/street_plate2.png,MARTINI,stimuli/objects/067a.jpg,object,0,stimuli/objects/067a.jpg,stimuli/objects/067b.jpg,stimuli/scenes/009b.jpg,stimuli/objects/067a.jpg,stimuli/scenes/009a.jpg,lure,dist2,target,dist1,0,0,0,0,0,27,27,23,,,,,,,,,125.0469813,None,125.0469813,None,125.0469813,None,125.0469813,None,128.0349323,None,,,,,,,,,,,,,,,,,,,,,,,,,,,,,,,,,,,,,,,pilot,2022_Jun_14_1511,Hippopolis_Learning,2021.1.2,59.52981434
Camponello,stimuli/subj_files/pilot_cityB.csv,./stimuli/leipzig.jpg,./stimuli/street_plate2.png,MÁLNA,stimuli/objects/082a.jpg,object,1,stimuli/objects/083a.jpg,stimuli/objects/083b.jpg,stimuli/objects/083a.jpg,stimuli/objects/089b.jpg,stimuli/objects/089a.jpg,lure,target,dist2,dist1,0,0,0,0,0,28,28,27,,,,,,,,,129.064615,None,129.064615,None,129.064615,None,129.064615,None,132.0348878,None,,,,,,,,,,,,,,,,,,,,,,,,,,,,,,,,,,,,,,,pilot,2022_Jun_14_1511,Hippopolis_Learning,2021.1.2,59.52981434
Camponello,stimuli/subj_files/pilot_cityB.csv,./stimuli/leipzig.jpg,./stimuli/street_plate2.png,KALAPÁCS,stimuli/objects/049a.jpg,object,1,stimuli/objects/048a.jpg,stimuli/objects/022a.jpg,stimuli/objects/048b.jpg,stimuli/objects/048a.jpg,stimuli/objects/022b.jpg,dist1,lure,target,dist2,0,0,0,0,0,29,29,32,,,,,,,,,133.0563815,None,133.0563815,None,133.0563815,None,133.0563815,None,136.0323916,None,,,,,,,,,,,,,,,,,,,,,,,,,,,,,,,,,,,,,,,pilot,2022_Jun_14_1511,Hippopolis_Learning,2021.1.2,59.52981434
Camponello,stimuli/subj_files/pilot_cityB.csv,./stimuli/leipzig.jpg,./stimuli/street_plate2.png,PIZSAMA,stimuli/objects/071a.jpg,object,0,stimuli/objects/071a.jpg,stimuli/scenes/036b.jpg,stimuli/objects/071a.jpg,stimuli/scenes/036a.jpg,stimuli/objects/071b.jpg,dist2,target,dist1,lure,0,0,0,0,0,30,30,9,,,,,,,,,137.0591211,None,137.0591211,None,137.0591211,None,137.0591211,None,140.0356071,None,,,,,,,,,,,,,,,,,,,,,,,,,,,,,,,,,,,,,,,pilot,2022_Jun_14_1511,Hippopolis_Learning,2021.1.2,59.52981434
Camponello,stimuli/subj_files/pilot_cityB.csv,./stimuli/leipzig.jpg,./stimuli/street_plate2.png,LOVAGLÁS,stimuli/objects/021a.jpg,object,0,stimuli/objects/021a.jpg,stimuli/objects/021b.jpg,stimuli/scenes/042b.jpg,stimuli/objects/021a.jpg,stimuli/scenes/042a.jpg,lure,dist2,target,dist1,0,0,0,0,0,31,31,38,,,,,,,,,141.0634111,None,141.0634111,None,141.0634111,None,141.0634111,None,144.0347733,None,,,,,,,,,,,,,,,,,,,,,,,,,,,,,,,,,,,,,,,pilot,2022_Jun_14_1511,Hippopolis_Learning,2021.1.2,59.52981434
Camponello,stimuli/subj_files/pilot_cityB.csv,./stimuli/leipzig.jpg,./stimuli/street_plate2.png,KAKAS,stimuli/scenes/083a.jpg,scene,0,stimuli/scenes/083a.jpg,stimuli/scenes/083b.jpg,stimuli/scenes/052a.jpg,stimuli/scenes/052b.jpg,stimuli/scenes/083a.jpg,lure,dist1,dist2,target,0,0,0,0,0,32,32,22,,,,,,,,,145.0567432,None,145.0567432,None,145.0567432,None,145.0567432,None,148.0365912,None,,,,,,,,,,,,,,,,,,,,,,,,,,,,,,,,,,,,,,,pilot,2022_Jun_14_1511,Hippopolis_Learning,2021.1.2,59.52981434
Camponello,stimuli/subj_files/pilot_cityB.csv,./stimuli/leipzig.jpg,./stimuli/street_plate2.png,LÁNDZSA,stimuli/scenes/047a.jpg,scene,0,stimuli/scenes/047a.jpg,stimuli/scenes/047b.jpg,stimuli/scenes/007a.jpg,stimuli/scenes/007b.jpg,stimuli/scenes/047a.jpg,lure,dist1,dist2,target,0,0,0,0,0,33,33,47,,,,,,,,,149.0539111,None,149.0539111,None,149.0539111,None,149.0539111,None,152.0382504,None,,,,,,,,,,,,,,,,,,,,,,,,,,,,,,,,,,,,,,,pilot,2022_Jun_14_1511,Hippopolis_Learning,2021.1.2,59.52981434
Camponello,stimuli/subj_files/pilot_cityB.csv,./stimuli/leipzig.jpg,./stimuli/street_plate2.png,CSAVARHÚZÓ,stimuli/scenes/037a.jpg,scene,0,stimuli/scenes/037a.jpg,stimuli/objects/072a.jpg,stimuli/objects/072b.jpg,stimuli/scenes/037b.jpg,stimuli/scenes/037a.jpg,dist1,dist2,lure,target,0,0,0,0,0,34,34,57,,,,,,,,,153.071883,None,153.071883,None,153.071883,None,153.071883,None,156.0385511,None,,,,,,,,,,,,,,,,,,,,,,,,,,,,,,,,,,,,,,,pilot,2022_Jun_14_1511,Hippopolis_Learning,2021.1.2,59.52981434
Camponello,stimuli/subj_files/pilot_cityB.csv,./stimuli/leipzig.jpg,./stimuli/street_plate2.png,SZIKLA,stimuli/objects/087a.jpg,object,0,stimuli/objects/087a.jpg,stimuli/scenes/031a.jpg,stimuli/objects/087a.jpg,stimuli/scenes/031b.jpg,stimuli/objects/087b.jpg,dist1,target,dist2,lure,0,0,0,0,0,35,35,31,,,,,,,,,157.0640779,None,157.0640779,None,157.0640779,None,157.0640779,None,160.0352576,None,,,,,,,,,,,,,,,,,,,,,,,,,,,,,,,,,,,,,,,pilot,2022_Jun_14_1511,Hippopolis_Learning,2021.1.2,59.52981434
Camponello,stimuli/subj_files/pilot_cityB.csv,./stimuli/leipzig.jpg,./stimuli/street_plate2.png,BICIKLI,stimuli/scenes/010a.jpg,scene,0,stimuli/scenes/010a.jpg,stimuli/objects/052a.jpg,stimuli/objects/052b.jpg,stimuli/scenes/010a.jpg,stimuli/scenes/010b.jpg,dist1,dist2,target,lure,0,0,0,0,0,36,36,58,,,,,,,,,161.0619494,None,161.0619494,None,161.0619494,None,161.0619494,None,164.0346141,None,,,,,,,,,,,,,,,,,,,,,,,,,,,,,,,,,,,,,,,pilot,2022_Jun_14_1511,Hippopolis_Learning,2021.1.2,59.52981434
Camponello,stimuli/subj_files/pilot_cityB.csv,./stimuli/leipzig.jpg,./stimuli/street_plate2.png,HERING,stimuli/objects/004a.jpg,object,0,stimuli/objects/004a.jpg,stimuli/objects/012a.jpg,stimuli/objects/012b.jpg,stimuli/objects/004b.jpg,stimuli/objects/004a.jpg,dist1,dist2,lure,target,0,0,0,0,0,37,37,21,,,,,,,,,165.0797925,None,165.0797925,None,165.0797925,None,165.0797925,None,168.0347068,None,,,,,,,,,,,,,,,,,,,,,,,,,,,,,,,,,,,,,,,pilot,2022_Jun_14_1511,Hippopolis_Learning,2021.1.2,59.52981434
Camponello,stimuli/subj_files/pilot_cityB.csv,./stimuli/leipzig.jpg,./stimuli/street_plate2.png,PISZTRÁNG,stimuli/objects/072a.jpg,object,0,stimuli/objects/072a.jpg,stimuli/objects/046b.jpg,stimuli/objects/072b.jpg,stimuli/objects/072a.jpg,stimuli/objects/046a.jpg,dist2,lure,target,dist1,0,0,0,0,0,38,38,49,,,,,,,,,169.0692609,None,169.0692609,None,169.0692609,None,169.0692609,None,172.0362444,None,,,,,,,,,,,,,,,,,,,,,,,,,,,,,,,,,,,,,,,pilot,2022_Jun_14_1511,Hippopolis_Learning,2021.1.2,59.52981434
Camponello,stimuli/subj_files/pilot_cityB.csv,./stimuli/leipzig.jpg,./stimuli/street_plate2.png,BONBON,stimuli/objects/091a.jpg,object,0,stimuli/objects/091a.jpg,stimuli/objects/091a.jpg,stimuli/objects/091b.jpg,stimuli/scenes/069a.jpg,stimuli/scenes/069b.jpg,target,lure,dist1,dist2,0,0,0,0,0,39,39,24,,,,,,,,,173.0478369,None,173.0478369,None,173.0478369,None,173.0478369,None,176.0327776,None,,,,,,,,,,,,,,,,,,,,,,,,,,,,,,,,,,,,,,,pilot,2022_Jun_14_1511,Hippopolis_Learning,2021.1.2,59.52981434
Camponello,stimuli/subj_files/pilot_cityB.csv,./stimuli/leipzig.jpg,./stimuli/street_plate2.png,HEGESZTŐ,stimuli/scenes/082a.jpg,scene,2,stimuli/objects/094a.jpg,stimuli/objects/048b.jpg,stimuli/objects/094b.jpg,stimuli/objects/094a.jpg,stimuli/objects/048a.jpg,dist2,lure,target,dist1,0,0,0,0,0,40,40,59,,,,,,,,,177.0592057,None,177.0592057,None,177.0592057,None,177.0592057,None,180.036459,None,,,,,,,,,,,,,,,,,,,,,,,,,,,,,,,,,,,,,,,pilot,2022_Jun_14_1511,Hippopolis_Learning,2021.1.2,59.52981434
Camponello,stimuli/subj_files/pilot_cityB.csv,./stimuli/leipzig.jpg,./stimuli/street_plate2.png,TENGER,stimuli/objects/061a.jpg,object,0,stimuli/objects/061a.jpg,stimuli/objects/016a.jpg,stimuli/objects/061a.jpg,stimuli/objects/016b.jpg,stimuli/objects/061b.jpg,dist1,target,dist2,lure,0,0,0,0,0,41,41,18,,,,,,,,,181.0691682,None,181.0691682,None,181.0691682,None,181.0691682,None,184.0295923,None,,,,,,,,,,,,,,,,,,,,,,,,,,,,,,,,,,,,,,,pilot,2022_Jun_14_1511,Hippopolis_Learning,2021.1.2,59.52981434
Camponello,stimuli/subj_files/pilot_cityB.csv,./stimuli/leipzig.jpg,./stimuli/street_plate2.png,KANÁL,stimuli/objects/028a.jpg,object,0,stimuli/objects/028a.jpg,stimuli/objects/028b.jpg,stimuli/objects/050b.jpg,stimuli/objects/028a.jpg,stimuli/objects/050a.jpg,lure,dist2,target,dist1,0,0,0,0,0,42,42,26,,,,,,,,,185.0592558,None,185.0592558,None,185.0592558,None,185.0592558,None,188.0301726,None,,,,,,,,,,,,,,,,,,,,,,,,,,,,,,,,,,,,,,,pilot,2022_Jun_14_1511,Hippopolis_Learning,2021.1.2,59.52981434
Camponello,stimuli/subj_files/pilot_cityB.csv,./stimuli/leipzig.jpg,./stimuli/street_plate2.png,KENYÉR,stimuli/objects/089a.jpg,object,0,stimuli/objects/089a.jpg,stimuli/objects/089b.jpg,stimuli/objects/045b.jpg,stimuli/objects/089a.jpg,stimuli/objects/045a.jpg,lure,dist2,target,dist1,0,0,0,0,0,43,43,17,,,,,,,,,189.0624647,None,189.0624647,None,189.0624647,None,189.0624647,None,192.0343286,None,,,,,,,,,,,,,,,,,,,,,,,,,,,,,,,,,,,,,,,pilot,2022_Jun_14_1511,Hippopolis_Learning,2021.1.2,59.52981434
Camponello,stimuli/subj_files/pilot_cityB.csv,./stimuli/leipzig.jpg,./stimuli/street_plate2.png,LEGELŐ,stimuli/objects/022a.jpg,object,0,stimuli/objects/022a.jpg,stimuli/objects/022a.jpg,stimuli/objects/022b.jpg,stimuli/objects/025b.jpg,stimuli/objects/025a.jpg,target,lure,dist2,dist1,0,0,0,0,0,44,44,0,,,,,,,,,193.0625736,None,193.0625736,None,193.0625736,None,193.0625736,None,196.0385179,None,,,,,,,,,,,,,,,,,,,,,,,,,,,,,,,,,,,,,,,pilot,2022_Jun_14_1511,Hippopolis_Learning,2021.1.2,59.52981434
Camponello,stimuli/subj_files/pilot_cityB.csv,./stimuli/leipzig.jpg,./stimuli/street_plate2.png,LÁMPA,stimuli/scenes/008a.jpg,scene,1,stimuli/scenes/076a.jpg,stimuli/scenes/076b.jpg,stimuli/scenes/076a.jpg,stimuli/scenes/032b.jpg,stimuli/scenes/032a.jpg,lure,target,dist2,dist1,0,0,0,0,0,45,45,55,,,,,,,,,197.0539391,None,197.0539391,None,197.0539391,None,197.0539391,None,200.0309165,None,,,,,,,,,,,,,,,,,,,,,,,,,,,,,,,,,,,,,,,pilot,2022_Jun_14_1511,Hippopolis_Learning,2021.1.2,59.52981434
Camponello,stimuli/subj_files/pilot_cityB.csv,./stimuli/leipzig.jpg,./stimuli/street_plate2.png,ZSÁLYA,stimuli/scenes/069a.jpg,scene,0,stimuli/scenes/069a.jpg,stimuli/scenes/069a.jpg,stimuli/scenes/069b.jpg,stimuli/scenes/047a.jpg,stimuli/scenes/047b.jpg,target,lure,dist1,dist2,0,0,0,0,0,46,46,41,,,,,,,,,201.054164,None,201.054164,None,201.054164,None,201.054164,None,204.0380349,None,,,,,,,,,,,,,,,,,,,,,,,,,,,,,,,,,,,,,,,pilot,2022_Jun_14_1511,Hippopolis_Learning,2021.1.2,59.52981434
Camponello,stimuli/subj_files/pilot_cityB.csv,./stimuli/leipzig.jpg,./stimuli/street_plate2.png,KÖMÉNYMAG,stimuli/scenes/078a.jpg,scene,0,stimuli/scenes/078a.jpg,stimuli/scenes/078b.jpg,stimuli/objects/087a.jpg,stimuli/scenes/078a.jpg,stimuli/objects/087b.jpg,lure,dist1,target,dist2,0,0,0,0,0,47,47,1,,,,,,,,,205.0571213,None,205.0571213,None,205.0571213,None,205.0571213,None,208.0463798,None,,,,,,,,,,,,,,,,,,,,,,,,,,,,,,,,,,,,,,,pilot,2022_Jun_14_1511,Hippopolis_Learning,2021.1.2,59.52981434
Camponello,stimuli/subj_files/pilot_cityB.csv,./stimuli/leipzig.jpg,./stimuli/street_plate2.png,KÖNYVTÁR,stimuli/objects/063a.jpg,object,1,stimuli/objects/045a.jpg,stimuli/objects/077a.jpg,stimuli/objects/045b.jpg,stimuli/objects/045a.jpg,stimuli/objects/077b.jpg,dist1,lure,target,dist2,0,0,0,0,0,48,48,19,,,,,,,,,209.0616169,None,209.0616169,None,209.0616169,None,209.0616169,None,212.0340139,None,,,,,,,,,,,,,,,,,,,,,,,,,,,,,,,,,,,,,,,pilot,2022_Jun_14_1511,Hippopolis_Learning,2021.1.2,59.52981434
Camponello,stimuli/subj_files/pilot_cityB.csv,./stimuli/leipzig.jpg,./stimuli/street_plate2.png,ANANÁSZ,stimuli/scenes/088a.jpg,scene,1,stimuli/scenes/048a.jpg,stimuli/scenes/078a.jpg,stimuli/scenes/048a.jpg,stimuli/scenes/078b.jpg,stimuli/scenes/048b.jpg,dist1,target,dist2,lure,0,0,0,0,0,49,49,36,,,,,,,,,213.063612,None,213.063612,None,213.063612,None,213.063612,None,216.03403,None,,,,,,,,,,,,,,,,,,,,,,,,,,,,,,,,,,,,,,,pilot,2022_Jun_14_1511,Hippopolis_Learning,2021.1.2,59.52981434
Camponello,stimuli/subj_files/pilot_cityB.csv,./stimuli/leipzig.jpg,./stimuli/street_plate2.png,RIBIZLI,stimuli/scenes/029a.jpg,scene,0,stimuli/scenes/029a.jpg,stimuli/scenes/029b.jpg,stimuli/objects/094a.jpg,stimuli/objects/094b.jpg,stimuli/scenes/029a.jpg,lure,dist1,dist2,target,0,0,0,0,0,50,50,48,,,,,,,,,217.054753,None,217.054753,None,217.054753,None,217.054753,None,220.0375037,None,,,,,,,,,,,,,,,,,,,,,,,,,,,,,,,,,,,,,,,pilot,2022_Jun_14_1511,Hippopolis_Learning,2021.1.2,59.52981434
Camponello,stimuli/subj_files/pilot_cityB.csv,./stimuli/leipzig.jpg,./stimuli/street_plate2.png,BÖGRE,stimuli/scenes/002a.jpg,scene,1,stimuli/scenes/075a.jpg,stimuli/scenes/023a.jpg,stimuli/scenes/075a.jpg,stimuli/scenes/023b.jpg,stimuli/scenes/075b.jpg,dist1,target,dist2,lure,0,0,0,0,0,51,51,7,,,,,,,,,221.0544047,None,221.0544047,None,221.0544047,None,221.0544047,None,224.0340739,None,,,,,,,,,,,,,,,,,,,,,,,,,,,,,,,,,,,,,,,pilot,2022_Jun_14_1511,Hippopolis_Learning,2021.1.2,59.52981434
Camponello,stimuli/subj_files/pilot_cityB.csv,./stimuli/leipzig.jpg,./stimuli/street_plate2.png,KÖTÉNY,stimuli/scenes/009a.jpg,scene,0,stimuli/scenes/009a.jpg,stimuli/scenes/009a.jpg,stimuli/scenes/009b.jpg,stimuli/objects/083a.jpg,stimuli/objects/083b.jpg,target,lure,dist1,dist2,0,0,0,0,0,52,52,20,,,,,,,,,225.0536185,None,225.0536185,None,225.0536185,None,225.0536185,None,228.0338207,None,,,,,,,,,,,,,,,,,,,,,,,,,,,,,,,,,,,,,,,pilot,2022_Jun_14_1511,Hippopolis_Learning,2021.1.2,59.52981434
Camponello,stimuli/subj_files/pilot_cityB.csv,./stimuli/leipzig.jpg,./stimuli/street_plate2.png,KOKTÉL,stimuli/scenes/026a.jpg,scene,2,stimuli/objects/099a.jpg,stimuli/scenes/079b.jpg,stimuli/objects/099a.jpg,stimuli/scenes/079a.jpg,stimuli/objects/099b.jpg,dist2,target,dist1,lure,0,0,0,0,0,53,53,29,,,,,,,,,229.0511565,None,229.0511565,None,229.0511565,None,229.0511565,None,232.0311837,None,,,,,,,,,,,,,,,,,,,,,,,,,,,,,,,,,,,,,,,pilot,2022_Jun_14_1511,Hippopolis_Learning,2021.1.2,59.52981434
Camponello,stimuli/subj_files/pilot_cityB.csv,./stimuli/leipzig.jpg,./stimuli/street_plate2.png,HENTES,stimuli/objects/033a.jpg,object,1,stimuli/objects/015a.jpg,stimuli/objects/015b.jpg,stimuli/objects/091b.jpg,stimuli/objects/091a.jpg,stimuli/objects/015a.jpg,lure,dist2,dist1,target,0,0,0,0,0,54,54,42,,,,,,,,,233.0621276,None,233.0621276,None,233.0621276,None,233.0621276,None,236.0339607,None,,,,,,,,,,,,,,,,,,,,,,,,,,,,,,,,,,,,,,,pilot,2022_Jun_14_1511,Hippopolis_Learning,2021.1.2,59.52981434
Camponello,stimuli/subj_files/pilot_cityB.csv,./stimuli/leipzig.jpg,./stimuli/street_plate2.png,DARU,stimuli/objects/002a.jpg,object,0,stimuli/objects/002a.jpg,stimuli/objects/002a.jpg,stimuli/objects/029a.jpg,stimuli/objects/002b.jpg,stimuli/objects/029b.jpg,target,dist1,lure,dist2,0,0,0,0,0,55,55,30,,,,,,,,,237.0783049,None,237.0783049,None,237.0783049,None,237.0783049,None,240.0368816,None,,,,,,,,,,,,,,,,,,,,,,,,,,,,,,,,,,,,,,,pilot,2022_Jun_14_1511,Hippopolis_Learning,2021.1.2,59.52981434
Camponello,stimuli/subj_files/pilot_cityB.csv,./stimuli/leipzig.jpg,./stimuli/street_plate2.png,VITORLA,stimuli/objects/077a.jpg,object,0,stimuli/objects/077a.jpg,stimuli/scenes/040a.jpg,stimuli/scenes/040b.jpg,stimuli/objects/077a.jpg,stimuli/objects/077b.jpg,dist1,dist2,target,lure,0,0,0,0,0,56,56,16,,,,,,,,,241.0792697,None,241.0792697,None,241.0792697,None,241.0792697,None,244.0311747,None,,,,,,,,,,,,,,,,,,,,,,,,,,,,,,,,,,,,,,,pilot,2022_Jun_14_1511,Hippopolis_Learning,2021.1.2,59.52981434
Camponello,stimuli/subj_files/pilot_cityB.csv,./stimuli/leipzig.jpg,./stimuli/street_plate2.png,SÜTEMÉNY,stimuli/objects/046a.jpg,object,0,stimuli/objects/046a.jpg,stimuli/objects/068b.jpg,stimuli/objects/046a.jpg,stimuli/objects/068a.jpg,stimuli/objects/046b.jpg,dist2,target,dist1,lure,0,0,0,0,0,57,57,56,,,,,,,,,245.0817997,None,245.0817997,None,245.0817997,None,245.0817997,None,248.0368384,None,,,,,,,,,,,,,,,,,,,,,,,,,,,,,,,,,,,,,,,pilot,2022_Jun_14_1511,Hippopolis_Learning,2021.1.2,59.52981434
Camponello,stimuli/subj_files/pilot_cityB.csv,./stimuli/leipzig.jpg,./stimuli/street_plate2.png,FECSKE,stimuli/scenes/004a.jpg,scene,0,stimuli/scenes/004a.jpg,stimuli/scenes/083b.jpg,stimuli/scenes/083a.jpg,stimuli/scenes/004b.jpg,stimuli/scenes/004a.jpg,dist2,dist1,lure,target,0,0,0,0,0,58,58,40,,,,,,,,,249.0860493,None,249.0860493,None,249.0860493,None,249.0860493,None,252.0338683,None,,,,,,,,,,,,,,,,,,,,,,,,,,,,,,,,,,,,,,,pilot,2022_Jun_14_1511,Hippopolis_Learning,2021.1.2,59.52981434
Camponello,stimuli/subj_files/pilot_cityB.csv,./stimuli/leipzig.jpg,./stimuli/street_plate2.png,KÖRTE,stimuli/scenes/040a.jpg,scene,0,stimuli/scenes/040a.jpg,stimuli/scenes/040a.jpg,stimuli/scenes/040b.jpg,stimuli/objects/002a.jpg,stimuli/objects/002b.jpg,target,lure,dist1,dist2,0,0,0,0,0,59,59,37,,,,,,,,,253.0756094,None,253.0756094,None,253.0756094,None,253.0756094,None,256.0365877,None,,,,,,,,,,,,,,,,,,,,,,,,,,,,,,,,,,,,,,,pilot,2022_Jun_14_1511,Hippopolis_Learning,2021.1.2,59.52981434
Camponello,stimuli/subj_files/pilot_cityB.csv,./stimuli/leipzig.jpg,./stimuli/street_plate2.png,FECSKE,stimuli/scenes/004a.jpg,scene,0,stimuli/scenes/004a.jpg,stimuli/scenes/083b.jpg,stimuli/scenes/083a.jpg,stimuli/scenes/004b.jpg,stimuli/scenes/004a.jpg,dist2,dist1,lure,target,0,0,0,0,,,,,0,0,0,40,,,,,,,,,,,,,344.4280035,None,257.0327947,None,space,85.4228035,257.0327947,None,342.5432906,None,342.5432906,None,342.5432906,None,342.5432906,None,right,1.83205209,342.5432906,None,342.5432906,None,None,None,None,None,None,None,None,None,None,None,None,,,,,,,,pilot,2022_Jun_14_1511,Hippopolis_Learning,2021.1.2,59.52981434
Camponello,stimuli/subj_files/pilot_cityB.csv,./stimuli/leipzig.jpg,./stimuli/street_plate2.png,KÖNYVTÁR,stimuli/objects/063a.jpg,object,1,stimuli/objects/045a.jpg,stimuli/objects/077a.jpg,stimuli/objects/045b.jpg,stimuli/objects/045a.jpg,stimuli/objects/077b.jpg,dist1,lure,target,dist2,0,0,0,0,,,,,0,1,1,19,,,,,,,,,,,,,347.2973531,None,,,,,,,345.4513452,None,345.4513452,None,345.4513452,None,345.4513452,None,left,1.787945136,345.4513452,None,345.4513452,None,None,None,None,None,None,None,None,None,None,None,None,,,,,,,,pilot,2022_Jun_14_1511,Hippopolis_Learning,2021.1.2,59.52981434
Camponello,stimuli/subj_files/pilot_cityB.csv,./stimuli/leipzig.jpg,./stimuli/street_plate2.png,KABÁT,stimuli/objects/016a.jpg,object,0,stimuli/objects/016a.jpg,stimuli/objects/016a.jpg,stimuli/objects/016b.jpg,stimuli/scenes/029b.jpg,stimuli/scenes/029a.jpg,target,lure,dist2,dist1,0,0,0,0,,,,,0,2,2,28,,,,,,,,,,,,,350.3835143,None,,,,,,,348.3150652,None,348.3150652,None,348.3150652,None,348.3150652,None,right,2.012438708,348.3150652,None,348.3150652,None,None,None,None,None,None,None,None,None,None,None,None,,,,,,,,pilot,2022_Jun_14_1511,Hippopolis_Learning,2021.1.2,59.52981434
Camponello,stimuli/subj_files/pilot_cityB.csv,./stimuli/leipzig.jpg,./stimuli/street_plate2.png,KECSKE,stimuli/scenes/054a.jpg,scene,1,stimuli/scenes/064a.jpg,stimuli/objects/047b.jpg,stimuli/objects/047a.jpg,stimuli/scenes/064a.jpg,stimuli/scenes/064b.jpg,dist2,dist1,target,lure,0,0,0,0,,,,,0,3,3,39,,,,,,,,,,,,,354.4655016,None,,,,,,,351.3983217,None,351.3983217,None,351.3983217,None,351.3983217,None,left,3.025015815,351.3983217,None,351.3983217,None,None,None,None,None,None,None,None,None,None,None,None,,,,,,,,pilot,2022_Jun_14_1511,Hippopolis_Learning,2021.1.2,59.52981434
Camponello,stimuli/subj_files/pilot_cityB.csv,./stimuli/leipzig.jpg,./stimuli/street_plate2.png,KÍGYÓ,stimuli/scenes/006a.jpg,scene,0,stimuli/scenes/006a.jpg,stimuli/scenes/006b.jpg,stimuli/scenes/006a.jpg,stimuli/objects/099b.jpg,stimuli/objects/099a.jpg,lure,target,dist2,dist1,0,0,0,0,,,,,0,4,4,6,,,,,,,,,,,,,356.4459567,None,,,,,,,355.4935115,None,355.4935115,None,355.4935115,None,355.4935115,None,right,0.8976779,355.4935115,None,355.4935115,None,None,None,None,None,None,None,None,None,None,None,None,,,,,,,,pilot,2022_Jun_14_1511,Hippopolis_Learning,2021.1.2,59.52981434
Camponello,stimuli/subj_files/pilot_cityB.csv,./stimuli/leipzig.jpg,./stimuli/street_plate2.png,LEGELŐ,stimuli/objects/022a.jpg,object,0,stimuli/objects/022a.jpg,stimuli/objects/022a.jpg,stimuli/objects/022b.jpg,stimuli/objects/025b.jpg,stimuli/objects/025a.jpg,target,lure,dist2,dist1,0,0,0,0,,,,,0,5,5,0,,,,,,,,,,,,,359.3944864,None,,,,,,,357.4769277,None,357.4769277,None,357.4769277,None,357.4769277,None,left,1.874354584,357.4769277,None,357.4769277,None,None,None,None,None,None,None,None,None,None,None,None,,,,,,,,pilot,2022_Jun_14_1511,Hippopolis_Learning,2021.1.2,59.52981434
Camponello,stimuli/subj_files/pilot_cityB.csv,./stimuli/leipzig.jpg,./stimuli/street_plate2.png,PELIKÁN,stimuli/objects/055a.jpg,object,2,stimuli/scenes/036a.jpg,stimuli/scenes/036b.jpg,stimuli/scenes/036a.jpg,stimuli/scenes/010a.jpg,stimuli/scenes/010b.jpg,lure,target,dist1,dist2,0,0,0,0,,,,,0,6,6,5,,,,,,,,,,,,,363.3831598,None,,,,,,,360.4113246,None,360.4113246,None,360.4113246,None,360.4113246,None,right,2.923919081,360.4113246,None,360.4113246,None,None,None,None,None,None,None,None,None,None,None,None,,,,,,,,pilot,2022_Jun_14_1511,Hippopolis_Learning,2021.1.2,59.52981434
Camponello,stimuli/subj_files/pilot_cityB.csv,./stimuli/leipzig.jpg,./stimuli/street_plate2.png,ORVOS,stimuli/objects/006a.jpg,object,2,stimuli/scenes/019a.jpg,stimuli/scenes/019b.jpg,stimuli/objects/061b.jpg,stimuli/objects/061a.jpg,stimuli/scenes/019a.jpg,lure,dist2,dist1,target,0,0,0,0,,,,,0,7,7,33,,,,,,,,,,,,,366.1027211,None,,,,,,,364.4029075,None,364.4029075,None,364.4029075,None,364.4029075,None,right,1.652281264,364.4029075,None,364.4029075,None,None,None,None,None,None,None,None,None,None,None,None,,,,,,,,pilot,2022_Jun_14_1511,Hippopolis_Learning,2021.1.2,59.52981434
Camponello,stimuli/subj_files/pilot_cityB.csv,./stimuli/leipzig.jpg,./stimuli/street_plate2.png,SZÚNYOG,stimuli/scenes/051a.jpg,scene,1,stimuli/scenes/005a.jpg,stimuli/objects/071b.jpg,stimuli/scenes/005a.jpg,stimuli/scenes/005b.jpg,stimuli/objects/071a.jpg,dist2,target,lure,dist1,0,0,0,0,,,,,0,8,8,25,,,,,,,,,,,,,395.0266962,None,,,,,,,367.1350067,None,367.1350067,None,367.1350067,None,367.1350067,None,right,1.448446927,367.1350067,None,367.1350067,None,368.6330878,None,368.6330878,None,368.6330878,None,368.6330878,None,space,368.6330878,None,26.36579164,,,,,,,pilot,2022_Jun_14_1511,Hippopolis_Learning,2021.1.2,59.52981434
Camponello,stimuli/subj_files/pilot_cityB.csv,./stimuli/leipzig.jpg,./stimuli/street_plate2.png,HERING,stimuli/objects/004a.jpg,object,0,stimuli/objects/004a.jpg,stimuli/objects/012a.jpg,stimuli/objects/012b.jpg,stimuli/objects/004b.jpg,stimuli/objects/004a.jpg,dist1,dist2,lure,target,0,0,0,0,,,,,0,9,9,21,,,,,,,,,,,,,397.5613837,None,,,,,,,396.0533426,None,396.0533426,None,396.0533426,None,396.0533426,None,right,1.457419467,396.0533426,None,396.0533426,None,None,None,None,None,None,None,None,None,None,None,None,,,,,,,,pilot,2022_Jun_14_1511,Hippopolis_Learning,2021.1.2,59.52981434
Camponello,stimuli/subj_files/pilot_cityB.csv,./stimuli/leipzig.jpg,./stimuli/street_plate2.png,VITORLA,stimuli/objects/077a.jpg,object,0,stimuli/objects/077a.jpg,stimuli/scenes/040a.jpg,stimuli/scenes/040b.jpg,stimuli/objects/077a.jpg,stimuli/objects/077b.jpg,dist1,dist2,target,lure,0,0,0,0,,,,,0,10,10,16,,,,,,,,,,,,,399.8512406,None,,,,,,,398.5836996,None,398.5836996,None,398.5836996,None,398.5836996,None,left,1.21503524,398.5836996,None,398.5836996,None,None,None,None,None,None,None,None,None,None,None,None,,,,,,,,pilot,2022_Jun_14_1511,Hippopolis_Learning,2021.1.2,59.52981434
Camponello,stimuli/subj_files/pilot_cityB.csv,./stimuli/leipzig.jpg,./stimuli/street_plate2.png,SZŐLŐ,stimuli/objects/068a.jpg,object,0,stimuli/objects/068a.jpg,stimuli/objects/068a.jpg,stimuli/objects/068b.jpg,stimuli/scenes/005a.jpg,stimuli/scenes/005b.jpg,target,lure,dist1,dist2,0,0,0,0,,,,,0,11,11,2,,,,,,,,,,,,,402.6936112,None,,,,,,,400.8837025,None,400.8837025,None,400.8837025,None,400.8837025,None,right,1.763117169,400.8837025,None,400.8837025,None,None,None,None,None,None,None,None,None,None,None,None,,,,,,,,pilot,2022_Jun_14_1511,Hippopolis_Learning,2021.1.2,59.52981434
Camponello,stimuli/subj_files/pilot_cityB.csv,./stimuli/leipzig.jpg,./stimuli/street_plate2.png,PETÁRDA,stimuli/scenes/023a.jpg,scene,0,stimuli/scenes/023a.jpg,stimuli/scenes/023a.jpg,stimuli/scenes/019b.jpg,stimuli/scenes/019a.jpg,stimuli/scenes/023b.jpg,target,dist2,dist1,lure,0,0,0,0,,,,,0,12,12,51,,,,,,,,,,,,,411.8502702,None,,,,,,,403.7154234,None,403.7154234,None,403.7154234,None,403.7154234,None,right,1.63524619,403.7154234,None,403.7154234,None,405.4127826,None,405.4127826,None,405.4127826,None,405.4127826,None,space,405.4127826,None,6.401917542,,,,,,,pilot,2022_Jun_14_1511,Hippopolis_Learning,2021.1.2,59.52981434
Camponello,stimuli/subj_files/pilot_cityB.csv,./stimuli/leipzig.jpg,./stimuli/street_plate2.png,PÁLMAFA,stimuli/scenes/046a.jpg,scene,2,stimuli/objects/052a.jpg,stimuli/scenes/075b.jpg,stimuli/objects/052a.jpg,stimuli/scenes/075a.jpg,stimuli/objects/052b.jpg,dist2,target,dist1,lure,0,0,0,0,,,,,0,13,13,12,,,,,,,,,,,,,420.5743057,None,,,,,,,412.8679416,None,412.8679416,None,412.8679416,None,412.8679416,None,right,1.314593424,412.8679416,None,412.8679416,None,414.2356833,None,414.2356833,None,414.2356833,None,414.2356833,None,space,414.2356833,None,6.29881606,,,,,,,pilot,2022_Jun_14_1511,Hippopolis_Learning,2021.1.2,59.52981434
Camponello,stimuli/subj_files/pilot_cityB.csv,./stimuli/leipzig.jpg,./stimuli/street_plate2.png,MÁLNA,stimuli/objects/082a.jpg,object,1,stimuli/objects/083a.jpg,stimuli/objects/083b.jpg,stimuli/objects/083a.jpg,stimuli/objects/089b.jpg,stimuli/objects/089a.jpg,lure,target,dist2,dist1,0,0,0,0,,,,,0,14,14,27,,,,,,,,,,,,,427.9121437,None,,,,,,,421.5983764,None,421.5983764,None,421.5983764,None,421.5983764,None,right,1.784054444,421.5983764,None,421.5983764,None,423.4317151,None,423.4317151,None,423.4317151,None,423.4317151,None,space,423.4317151,None,4.446820984,,,,,,,pilot,2022_Jun_14_1511,Hippopolis_Learning,2021.1.2,59.52981434
Camponello,stimuli/subj_files/pilot_cityB.csv,./stimuli/leipzig.jpg,./stimuli/street_plate2.png,TENISZ,stimuli/scenes/041a.jpg,scene,0,stimuli/scenes/041a.jpg,stimuli/scenes/037a.jpg,stimuli/scenes/037b.jpg,stimuli/scenes/041b.jpg,stimuli/scenes/041a.jpg,dist1,dist2,lure,target,0,0,0,0,,,,,0,15,15,10,,,,,,,,,,,,,436.1991304,None,,,,,,,428.9332129,None,428.9332129,None,428.9332129,None,428.9332129,None,right,1.633285293,428.9332129,None,428.9332129,None,430.6135746,None,430.6135746,None,430.6135746,None,430.6135746,None,space,430.6135746,None,5.553125523,,,,,,,pilot,2022_Jun_14_1511,Hippopolis_Learning,2021.1.2,59.52981434
Camponello,stimuli/subj_files/pilot_cityB.csv,./stimuli/leipzig.jpg,./stimuli/street_plate2.png,DARU,stimuli/objects/002a.jpg,object,0,stimuli/objects/002a.jpg,stimuli/objects/002a.jpg,stimuli/objects/029a.jpg,stimuli/objects/002b.jpg,stimuli/objects/029b.jpg,target,dist1,lure,dist2,0,0,0,0,,,,,0,16,16,30,,,,,,,,,,,,,439.0161857,None,,,,,,,437.2246967,None,437.2246967,None,437.2246967,None,437.2246967,None,left,1.757684818,437.2246967,None,437.2246967,None,None,None,None,None,None,None,None,None,None,None,None,,,,,,,,pilot,2022_Jun_14_1511,Hippopolis_Learning,2021.1.2,59.52981434
Camponello,stimuli/subj_files/pilot_cityB.csv,./stimuli/leipzig.jpg,./stimuli/street_plate2.png,KARTON,stimuli/objects/047a.jpg,object,0,stimuli/objects/047a.jpg,stimuli/objects/047a.jpg,stimuli/objects/004b.jpg,stimuli/objects/047b.jpg,stimuli/objects/004a.jpg,target,dist2,lure,dist1,0,0,0,0,,,,,0,17,17,44,,,,,,,,,,,,,445.8500127,None,,,,,,,440.0440211,None,440.0440211,None,440.0440211,None,440.0440211,None,right,1.994329728,440.0440211,None,440.0440211,None,442.0803495,None,442.0803495,None,442.0803495,None,442.0803495,None,space,442.0803495,None,3.733820038,,,,,,,pilot,2022_Jun_14_1511,Hippopolis_Learning,2021.1.2,59.52981434
Camponello,stimuli/subj_files/pilot_cityB.csv,./stimuli/leipzig.jpg,./stimuli/street_plate2.png,KOKTÉL,stimuli/scenes/026a.jpg,scene,2,stimuli/objects/099a.jpg,stimuli/scenes/079b.jpg,stimuli/objects/099a.jpg,stimuli/scenes/079a.jpg,stimuli/objects/099b.jpg,dist2,target,dist1,lure,0,0,0,0,,,,,0,18,18,29,,,,,,,,,,,,,448.1704503,None,,,,,,,446.8693567,None,446.8693567,None,446.8693567,None,446.8693567,None,left,1.248849742,446.8693567,None,446.8693567,None,None,None,None,None,None,None,None,None,None,None,None,,,,,,,,pilot,2022_Jun_14_1511,Hippopolis_Learning,2021.1.2,59.52981434
Camponello,stimuli/subj_files/pilot_cityB.csv,./stimuli/leipzig.jpg,./stimuli/street_plate2.png,TOLMÁCS,stimuli/scenes/025a.jpg,scene,0,stimuli/scenes/025a.jpg,stimuli/scenes/025a.jpg,stimuli/scenes/025b.jpg,stimuli/objects/021a.jpg,stimuli/objects/021b.jpg,target,lure,dist1,dist2,0,0,0,0,,,,,0,19,19,8,,,,,,,,,,,,,451.0100611,None,,,,,,,449.1869529,None,449.1869529,None,449.1869529,None,449.1869529,None,right,1.763211716,449.1869529,None,449.1869529,None,None,None,None,None,None,None,None,None,None,None,None,,,,,,,,pilot,2022_Jun_14_1511,Hippopolis_Learning,2021.1.2,59.52981434
Camponello,stimuli/subj_files/pilot_cityB.csv,./stimuli/leipzig.jpg,./stimuli/street_plate2.png,SZIKLA,stimuli/objects/087a.jpg,object,0,stimuli/objects/087a.jpg,stimuli/scenes/031a.jpg,stimuli/objects/087a.jpg,stimuli/scenes/031b.jpg,stimuli/objects/087b.jpg,dist1,target,dist2,lure,0,0,0,0,,,,,0,20,20,31,,,,,,,,,,,,,456.044375,None,,,,,,,452.0389582,None,452.0389582,None,452.0389582,None,452.0389582,None,None,,452.0389582,None,452.0389582,None,None,None,None,None,None,None,None,None,None,None,None,,,,,,,,pilot,2022_Jun_14_1511,Hippopolis_Learning,2021.1.2,59.52981434
Camponello,stimuli/subj_files/pilot_cityB.csv,./stimuli/leipzig.jpg,./stimuli/street_plate2.png,MOCSÁR,stimuli/objects/036a.jpg,object,2,stimuli/scenes/079a.jpg,stimuli/scenes/079a.jpg,stimuli/scenes/079b.jpg,stimuli/scenes/049a.jpg,stimuli/scenes/049b.jpg,target,lure,dist1,dist2,0,0,0,0,,,,,0,21,21,50,,,,,,,,,,,,,465.0394192,None,,,,,,,457.0625173,None,457.0625173,None,457.0625173,None,457.0625173,None,right,1.535640733,457.0625173,None,457.0625173,None,458.6331606,None,458.6331606,None,458.6331606,None,458.6331606,None,space,458.6331606,None,6.364796418,,,,,,,pilot,2022_Jun_14_1511,Hippopolis_Learning,2021.1.2,59.52981434
Camponello,stimuli/subj_files/pilot_cityB.csv,./stimuli/leipzig.jpg,./stimuli/street_plate2.png,KÖRTE,stimuli/scenes/040a.jpg,scene,0,stimuli/scenes/040a.jpg,stimuli/scenes/040a.jpg,stimuli/scenes/040b.jpg,stimuli/objects/002a.jpg,stimuli/objects/002b.jpg,target,lure,dist1,dist2,0,0,0,0,,,,,0,22,22,37,,,,,,,,,,,,,489.7888648,None,,,,,,,466.0622505,None,466.0622505,None,466.0622505,None,466.0622505,None,right,1.335977926,466.0622505,None,466.0622505,None,467.4312563,None,467.4312563,None,467.4312563,None,467.4312563,None,space,467.4312563,None,22.33470964,,,,,,,pilot,2022_Jun_14_1511,Hippopolis_Learning,2021.1.2,59.52981434
Camponello,stimuli/subj_files/pilot_cityB.csv,./stimuli/leipzig.jpg,./stimuli/street_plate2.png,LOVAGLÁS,stimuli/objects/021a.jpg,object,0,stimuli/objects/021a.jpg,stimuli/objects/021b.jpg,stimuli/scenes/042b.jpg,stimuli/objects/021a.jpg,stimuli/scenes/042a.jpg,lure,dist2,target,dist1,0,0,0,0,,,,,0,23,23,38,,,,,,,,,,,,,505.956637,None,,,,,,,490.8211973,None,490.8211973,None,490.8211973,None,490.8211973,None,right,1.776592773,490.8211973,None,490.8211973,None,492.6358694,None,492.6358694,None,492.6358694,None,492.6358694,None,space,492.6358694,None,13.28977759,,,,,,,pilot,2022_Jun_14_1511,Hippopolis_Learning,2021.1.2,59.52981434
Camponello,stimuli/subj_files/pilot_cityB.csv,./stimuli/leipzig.jpg,./stimuli/street_plate2.png,PAPRIKA,stimuli/scenes/007a.jpg,scene,0,stimuli/scenes/007a.jpg,stimuli/scenes/007a.jpg,stimuli/objects/084b.jpg,stimuli/scenes/007b.jpg,stimuli/objects/084a.jpg,target,dist2,lure,dist1,0,0,0,0,,,,,0,24,24,52,,,,,,,,,,,,,508.6624067,None,,,,,,,506.9794745,None,506.9794745,None,506.9794745,None,506.9794745,None,right,1.634100441,506.9794745,None,506.9794745,None,None,None,None,None,None,None,None,None,None,None,None,,,,,,,,pilot,2022_Jun_14_1511,Hippopolis_Learning,2021.1.2,59.52981434
Camponello,stimuli/subj_files/pilot_cityB.csv,./stimuli/leipzig.jpg,./stimuli/street_plate2.png,TRIATLON,stimuli/objects/039a.jpg,object,2,stimuli/scenes/045a.jpg,stimuli/scenes/006b.jpg,stimuli/scenes/045b.jpg,stimuli/scenes/045a.jpg,stimuli/scenes/006a.jpg,dist2,lure,target,dist1,0,0,0,0,,,,,0,25,25,43,,,,,,,,,,,,,511.3654666,None,,,,,,,509.6931774,None,509.6931774,None,509.6931774,None,509.6931774,None,right,1.640555072,509.6931774,None,509.6931774,None,None,None,None,None,None,None,None,None,None,None,None,,,,,,,,pilot,2022_Jun_14_1511,Hippopolis_Learning,2021.1.2,59.52981434
Camponello,stimuli/subj_files/pilot_cityB.csv,./stimuli/leipzig.jpg,./stimuli/street_plate2.png,FÉNYMÁSOLÓ,stimuli/objects/050a.jpg,object,0,stimuli/objects/050a.jpg,stimuli/objects/015b.jpg,stimuli/objects/015a.jpg,stimuli/objects/050b.jpg,stimuli/objects/050a.jpg,dist2,dist1,lure,target,0,0,0,0,,,,,0,26,26,14,,,,,,,,,,,,,513.7490351,None,,,,,,,512.3980324,None,512.3980324,None,512.3980324,None,512.3980324,None,right,1.319478094,512.3980324,None,512.3980324,None,None,None,None,None,None,None,None,None,None,None,None,,,,,,,,pilot,2022_Jun_14_1511,Hippopolis_Learning,2021.1.2,59.52981434
Camponello,stimuli/subj_files/pilot_cityB.csv,./stimuli/leipzig.jpg,./stimuli/street_plate2.png,SZEKRÉNY,stimuli/objects/012a.jpg,object,0,stimuli/objects/012a.jpg,stimuli/objects/012a.jpg,stimuli/scenes/048a.jpg,stimuli/scenes/048b.jpg,stimuli/objects/012b.jpg,target,dist1,dist2,lure,0,0,0,0,,,,,0,27,27,53,,,,,,,,,,,,,516.702911,None,,,,,,,514.76929,None,514.76929,None,514.76929,None,514.76929,None,right,1.892200452,514.76929,None,514.76929,None,None,None,None,None,None,None,None,None,None,None,None,,,,,,,,pilot,2022_Jun_14_1511,Hippopolis_Learning,2021.1.2,59.52981434
Camponello,stimuli/subj_files/pilot_cityB.csv,./stimuli/leipzig.jpg,./stimuli/street_plate2.png,KÖMÉNYMAG,stimuli/scenes/078a.jpg,scene,0,stimuli/scenes/078a.jpg,stimuli/scenes/078b.jpg,stimuli/objects/087a.jpg,stimuli/scenes/078a.jpg,stimuli/objects/087b.jpg,lure,dist1,target,dist2,0,0,0,0,,,,,0,28,28,1,,,,,,,,,,,,,520.8760888,None,,,,,,,517.7378037,None,517.7378037,None,517.7378037,None,517.7378037,None,right,3.099615098,517.7378037,None,517.7378037,None,None,None,None,None,None,None,None,None,None,None,None,,,,,,,,pilot,2022_Jun_14_1511,Hippopolis_Learning,2021.1.2,59.52981434
Camponello,stimuli/subj_files/pilot_cityB.csv,./stimuli/leipzig.jpg,./stimuli/street_plate2.png,SÜTEMÉNY,stimuli/objects/046a.jpg,object,0,stimuli/objects/046a.jpg,stimuli/objects/068b.jpg,stimuli/objects/046a.jpg,stimuli/objects/068a.jpg,stimuli/objects/046b.jpg,dist2,target,dist1,lure,0,0,0,0,,,,,0,29,29,56,,,,,,,,,,,,,525.8970273,None,,,,,,,521.8986193,None,521.8986193,None,521.8986193,None,521.8986193,None,None,,521.8986193,None,521.8986193,None,None,None,None,None,None,None,None,None,None,None,None,,,,,,,,pilot,2022_Jun_14_1511,Hippopolis_Learning,2021.1.2,59.52981434
Camponello,stimuli/subj_files/pilot_cityB.csv,./stimuli/leipzig.jpg,./stimuli/street_plate2.png,TELEFON,stimuli/objects/044a.jpg,object,0,stimuli/objects/044a.jpg,stimuli/scenes/039a.jpg,stimuli/objects/044a.jpg,stimuli/scenes/039b.jpg,stimuli/objects/044b.jpg,dist1,target,dist2,lure,0,0,0,0,,,,,0,30,30,35,,,,,,,,,,,,,529.0491767,None,,,,,,,526.9142869,None,526.9142869,None,526.9142869,None,526.9142869,None,right,2.099048445,526.9142869,None,526.9142869,None,None,None,None,None,None,None,None,None,None,None,None,,,,,,,,pilot,2022_Jun_14_1511,Hippopolis_Learning,2021.1.2,59.52981434
Camponello,stimuli/subj_files/pilot_cityB.csv,./stimuli/leipzig.jpg,./stimuli/street_plate2.png,SAPKA,stimuli/objects/029a.jpg,object,0,stimuli/objects/029a.jpg,stimuli/objects/029b.jpg,stimuli/objects/029a.jpg,stimuli/scenes/045a.jpg,stimuli/scenes/045b.jpg,lure,target,dist1,dist2,0,0,0,0,,,,,0,31,31,13,,,,,,,,,,,,,532.227403,None,,,,,,,530.0678604,None,530.0678604,None,530.0678604,None,530.0678604,None,right,2.12969099,530.0678604,None,530.0678604,None,None,None,None,None,None,None,None,None,None,None,None,,,,,,,,pilot,2022_Jun_14_1511,Hippopolis_Learning,2021.1.2,59.52981434
Camponello,stimuli/subj_files/pilot_cityB.csv,./stimuli/leipzig.jpg,./stimuli/street_plate2.png,PISZTRÁNG,stimuli/objects/072a.jpg,object,0,stimuli/objects/072a.jpg,stimuli/objects/046b.jpg,stimuli/objects/072b.jpg,stimuli/objects/072a.jpg,stimuli/objects/046a.jpg,dist2,lure,target,dist1,0,0,0,0,,,,,0,32,32,49,,,,,,,,,,,,,536.6508799,None,,,,,,,533.2563204,None,533.2563204,None,533.2563204,None,533.2563204,None,left,3.356978646,533.2563204,None,533.2563204,None,None,None,None,None,None,None,None,None,None,None,None,,,,,,,,pilot,2022_Jun_14_1511,Hippopolis_Learning,2021.1.2,59.52981434
Camponello,stimuli/subj_files/pilot_cityB.csv,./stimuli/leipzig.jpg,./stimuli/street_plate2.png,MARTINI,stimuli/objects/067a.jpg,object,0,stimuli/objects/067a.jpg,stimuli/objects/067b.jpg,stimuli/scenes/009b.jpg,stimuli/objects/067a.jpg,stimuli/scenes/009a.jpg,lure,dist2,target,dist1,0,0,0,0,,,,,0,33,33,23,,,,,,,,,,,,,539.6033745,None,,,,,,,537.6824001,None,537.6824001,None,537.6824001,None,537.6824001,None,right,1.890813363,537.6824001,None,537.6824001,None,None,None,None,None,None,None,None,None,None,None,None,,,,,,,,pilot,2022_Jun_14_1511,Hippopolis_Learning,2021.1.2,59.52981434
Camponello,stimuli/subj_files/pilot_cityB.csv,./stimuli/leipzig.jpg,./stimuli/street_plate2.png,BÖGRE,stimuli/scenes/002a.jpg,scene,1,stimuli/scenes/075a.jpg,stimuli/scenes/023a.jpg,stimuli/scenes/075a.jpg,stimuli/scenes/023b.jpg,stimuli/scenes/075b.jpg,dist1,target,dist2,lure,0,0,0,0,,,,,0,34,34,7,,,,,,,,,,,,,542.6736583,None,,,,,,,540.6336747,None,540.6336747,None,540.6336747,None,540.6336747,None,right,1.995393993,540.6336747,None,540.6336747,None,None,None,None,None,None,None,None,None,None,None,None,,,,,,,,pilot,2022_Jun_14_1511,Hippopolis_Learning,2021.1.2,59.52981434
Camponello,stimuli/subj_files/pilot_cityB.csv,./stimuli/leipzig.jpg,./stimuli/street_plate2.png,KALAPÁCS,stimuli/objects/049a.jpg,object,1,stimuli/objects/048a.jpg,stimuli/objects/022a.jpg,stimuli/objects/048b.jpg,stimuli/objects/048a.jpg,stimuli/objects/022b.jpg,dist1,lure,target,dist2,0,0,0,0,,,,,0,35,35,32,,,,,,,,,,,,,546.107575,None,,,,,,,543.7017189,None,543.7017189,None,543.7017189,None,543.7017189,None,left,2.3676922,543.7017189,None,543.7017189,None,None,None,None,None,None,None,None,None,None,None,None,,,,,,,,pilot,2022_Jun_14_1511,Hippopolis_Learning,2021.1.2,59.52981434
Camponello,stimuli/subj_files/pilot_cityB.csv,./stimuli/leipzig.jpg,./stimuli/street_plate2.png,CSAVARHÚZÓ,stimuli/scenes/037a.jpg,scene,0,stimuli/scenes/037a.jpg,stimuli/objects/072a.jpg,stimuli/objects/072b.jpg,stimuli/scenes/037b.jpg,stimuli/scenes/037a.jpg,dist1,dist2,lure,target,0,0,0,0,,,,,0,36,36,57,,,,,,,,,,,,,549.8418684,None,,,,,,,547.1394893,None,547.1394893,None,547.1394893,None,547.1394893,None,right,2.641549671,547.1394893,None,547.1394893,None,None,None,None,None,None,None,None,None,None,None,None,,,,,,,,pilot,2022_Jun_14_1511,Hippopolis_Learning,2021.1.2,59.52981434
Camponello,stimuli/subj_files/pilot_cityB.csv,./stimuli/leipzig.jpg,./stimuli/street_plate2.png,MENTA,stimuli/scenes/042a.jpg,scene,0,stimuli/scenes/042a.jpg,stimuli/objects/028a.jpg,stimuli/objects/028b.jpg,stimuli/scenes/042a.jpg,stimuli/scenes/042b.jpg,dist1,dist2,target,lure,0,0,0,0,,,,,0,37,37,54,,,,,,,,,,,,,552.8991549,None,,,,,,,550.8644014,None,550.8644014,None,550.8644014,None,550.8644014,None,right,1.988718547,550.8644014,None,550.8644014,None,None,None,None,None,None,None,None,None,None,None,None,,,,,,,,pilot,2022_Jun_14_1511,Hippopolis_Learning,2021.1.2,59.52981434
Camponello,stimuli/subj_files/pilot_cityB.csv,./stimuli/leipzig.jpg,./stimuli/street_plate2.png,KANÁL,stimuli/objects/028a.jpg,object,0,stimuli/objects/028a.jpg,stimuli/objects/028b.jpg,stimuli/objects/050b.jpg,stimuli/objects/028a.jpg,stimuli/objects/050a.jpg,lure,dist2,target,dist1,0,0,0,0,,,,,0,38,38,26,,,,,,,,,,,,,561.8709627,None,,,,,,,553.9256868,None,553.9256868,None,553.9256868,None,553.9256868,None,right,3.087362372,553.9256868,None,553.9256868,None,557.0499567,None,557.0499567,None,557.0499567,None,557.0499567,None,space,557.0499567,None,4.778975706,,,,,,,pilot,2022_Jun_14_1511,Hippopolis_Learning,2021.1.2,59.52981434
Camponello,stimuli/subj_files/pilot_cityB.csv,./stimuli/leipzig.jpg,./stimuli/street_plate2.png,MAJORÁNNA,stimuli/scenes/031a.jpg,scene,0,stimuli/scenes/031a.jpg,stimuli/objects/044b.jpg,stimuli/objects/044a.jpg,stimuli/scenes/031b.jpg,stimuli/scenes/031a.jpg,dist2,dist1,lure,target,0,0,0,0,,,,,0,39,39,3,,,,,,,,,,,,,564.528495,None,,,,,,,562.888975,None,562.888975,None,562.888975,None,562.888975,None,right,1.596091704,562.888975,None,562.888975,None,None,None,None,None,None,None,None,None,None,None,None,,,,,,,,pilot,2022_Jun_14_1511,Hippopolis_Learning,2021.1.2,59.52981434
Camponello,stimuli/subj_files/pilot_cityB.csv,./stimuli/leipzig.jpg,./stimuli/street_plate2.png,HENTES,stimuli/objects/033a.jpg,object,1,stimuli/objects/015a.jpg,stimuli/objects/015b.jpg,stimuli/objects/091b.jpg,stimuli/objects/091a.jpg,stimuli/objects/015a.jpg,lure,dist2,dist1,target,0,0,0,0,,,,,0,40,40,42,,,,,,,,,,,,,567.8137693,None,,,,,,,565.5503258,None,565.5503258,None,565.5503258,None,565.5503258,None,right,2.214591745,565.5503258,None,565.5503258,None,None,None,None,None,None,None,None,None,None,None,None,,,,,,,,pilot,2022_Jun_14_1511,Hippopolis_Learning,2021.1.2,59.52981434
Camponello,stimuli/subj_files/pilot_cityB.csv,./stimuli/leipzig.jpg,./stimuli/street_plate2.png,BONBON,stimuli/objects/091a.jpg,object,0,stimuli/objects/091a.jpg,stimuli/objects/091a.jpg,stimuli/objects/091b.jpg,stimuli/scenes/069a.jpg,stimuli/scenes/069b.jpg,target,lure,dist1,dist2,0,0,0,0,,,,,0,41,41,24,,,,,,,,,,,,,570.0691965,None,,,,,,,568.8304358,None,568.8304358,None,568.8304358,None,568.8304358,None,left,1.206470741,568.8304358,None,568.8304358,None,None,None,None,None,None,None,None,None,None,None,None,,,,,,,,pilot,2022_Jun_14_1511,Hippopolis_Learning,2021.1.2,59.52981434
Camponello,stimuli/subj_files/pilot_cityB.csv,./stimuli/leipzig.jpg,./stimuli/street_plate2.png,KIRAKÓ,stimuli/scenes/032a.jpg,scene,0,stimuli/scenes/032a.jpg,stimuli/scenes/032a.jpg,stimuli/scenes/064a.jpg,stimuli/scenes/032b.jpg,stimuli/scenes/064b.jpg,target,dist1,lure,dist2,0,0,0,0,,,,,0,42,42,46,,,,,,,,,,,,,573.7360714,None,,,,,,,571.1001186,None,571.1001186,None,571.1001186,None,571.1001186,None,right,2.58476018,571.1001186,None,571.1001186,None,None,None,None,None,None,None,None,None,None,None,None,,,,,,,,pilot,2022_Jun_14_1511,Hippopolis_Learning,2021.1.2,59.52981434
Camponello,stimuli/subj_files/pilot_cityB.csv,./stimuli/leipzig.jpg,./stimuli/street_plate2.png,TENGER,stimuli/objects/061a.jpg,object,0,stimuli/objects/061a.jpg,stimuli/objects/016a.jpg,stimuli/objects/061a.jpg,stimuli/objects/016b.jpg,stimuli/objects/061b.jpg,dist1,target,dist2,lure,0,0,0,0,,,,,0,43,43,18,,,,,,,,,,,,,581.3817226,None,,,,,,,574.7707008,None,574.7707008,None,574.7707008,None,574.7707008,None,right,1.714110929,574.7707008,None,574.7707008,None,576.5296915,None,576.5296915,None,576.5296915,None,576.5296915,None,space,576.5296915,None,4.819098044,,,,,,,pilot,2022_Jun_14_1511,Hippopolis_Learning,2021.1.2,59.52981434
Camponello,stimuli/subj_files/pilot_cityB.csv,./stimuli/leipzig.jpg,./stimuli/street_plate2.png,BICIKLI,stimuli/scenes/010a.jpg,scene,0,stimuli/scenes/010a.jpg,stimuli/objects/052a.jpg,stimuli/objects/052b.jpg,stimuli/scenes/010a.jpg,stimuli/scenes/010b.jpg,dist1,dist2,target,lure,0,0,0,0,,,,,0,44,44,58,,,,,,,,,,,,,584.2276699,None,,,,,,,582.4146312,None,582.4146312,None,582.4146312,None,582.4146312,None,right,1.782111274,582.4146312,None,582.4146312,None,None,None,None,None,None,None,None,None,None,None,None,,,,,,,,pilot,2022_Jun_14_1511,Hippopolis_Learning,2021.1.2,59.52981434
Camponello,stimuli/subj_files/pilot_cityB.csv,./stimuli/leipzig.jpg,./stimuli/street_plate2.png,KÖTÉNY,stimuli/scenes/009a.jpg,scene,0,stimuli/scenes/009a.jpg,stimuli/scenes/009a.jpg,stimuli/scenes/009b.jpg,stimuli/objects/083a.jpg,stimuli/objects/083b.jpg,target,lure,dist1,dist2,0,0,0,0,,,,,0,45,45,20,,,,,,,,,,,,,587.8811193,None,,,,,,,585.246655,None,585.246655,None,585.246655,None,585.246655,None,left,2.581911359,585.246655,None,585.246655,None,None,None,None,None,None,None,None,None,None,None,None,,,,,,,,pilot,2022_Jun_14_1511,Hippopolis_Learning,2021.1.2,59.52981434
Camponello,stimuli/subj_files/pilot_cityB.csv,./stimuli/leipzig.jpg,./stimuli/street_plate2.png,ZEBRA,stimuli/scenes/052a.jpg,scene,0,stimuli/scenes/052a.jpg,stimuli/scenes/004b.jpg,stimuli/scenes/052b.jpg,stimuli/scenes/004a.jpg,stimuli/scenes/052a.jpg,dist2,lure,dist1,target,0,0,0,0,,,,,0,46,46,4,,,,,,,,,,,,,590.8864804,None,,,,,,,588.8985042,None,588.8985042,None,588.8985042,None,588.8985042,None,right,1.938339835,588.8985042,None,588.8985042,None,None,None,None,None,None,None,None,None,None,None,None,,,,,,,,pilot,2022_Jun_14_1511,Hippopolis_Learning,2021.1.2,59.52981434
Camponello,stimuli/subj_files/pilot_cityB.csv,./stimuli/leipzig.jpg,./stimuli/street_plate2.png,PIZSAMA,stimuli/objects/071a.jpg,object,0,stimuli/objects/071a.jpg,stimuli/scenes/036b.jpg,stimuli/objects/071a.jpg,stimuli/scenes/036a.jpg,stimuli/objects/071b.jpg,dist2,target,dist1,lure,0,0,0,0,,,,,0,47,47,9,,,,,,,,,,,,,593.95263,None,,,,,,,591.9209695,None,591.9209695,None,591.9209695,None,591.9209695,None,right,1.987759403,591.9209695,None,591.9209695,None,None,None,None,None,None,None,None,None,None,None,None,,,,,,,,pilot,2022_Jun_14_1511,Hippopolis_Learning,2021.1.2,59.52981434
Camponello,stimuli/subj_files/pilot_cityB.csv,./stimuli/leipzig.jpg,./stimuli/street_plate2.png,LÁMPA,stimuli/scenes/008a.jpg,scene,1,stimuli/scenes/076a.jpg,stimuli/scenes/076b.jpg,stimuli/scenes/076a.jpg,stimuli/scenes/032b.jpg,stimuli/scenes/032a.jpg,lure,target,dist2,dist1,0,0,0,0,,,,,0,48,48,55,,,,,,,,,,,,,597.5232051,None,,,,,,,594.9876751,None,594.9876751,None,594.9876751,None,594.9876751,None,right,2.488946826,594.9876751,None,594.9876751,None,None,None,None,None,None,None,None,None,None,None,None,,,,,,,,pilot,2022_Jun_14_1511,Hippopolis_Learning,2021.1.2,59.52981434
Camponello,stimuli/subj_files/pilot_cityB.csv,./stimuli/leipzig.jpg,./stimuli/street_plate2.png,HEGESZTŐ,stimuli/scenes/082a.jpg,scene,2,stimuli/objects/094a.jpg,stimuli/objects/048b.jpg,stimuli/objects/094b.jpg,stimuli/objects/094a.jpg,stimuli/objects/048a.jpg,dist2,lure,target,dist1,0,0,0,0,,,,,0,49,49,59,,,,,,,,,,,,,600.8954586,None,,,,,,,598.5444049,None,598.5444049,None,598.5444049,None,598.5444049,None,right,2.2920526,598.5444049,None,598.5444049,None,None,None,None,None,None,None,None,None,None,None,None,,,,,,,,pilot,2022_Jun_14_1511,Hippopolis_Learning,2021.1.2,59.52981434
Camponello,stimuli/subj_files/pilot_cityB.csv,./stimuli/leipzig.jpg,./stimuli/street_plate2.png,KENYÉR,stimuli/objects/089a.jpg,object,0,stimuli/objects/089a.jpg,stimuli/objects/089b.jpg,stimuli/objects/045b.jpg,stimuli/objects/089a.jpg,stimuli/objects/045a.jpg,lure,dist2,target,dist1,0,0,0,0,,,,,0,50,50,17,,,,,,,,,,,,,610.9664527,None,,,,,,,601.9247162,None,601.9247162,None,601.9247162,None,601.9247162,None,right,1.727793974,601.9247162,None,601.9247162,None,603.6929989,None,603.6929989,None,603.6929989,None,603.6929989,None,space,603.6929989,None,7.239498396,,,,,,,pilot,2022_Jun_14_1511,Hippopolis_Learning,2021.1.2,59.52981434
Camponello,stimuli/subj_files/pilot_cityB.csv,./stimuli/leipzig.jpg,./stimuli/street_plate2.png,RIBIZLI,stimuli/scenes/029a.jpg,scene,0,stimuli/scenes/029a.jpg,stimuli/scenes/029b.jpg,stimuli/objects/094a.jpg,stimuli/objects/094b.jpg,stimuli/scenes/029a.jpg,lure,dist1,dist2,target,0,0,0,0,,,,,0,51,51,48,,,,,,,,,,,,,619.1013182,None,,,,,,,611.9975717,None,611.9975717,None,611.9975717,None,611.9975717,None,right,1.158948313,611.9975717,None,611.9975717,None,613.1961615,None,613.1961615,None,613.1961615,None,613.1961615,None,space,613.1961615,None,5.864032586,,,,,,,pilot,2022_Jun_14_1511,Hippopolis_Learning,2021.1.2,59.52981434
Camponello,stimuli/subj_files/pilot_cityB.csv,./stimuli/leipzig.jpg,./stimuli/street_plate2.png,KAKAS,stimuli/scenes/083a.jpg,scene,0,stimuli/scenes/083a.jpg,stimuli/scenes/083b.jpg,stimuli/scenes/052a.jpg,stimuli/scenes/052b.jpg,stimuli/scenes/083a.jpg,lure,dist1,dist2,target,0,0,0,0,,,,,0,52,52,22,,,,,,,,,,,,,621.2042368,None,,,,,,,620.1239672,None,620.1239672,None,620.1239672,None,620.1239672,None,left,1.032492102,620.1239672,None,620.1239672,None,None,None,None,None,None,None,None,None,None,None,None,,,,,,,,pilot,2022_Jun_14_1511,Hippopolis_Learning,2021.1.2,59.52981434
Camponello,stimuli/subj_files/pilot_cityB.csv,./stimuli/leipzig.jpg,./stimuli/street_plate2.png,LIMONÁDÉ,stimuli/scenes/049a.jpg,scene,0,stimuli/scenes/049a.jpg,stimuli/objects/067a.jpg,stimuli/objects/067b.jpg,stimuli/scenes/049a.jpg,stimuli/scenes/049b.jpg,dist1,dist2,target,lure,0,0,0,0,,,,,0,53,53,34,,,,,,,,,,,,,626.2281977,None,,,,,,,622.237674,None,622.237674,None,622.237674,None,622.237674,None,None,,622.237674,None,622.237674,None,None,None,None,None,None,None,None,None,None,None,None,,,,,,,,pilot,2022_Jun_14_1511,Hippopolis_Learning,2021.1.2,59.52981434
Camponello,stimuli/subj_files/pilot_cityB.csv,./stimuli/leipzig.jpg,./stimuli/street_plate2.png,LÁNDZSA,stimuli/scenes/047a.jpg,scene,0,stimuli/scenes/047a.jpg,stimuli/scenes/047b.jpg,stimuli/scenes/007a.jpg,stimuli/scenes/007b.jpg,stimuli/scenes/047a.jpg,lure,dist1,dist2,target,0,0,0,0,,,,,0,54,54,47,,,,,,,,,,,,,628.9458186,None,,,,,,,627.2454791,None,627.2454791,None,627.2454791,None,627.2454791,None,right,1.65460324,627.2454791,None,627.2454791,None,None,None,None,None,None,None,None,None,None,None,None,,,,,,,,pilot,2022_Jun_14_1511,Hippopolis_Learning,2021.1.2,59.52981434
Camponello,stimuli/subj_files/pilot_cityB.csv,./stimuli/leipzig.jpg,./stimuli/street_plate2.png,TISZTÁS,stimuli/objects/053a.jpg,object,1,stimuli/objects/025a.jpg,stimuli/scenes/025b.jpg,stimuli/objects/025b.jpg,stimuli/scenes/025a.jpg,stimuli/objects/025a.jpg,dist2,lure,dist1,target,0,0,0,0,,,,,0,55,55,11,,,,,,,,,,,,,635.0808695,None,,,,,,,629.963067,None,629.963067,None,629.963067,None,629.963067,None,right,1.465056544,629.963067,None,629.963067,None,631.4881933,None,631.4881933,None,631.4881933,None,631.4881933,None,space,631.4881933,None,3.55633169,,,,,,,pilot,2022_Jun_14_1511,Hippopolis_Learning,2021.1.2,59.52981434
Camponello,stimuli/subj_files/pilot_cityB.csv,./stimuli/leipzig.jpg,./stimuli/street_plate2.png,ZSÁLYA,stimuli/scenes/069a.jpg,scene,0,stimuli/scenes/069a.jpg,stimuli/scenes/069a.jpg,stimuli/scenes/069b.jpg,stimuli/scenes/047a.jpg,stimuli/scenes/047b.jpg,target,lure,dist1,dist2,0,0,0,0,,,,,0,56,56,41,,,,,,,,,,,,,639.5771573,None,,,,,,,636.1141015,None,636.1141015,None,636.1141015,None,636.1141015,None,left,3.409875579,636.1141015,None,636.1141015,None,None,None,None,None,None,None,None,None,None,None,None,,,,,,,,pilot,2022_Jun_14_1511,Hippopolis_Learning,2021.1.2,59.52981434
Camponello,stimuli/subj_files/pilot_cityB.csv,./stimuli/leipzig.jpg,./stimuli/street_plate2.png,ANANÁSZ,stimuli/scenes/088a.jpg,scene,1,stimuli/scenes/048a.jpg,stimuli/scenes/078a.jpg,stimuli/scenes/048a.jpg,stimuli/scenes/078b.jpg,stimuli/scenes/048b.jpg,dist1,target,dist2,lure,0,0,0,0,,,,,0,57,57,36,,,,,,,,,,,,,651.295446,None,,,,,,,640.5959452,None,640.5959452,None,640.5959452,None,640.5959452,None,right,2.240163018,640.5959452,None,640.5959452,None,642.8842981,None,642.8842981,None,642.8842981,None,642.8842981,None,space,642.8842981,None,8.38370313,,,,,,,pilot,2022_Jun_14_1511,Hippopolis_Learning,2021.1.2,59.52981434
Camponello,stimuli/subj_files/pilot_cityB.csv,./stimuli/leipzig.jpg,./stimuli/street_plate2.png,TIGRIS,stimuli/scenes/003a.jpg,scene,2,stimuli/objects/084a.jpg,stimuli/objects/084b.jpg,stimuli/scenes/076b.jpg,stimuli/objects/084a.jpg,stimuli/scenes/076a.jpg,lure,dist2,target,dist1,0,0,0,0,,,,,0,58,58,45,,,,,,,,,,,,,661.5564999,None,,,,,,,652.314154,None,652.314154,None,652.314154,None,652.314154,None,right,1.60983042,652.314154,None,652.314154,None,653.9734413,None,653.9734413,None,653.9734413,None,653.9734413,None,space,653.9734413,None,7.550417277,,,,,,,pilot,2022_Jun_14_1511,Hippopolis_Learning,2021.1.2,59.52981434
Camponello,stimuli/subj_files/pilot_cityB.csv,./stimuli/leipzig.jpg,./stimuli/street_plate2.png,TÁNYÉR,stimuli/scenes/039a.jpg,scene,0,stimuli/scenes/039a.jpg,stimuli/scenes/041a.jpg,stimuli/scenes/041b.jpg,stimuli/scenes/039b.jpg,stimuli/scenes/039a.jpg,dist1,dist2,lure,target,0,0,0,0,,,,,0,59,59,15,,,,,,,,,,,,,664.2750757,None,,,,,,,662.5819496,None,662.5819496,None,662.5819496,None,662.5819496,None,right,1.645756035,662.5819496,None,662.5819496,None,None,None,None,None,None,None,None,None,None,None,None,,,,,,,,pilot,2022_Jun_14_1511,Hippopolis_Learning,2021.1.2,59.52981434
Hippopolis,stimuli/subj_files/pilot_cityA.csv,./stimuli/frankfurt.jpg,./stimuli/street_plate1.png,TÖLCSÉR,stimuli/scenes/027a.jpg,scene,0,stimuli/scenes/027a.jpg,stimuli/objects/098b.jpg,stimuli/objects/098a.jpg,stimuli/scenes/027a.jpg,stimuli/scenes/027b.jpg,dist2,dist1,target,lure,0,1,1,1,0,0,0,5,,,,,686.5210744,None,686.5210744,None,689.5408551,None,689.5408551,None,689.5408551,None,689.5408551,None,692.462037,None,,,,,,,,,,,,,,,45,,,,,,,,,,,,,,,,,,665.2869714,None,space,21.13264275,665.2869714,None,pilot,2022_Jun_14_1511,Hippopolis_Learning,2021.1.2,59.52981434
Hippopolis,stimuli/subj_files/pilot_cityA.csv,./stimuli/frankfurt.jpg,./stimuli/street_plate1.png,ÁRNYÉK,stimuli/scenes/013a.jpg,scene,0,stimuli/scenes/013a.jpg,stimuli/scenes/067a.jpg,stimuli/scenes/013b.jpg,stimuli/scenes/067b.jpg,stimuli/scenes/013a.jpg,dist1,lure,dist2,target,0,1,1,1,0,1,1,17,,,,,,,,,693.5112553,None,693.5112553,None,693.5112553,None,693.5112553,None,696.4619928,None,,,,,,,,,,,,,,,,,,,,,,,,,,,,,,,,,,,,,,,pilot,2022_Jun_14_1511,Hippopolis_Learning,2021.1.2,59.52981434
Hippopolis,stimuli/subj_files/pilot_cityA.csv,./stimuli/frankfurt.jpg,./stimuli/street_plate1.png,VÁSÁR,stimuli/objects/013a.jpg,object,1,stimuli/objects/069a.jpg,stimuli/objects/069b.jpg,stimuli/scenes/043a.jpg,stimuli/scenes/043b.jpg,stimuli/objects/069a.jpg,lure,dist1,dist2,target,0,1,1,1,0,2,2,22,,,,,,,,,697.4998059,None,697.4998059,None,697.4998059,None,697.4998059,None,700.462641,None,,,,,,,,,,,,,,,,,,,,,,,,,,,,,,,,,,,,,,,pilot,2022_Jun_14_1511,Hippopolis_Learning,2021.1.2,59.52981434
Hippopolis,stimuli/subj_files/pilot_cityA.csv,./stimuli/frankfurt.jpg,./stimuli/street_plate1.png,HARMONIKA,stimuli/scenes/001a.jpg,scene,2,stimuli/objects/097a.jpg,stimuli/scenes/028b.jpg,stimuli/objects/097a.jpg,stimuli/objects/097b.jpg,stimuli/scenes/028a.jpg,dist2,target,lure,dist1,0,1,1,1,0,3,3,20,,,,,,,,,701.5046698,None,701.5046698,None,701.5046698,None,701.5046698,None,704.4699826,None,,,,,,,,,,,,,,,,,,,,,,,,,,,,,,,,,,,,,,,pilot,2022_Jun_14_1511,Hippopolis_Learning,2021.1.2,59.52981434
Hippopolis,stimuli/subj_files/pilot_cityA.csv,./stimuli/frankfurt.jpg,./stimuli/street_plate1.png,ÁLLOMÁS,stimuli/scenes/090a.jpg,scene,1,stimuli/scenes/086a.jpg,stimuli/scenes/086b.jpg,stimuli/scenes/056b.jpg,stimuli/scenes/056a.jpg,stimuli/scenes/086a.jpg,lure,dist2,dist1,target,0,1,1,1,0,4,4,34,,,,,,,,,705.5090801,None,705.5090801,None,705.5090801,None,705.5090801,None,708.4619707,None,,,,,,,,,,,,,,,,,,,,,,,,,,,,,,,,,,,,,,,pilot,2022_Jun_14_1511,Hippopolis_Learning,2021.1.2,59.52981434
Hippopolis,stimuli/subj_files/pilot_cityA.csv,./stimuli/frankfurt.jpg,./stimuli/street_plate1.png,KULACS,stimuli/scenes/035a.jpg,scene,2,stimuli/objects/009a.jpg,stimuli/objects/003a.jpg,stimuli/objects/009b.jpg,stimuli/objects/003b.jpg,stimuli/objects/009a.jpg,dist1,lure,dist2,target,0,1,1,1,0,5,5,24,,,,,,,,,709.4878076,None,709.4878076,None,709.4878076,None,709.4878076,None,712.4645468,None,,,,,,,,,,,,,,,,,,,,,,,,,,,,,,,,,,,,,,,pilot,2022_Jun_14_1511,Hippopolis_Learning,2021.1.2,59.52981434
Hippopolis,stimuli/subj_files/pilot_cityA.csv,./stimuli/frankfurt.jpg,./stimuli/street_plate1.png,KESELYŰ,stimuli/scenes/070a.jpg,scene,1,stimuli/scenes/072a.jpg,stimuli/objects/092b.jpg,stimuli/scenes/072a.jpg,stimuli/scenes/072b.jpg,stimuli/objects/092a.jpg,dist2,target,lure,dist1,0,1,1,1,0,6,6,46,,,,,,,,,713.4996517,None,713.4996517,None,713.4996517,None,713.4996517,None,716.4523488,None,,,,,,,,,,,,,,,,,,,,,,,,,,,,,,,,,,,,,,,pilot,2022_Jun_14_1511,Hippopolis_Learning,2021.1.2,59.52981434
Hippopolis,stimuli/subj_files/pilot_cityA.csv,./stimuli/frankfurt.jpg,./stimuli/street_plate1.png,SIRÁLY,stimuli/objects/042a.jpg,object,2,stimuli/scenes/028a.jpg,stimuli/objects/073a.jpg,stimuli/scenes/028a.jpg,stimuli/scenes/028b.jpg,stimuli/objects/073b.jpg,dist1,target,lure,dist2,0,1,1,1,0,7,7,30,,,,,,,,,717.5122372,None,717.5122372,None,717.5122372,None,717.5122372,None,720.4560734,None,,,,,,,,,,,,,,,,,,,,,,,,,,,,,,,,,,,,,,,pilot,2022_Jun_14_1511,Hippopolis_Learning,2021.1.2,59.52981434
Hippopolis,stimuli/subj_files/pilot_cityA.csv,./stimuli/frankfurt.jpg,./stimuli/street_plate1.png,MUNKA,stimuli/scenes/077a.jpg,scene,0,stimuli/scenes/077a.jpg,stimuli/scenes/077b.jpg,stimuli/objects/096b.jpg,stimuli/objects/096a.jpg,stimuli/scenes/077a.jpg,lure,dist2,dist1,target,0,1,1,1,0,8,8,23,,,,,,,,,721.4973869,None,721.4973869,None,721.4973869,None,721.4973869,None,724.4673484,None,,,,,,,,,,,,,,,,,,,,,,,,,,,,,,,,,,,,,,,pilot,2022_Jun_14_1511,Hippopolis_Learning,2021.1.2,59.52981434
Hippopolis,stimuli/subj_files/pilot_cityA.csv,./stimuli/frankfurt.jpg,./stimuli/street_plate1.png,SALÁTA,stimuli/scenes/068a.jpg,scene,1,stimuli/scenes/065a.jpg,stimuli/scenes/089b.jpg,stimuli/scenes/089a.jpg,stimuli/scenes/065a.jpg,stimuli/scenes/065b.jpg,dist2,dist1,target,lure,0,1,1,1,0,9,9,1,,,,,,,,,725.501421,None,725.501421,None,725.501421,None,725.501421,None,728.4481767,None,,,,,,,,,,,,,,,,,,,,,,,,,,,,,,,,,,,,,,,pilot,2022_Jun_14_1511,Hippopolis_Learning,2021.1.2,59.52981434
Hippopolis,stimuli/subj_files/pilot_cityA.csv,./stimuli/frankfurt.jpg,./stimuli/street_plate1.png,LEPKE,stimuli/scenes/071a.jpg,scene,2,stimuli/objects/017a.jpg,stimuli/objects/017a.jpg,stimuli/scenes/027b.jpg,stimuli/objects/017b.jpg,stimuli/scenes/027a.jpg,target,dist2,lure,dist1,0,1,1,1,0,10,10,10,,,,,,,,,729.5066002,None,729.5066002,None,729.5066002,None,729.5066002,None,732.4616121,None,,,,,,,,,,,,,,,,,,,,,,,,,,,,,,,,,,,,,,,pilot,2022_Jun_14_1511,Hippopolis_Learning,2021.1.2,59.52981434
Hippopolis,stimuli/subj_files/pilot_cityA.csv,./stimuli/frankfurt.jpg,./stimuli/street_plate1.png,ÁLOM,stimuli/scenes/062a.jpg,scene,2,stimuli/objects/096a.jpg,stimuli/objects/096b.jpg,stimuli/scenes/024a.jpg,stimuli/scenes/024b.jpg,stimuli/objects/096a.jpg,lure,dist1,dist2,target,0,1,1,1,0,11,11,51,,,,,,,,,733.4957622,None,733.4957622,None,733.4957622,None,733.4957622,None,736.4489274,None,,,,,,,,,,,,,,,,,,,,,,,,,,,,,,,,,,,,,,,pilot,2022_Jun_14_1511,Hippopolis_Learning,2021.1.2,59.52981434
Hippopolis,stimuli/subj_files/pilot_cityA.csv,./stimuli/frankfurt.jpg,./stimuli/street_plate1.png,EGÉR,stimuli/scenes/055a.jpg,scene,2,stimuli/objects/051a.jpg,stimuli/scenes/086b.jpg,stimuli/scenes/086a.jpg,stimuli/objects/051b.jpg,stimuli/objects/051a.jpg,dist2,dist1,lure,target,0,1,1,1,0,12,12,43,,,,,,,,,737.4991289,None,737.4991289,None,737.4991289,None,737.4991289,None,740.454807,None,,,,,,,,,,,,,,,,,,,,,,,,,,,,,,,,,,,,,,,pilot,2022_Jun_14_1511,Hippopolis_Learning,2021.1.2,59.52981434
Hippopolis,stimuli/subj_files/pilot_cityA.csv,./stimuli/frankfurt.jpg,./stimuli/street_plate1.png,SZITAKÖTŐ,stimuli/objects/005a.jpg,object,1,stimuli/objects/010a.jpg,stimuli/objects/010b.jpg,stimuli/objects/010a.jpg,stimuli/objects/034b.jpg,stimuli/objects/034a.jpg,lure,target,dist2,dist1,0,1,1,1,0,13,13,3,,,,,,,,,741.4979107,None,741.4979107,None,741.4979107,None,741.4979107,None,744.4479496,None,,,,,,,,,,,,,,,,,,,,,,,,,,,,,,,,,,,,,,,pilot,2022_Jun_14_1511,Hippopolis_Learning,2021.1.2,59.52981434
Hippopolis,stimuli/subj_files/pilot_cityA.csv,./stimuli/frankfurt.jpg,./stimuli/street_plate1.png,MAJOM,stimuli/scenes/073a.jpg,scene,2,stimuli/objects/065a.jpg,stimuli/objects/065b.jpg,stimuli/scenes/074b.jpg,stimuli/scenes/074a.jpg,stimuli/objects/065a.jpg,lure,dist2,dist1,target,0,1,1,1,0,14,14,57,,,,,,,,,745.4985454,None,745.4985454,None,745.4985454,None,745.4985454,None,748.4528965,None,,,,,,,,,,,,,,,,,,,,,,,,,,,,,,,,,,,,,,,pilot,2022_Jun_14_1511,Hippopolis_Learning,2021.1.2,59.52981434
Hippopolis,stimuli/subj_files/pilot_cityA.csv,./stimuli/frankfurt.jpg,./stimuli/street_plate1.png,OROSZLÁN,stimuli/objects/040a.jpg,object,0,stimuli/objects/040a.jpg,stimuli/objects/040a.jpg,stimuli/objects/040b.jpg,stimuli/objects/097a.jpg,stimuli/objects/097b.jpg,target,lure,dist1,dist2,0,1,1,1,0,15,15,45,,,,,,,,,749.4859804,None,749.4859804,None,749.4859804,None,749.4859804,None,752.4614119,None,,,,,,,,,,,,,,,,,,,,,,,,,,,,,,,,,,,,,,,pilot,2022_Jun_14_1511,Hippopolis_Learning,2021.1.2,59.52981434
Hippopolis,stimuli/subj_files/pilot_cityA.csv,./stimuli/frankfurt.jpg,./stimuli/street_plate1.png,EPER,stimuli/objects/085a.jpg,object,1,stimuli/objects/062a.jpg,stimuli/objects/007a.jpg,stimuli/objects/007b.jpg,stimuli/objects/062b.jpg,stimuli/objects/062a.jpg,dist1,dist2,lure,target,0,1,1,1,0,16,16,40,,,,,,,,,753.5058933,None,753.5058933,None,753.5058933,None,753.5058933,None,756.4613154,None,,,,,,,,,,,,,,,,,,,,,,,,,,,,,,,,,,,,,,,pilot,2022_Jun_14_1511,Hippopolis_Learning,2021.1.2,59.52981434
Hippopolis,stimuli/subj_files/pilot_cityA.csv,./stimuli/frankfurt.jpg,./stimuli/street_plate1.png,NARANCS,stimuli/scenes/016a.jpg,scene,0,stimuli/scenes/016a.jpg,stimuli/scenes/016b.jpg,stimuli/scenes/013a.jpg,stimuli/scenes/016a.jpg,stimuli/scenes/013b.jpg,lure,dist1,target,dist2,0,1,1,1,0,17,17,32,,,,,,,,,757.4747904,None,757.4747904,None,757.4747904,None,757.4747904,None,760.4610638,None,,,,,,,,,,,,,,,,,,,,,,,,,,,,,,,,,,,,,,,pilot,2022_Jun_14_1511,Hippopolis_Learning,2021.1.2,59.52981434
Hippopolis,stimuli/subj_files/pilot_cityA.csv,./stimuli/frankfurt.jpg,./stimuli/street_plate1.png,FEJSZE,stimuli/objects/008a.jpg,object,1,stimuli/objects/098a.jpg,stimuli/objects/058a.jpg,stimuli/objects/098b.jpg,stimuli/objects/058b.jpg,stimuli/objects/098a.jpg,dist1,lure,dist2,target,0,1,1,1,0,18,18,44,,,,,,,,,761.4942156,None,761.4942156,None,761.4942156,None,761.4942156,None,764.4484631,None,,,,,,,,,,,,,,,,,,,,,,,,,,,,,,,,,,,,,,,pilot,2022_Jun_14_1511,Hippopolis_Learning,2021.1.2,59.52981434
Hippopolis,stimuli/subj_files/pilot_cityA.csv,./stimuli/frankfurt.jpg,./stimuli/street_plate1.png,SZILVA,stimuli/scenes/021a.jpg,scene,1,stimuli/scenes/061a.jpg,stimuli/objects/051b.jpg,stimuli/scenes/061b.jpg,stimuli/scenes/061a.jpg,stimuli/objects/051a.jpg,dist2,lure,target,dist1,0,1,1,1,0,19,19,8,,,,,,,,,765.4658841,None,765.4658841,None,765.4658841,None,765.4658841,None,768.4576163,None,,,,,,,,,,,,,,,,,,,,,,,,,,,,,,,,,,,,,,,pilot,2022_Jun_14_1511,Hippopolis_Learning,2021.1.2,59.52981434
Hippopolis,stimuli/subj_files/pilot_cityA.csv,./stimuli/frankfurt.jpg,./stimuli/street_plate1.png,KESZTYŰ,stimuli/objects/038a.jpg,object,1,stimuli/objects/011a.jpg,stimuli/objects/031a.jpg,stimuli/objects/011a.jpg,stimuli/objects/031b.jpg,stimuli/objects/011b.jpg,dist1,target,dist2,lure,0,1,1,1,0,20,20,16,,,,,,,,,769.4916109,None,769.4916109,None,769.4916109,None,769.4916109,None,772.4611879,None,,,,,,,,,,,,,,,,,,,,,,,,,,,,,,,,,,,,,,,pilot,2022_Jun_14_1511,Hippopolis_Learning,2021.1.2,59.52981434
Hippopolis,stimuli/subj_files/pilot_cityA.csv,./stimuli/frankfurt.jpg,./stimuli/street_plate1.png,SZŐNYEG,stimuli/objects/076a.jpg,object,2,stimuli/scenes/044a.jpg,stimuli/scenes/044b.jpg,stimuli/objects/065a.jpg,stimuli/scenes/044a.jpg,stimuli/objects/065b.jpg,lure,dist1,target,dist2,0,1,1,1,0,21,21,47,,,,,,,,,773.4884172,None,773.4884172,None,773.4884172,None,773.4884172,None,776.4611005,None,,,,,,,,,,,,,,,,,,,,,,,,,,,,,,,,,,,,,,,pilot,2022_Jun_14_1511,Hippopolis_Learning,2021.1.2,59.52981434
Hippopolis,stimuli/subj_files/pilot_cityA.csv,./stimuli/frankfurt.jpg,./stimuli/street_plate1.png,SZÖCSKE,stimuli/objects/035a.jpg,object,2,stimuli/scenes/059a.jpg,stimuli/objects/011a.jpg,stimuli/scenes/059b.jpg,stimuli/scenes/059a.jpg,stimuli/objects/011b.jpg,dist1,lure,target,dist2,0,1,1,1,0,22,22,53,,,,,,,,,777.4901426,None,777.4901426,None,777.4901426,None,777.4901426,None,780.4467728,None,,,,,,,,,,,,,,,,,,,,,,,,,,,,,,,,,,,,,,,pilot,2022_Jun_14_1511,Hippopolis_Learning,2021.1.2,59.52981434
Hippopolis,stimuli/subj_files/pilot_cityA.csv,./stimuli/frankfurt.jpg,./stimuli/street_plate1.png,SZÁMOLÓGÉP,stimuli/scenes/038a.jpg,scene,0,stimuli/scenes/038a.jpg,stimuli/scenes/022a.jpg,stimuli/scenes/038b.jpg,stimuli/scenes/022b.jpg,stimuli/scenes/038a.jpg,dist1,lure,dist2,target,0,1,1,1,0,23,23,28,,,,,,,,,781.4788553,None,781.4788553,None,781.4788553,None,781.4788553,None,784.4463591,None,,,,,,,,,,,,,,,,,,,,,,,,,,,,,,,,,,,,,,,pilot,2022_Jun_14_1511,Hippopolis_Learning,2021.1.2,59.52981434
Hippopolis,stimuli/subj_files/pilot_cityA.csv,./stimuli/frankfurt.jpg,./stimuli/street_plate1.png,REPÜLŐ,stimuli/scenes/015a.jpg,scene,0,stimuli/scenes/015a.jpg,stimuli/scenes/015a.jpg,stimuli/objects/095b.jpg,stimuli/scenes/015b.jpg,stimuli/objects/095a.jpg,target,dist2,lure,dist1,0,1,1,1,0,24,24,35,,,,,,,,,785.4805067,None,785.4805067,None,785.4805067,None,785.4805067,None,788.4561154,None,,,,,,,,,,,,,,,,,,,,,,,,,,,,,,,,,,,,,,,pilot,2022_Jun_14_1511,Hippopolis_Learning,2021.1.2,59.52981434
Hippopolis,stimuli/subj_files/pilot_cityA.csv,./stimuli/frankfurt.jpg,./stimuli/street_plate1.png,PETREZSELYEM,stimuli/objects/027a.jpg,object,2,stimuli/scenes/060a.jpg,stimuli/scenes/015b.jpg,stimuli/scenes/060b.jpg,stimuli/scenes/060a.jpg,stimuli/scenes/015a.jpg,dist2,lure,target,dist1,0,1,1,1,0,25,25,15,,,,,,,,,789.4887947,None,789.4887947,None,789.4887947,None,789.4887947,None,792.4677368,None,,,,,,,,,,,,,,,,,,,,,,,,,,,,,,,,,,,,,,,pilot,2022_Jun_14_1511,Hippopolis_Learning,2021.1.2,59.52981434
Hippopolis,stimuli/subj_files/pilot_cityA.csv,./stimuli/frankfurt.jpg,./stimuli/street_plate1.png,RÁDIÓ,stimuli/objects/092a.jpg,object,0,stimuli/objects/092a.jpg,stimuli/objects/062b.jpg,stimuli/objects/092b.jpg,stimuli/objects/062a.jpg,stimuli/objects/092a.jpg,dist2,lure,dist1,target,0,1,1,1,0,26,26,6,,,,,,,,,793.4848698,None,793.4848698,None,793.4848698,None,793.4848698,None,796.4608377,None,,,,,,,,,,,,,,,,,,,,,,,,,,,,,,,,,,,,,,,pilot,2022_Jun_14_1511,Hippopolis_Learning,2021.1.2,59.52981434
Hippopolis,stimuli/subj_files/pilot_cityA.csv,./stimuli/frankfurt.jpg,./stimuli/street_plate1.png,ZONGORA,stimuli/scenes/017a.jpg,scene,1,stimuli/scenes/053a.jpg,stimuli/scenes/053b.jpg,stimuli/objects/078b.jpg,stimuli/scenes/053a.jpg,stimuli/objects/078a.jpg,lure,dist2,target,dist1,0,1,1,1,0,27,27,25,,,,,,,,,797.4877339,None,797.4877339,None,797.4877339,None,797.4877339,None,800.4609727,None,,,,,,,,,,,,,,,,,,,,,,,,,,,,,,,,,,,,,,,pilot,2022_Jun_14_1511,Hippopolis_Learning,2021.1.2,59.52981434
Hippopolis,stimuli/subj_files/pilot_cityA.csv,./stimuli/frankfurt.jpg,./stimuli/street_plate1.png,MEDVE,stimuli/scenes/034a.jpg,scene,1,stimuli/scenes/022a.jpg,stimuli/scenes/022b.jpg,stimuli/scenes/012a.jpg,stimuli/scenes/012b.jpg,stimuli/scenes/022a.jpg,lure,dist1,dist2,target,0,1,1,1,0,28,28,0,,,,,,,,,801.4888063,None,801.4888063,None,801.4888063,None,801.4888063,None,804.4605855,None,,,,,,,,,,,,,,,,,,,,,,,,,,,,,,,,,,,,,,,pilot,2022_Jun_14_1511,Hippopolis_Learning,2021.1.2,59.52981434
Hippopolis,stimuli/subj_files/pilot_cityA.csv,./stimuli/frankfurt.jpg,./stimuli/street_plate1.png,PULÓVER,stimuli/scenes/020a.jpg,scene,0,stimuli/scenes/020a.jpg,stimuli/objects/088b.jpg,stimuli/objects/088a.jpg,stimuli/scenes/020b.jpg,stimuli/scenes/020a.jpg,dist2,dist1,lure,target,0,1,1,1,0,29,29,39,,,,,,,,,805.4800502,None,805.4800502,None,805.4800502,None,805.4800502,None,808.4628761,None,,,,,,,,,,,,,,,,,,,,,,,,,,,,,,,,,,,,,,,pilot,2022_Jun_14_1511,Hippopolis_Learning,2021.1.2,59.52981434
Hippopolis,stimuli/subj_files/pilot_cityA.csv,./stimuli/frankfurt.jpg,./stimuli/street_plate1.png,SZALVÉTA,stimuli/objects/074a.jpg,object,1,stimuli/objects/088a.jpg,stimuli/objects/088a.jpg,stimuli/objects/088b.jpg,stimuli/objects/010b.jpg,stimuli/objects/010a.jpg,target,lure,dist2,dist1,0,1,1,1,0,30,30,50,,,,,,,,,809.4962776,None,809.4962776,None,809.4962776,None,809.4962776,None,812.446797,None,,,,,,,,,,,,,,,,,,,,,,,,,,,,,,,,,,,,,,,pilot,2022_Jun_14_1511,Hippopolis_Learning,2021.1.2,59.52981434
Hippopolis,stimuli/subj_files/pilot_cityA.csv,./stimuli/frankfurt.jpg,./stimuli/street_plate1.png,SZOMSZÉD,stimuli/objects/066a.jpg,object,0,stimuli/objects/066a.jpg,stimuli/objects/066b.jpg,stimuli/scenes/011b.jpg,stimuli/scenes/011a.jpg,stimuli/objects/066a.jpg,lure,dist2,dist1,target,0,1,1,1,0,31,31,13,,,,,,,,,813.4803652,None,813.4803652,None,813.4803652,None,813.4803652,None,816.4685687,None,,,,,,,,,,,,,,,,,,,,,,,,,,,,,,,,,,,,,,,pilot,2022_Jun_14_1511,Hippopolis_Learning,2021.1.2,59.52981434
Hippopolis,stimuli/subj_files/pilot_cityA.csv,./stimuli/frankfurt.jpg,./stimuli/street_plate1.png,MOSODA,stimuli/objects/059a.jpg,object,1,stimuli/objects/064a.jpg,stimuli/objects/064b.jpg,stimuli/objects/064a.jpg,stimuli/scenes/016b.jpg,stimuli/scenes/016a.jpg,lure,target,dist2,dist1,0,1,1,1,0,32,32,11,,,,,,,,,817.5003981,None,817.5003981,None,817.5003981,None,817.5003981,None,820.4711125,None,,,,,,,,,,,,,,,,,,,,,,,,,,,,,,,,,,,,,,,pilot,2022_Jun_14_1511,Hippopolis_Learning,2021.1.2,59.52981434
Hippopolis,stimuli/subj_files/pilot_cityA.csv,./stimuli/frankfurt.jpg,./stimuli/street_plate1.png,FIÓK,stimuli/objects/023a.jpg,object,2,stimuli/scenes/067a.jpg,stimuli/scenes/067b.jpg,stimuli/scenes/067a.jpg,stimuli/objects/064a.jpg,stimuli/objects/064b.jpg,lure,target,dist1,dist2,0,1,1,1,0,33,33,54,,,,,,,,,821.5055297,None,821.5055297,None,821.5055297,None,821.5055297,None,824.4604353,None,,,,,,,,,,,,,,,,,,,,,,,,,,,,,,,,,,,,,,,pilot,2022_Jun_14_1511,Hippopolis_Learning,2021.1.2,59.52981434
Hippopolis,stimuli/subj_files/pilot_cityA.csv,./stimuli/frankfurt.jpg,./stimuli/street_plate1.png,DOMINÓ,stimuli/scenes/081a.jpg,scene,2,stimuli/objects/030a.jpg,stimuli/objects/030a.jpg,stimuli/scenes/066a.jpg,stimuli/objects/030b.jpg,stimuli/scenes/066b.jpg,target,dist1,lure,dist2,0,1,1,1,0,34,34,38,,,,,,,,,825.4960788,None,825.4960788,None,825.4960788,None,825.4960788,None,828.4467575,None,,,,,,,,,,,,,,,,,,,,,,,,,,,,,,,,,,,,,,,pilot,2022_Jun_14_1511,Hippopolis_Learning,2021.1.2,59.52981434
Hippopolis,stimuli/subj_files/pilot_cityA.csv,./stimuli/frankfurt.jpg,./stimuli/street_plate1.png,KÓKUSZ,stimuli/objects/073a.jpg,object,0,stimuli/objects/073a.jpg,stimuli/scenes/044a.jpg,stimuli/objects/073a.jpg,stimuli/objects/073b.jpg,stimuli/scenes/044b.jpg,dist1,target,lure,dist2,0,1,1,1,0,35,35,27,,,,,,,,,829.4853317,None,829.4853317,None,829.4853317,None,829.4853317,None,832.4469022,None,,,,,,,,,,,,,,,,,,,,,,,,,,,,,,,,,,,,,,,pilot,2022_Jun_14_1511,Hippopolis_Learning,2021.1.2,59.52981434
Hippopolis,stimuli/subj_files/pilot_cityA.csv,./stimuli/frankfurt.jpg,./stimuli/street_plate1.png,KÁRÁSZ,stimuli/objects/020a.jpg,object,2,stimuli/scenes/084a.jpg,stimuli/objects/054a.jpg,stimuli/scenes/084b.jpg,stimuli/scenes/084a.jpg,stimuli/objects/054b.jpg,dist1,lure,target,dist2,0,1,1,1,0,36,36,58,,,,,,,,,833.4971991,None,833.4971991,None,833.4971991,None,833.4971991,None,836.4561726,None,,,,,,,,,,,,,,,,,,,,,,,,,,,,,,,,,,,,,,,pilot,2022_Jun_14_1511,Hippopolis_Learning,2021.1.2,59.52981434
Hippopolis,stimuli/subj_files/pilot_cityA.csv,./stimuli/frankfurt.jpg,./stimuli/street_plate1.png,PULYKA,stimuli/objects/086a.jpg,object,2,stimuli/scenes/074a.jpg,stimuli/scenes/074b.jpg,stimuli/scenes/059b.jpg,stimuli/scenes/059a.jpg,stimuli/scenes/074a.jpg,lure,dist2,dist1,target,0,1,1,1,0,37,37,18,,,,,,,,,837.501853,None,837.501853,None,837.501853,None,837.501853,None,840.4603569,None,,,,,,,,,,,,,,,,,,,,,,,,,,,,,,,,,,,,,,,pilot,2022_Jun_14_1511,Hippopolis_Learning,2021.1.2,59.52981434
Hippopolis,stimuli/subj_files/pilot_cityA.csv,./stimuli/frankfurt.jpg,./stimuli/street_plate1.png,KOCKA,stimuli/objects/001a.jpg,object,0,stimuli/objects/001a.jpg,stimuli/objects/037b.jpg,stimuli/objects/037a.jpg,stimuli/objects/001a.jpg,stimuli/objects/001b.jpg,dist2,dist1,target,lure,0,1,1,1,0,38,38,55,,,,,,,,,841.5052187,None,841.5052187,None,841.5052187,None,841.5052187,None,844.4602108,None,,,,,,,,,,,,,,,,,,,,,,,,,,,,,,,,,,,,,,,pilot,2022_Jun_14_1511,Hippopolis_Learning,2021.1.2,59.52981434
Hippopolis,stimuli/subj_files/pilot_cityA.csv,./stimuli/frankfurt.jpg,./stimuli/street_plate1.png,FOLYÓ,stimuli/objects/060a.jpg,object,2,stimuli/scenes/043a.jpg,stimuli/objects/066b.jpg,stimuli/scenes/043a.jpg,stimuli/objects/066a.jpg,stimuli/scenes/043b.jpg,dist2,target,dist1,lure,0,1,1,1,0,39,39,29,,,,,,,,,845.4944778,None,845.4944778,None,845.4944778,None,845.4944778,None,848.4620025,None,,,,,,,,,,,,,,,,,,,,,,,,,,,,,,,,,,,,,,,pilot,2022_Jun_14_1511,Hippopolis_Learning,2021.1.2,59.52981434
Hippopolis,stimuli/subj_files/pilot_cityA.csv,./stimuli/frankfurt.jpg,./stimuli/street_plate1.png,FÉNYKÉP,stimuli/objects/079a.jpg,object,1,stimuli/objects/095a.jpg,stimuli/scenes/061a.jpg,stimuli/objects/095b.jpg,stimuli/objects/095a.jpg,stimuli/scenes/061b.jpg,dist1,lure,target,dist2,0,1,1,1,0,40,40,37,,,,,,,,,849.497715,None,849.497715,None,849.497715,None,849.497715,None,852.4454902,None,,,,,,,,,,,,,,,,,,,,,,,,,,,,,,,,,,,,,,,pilot,2022_Jun_14_1511,Hippopolis_Learning,2021.1.2,59.52981434
Hippopolis,stimuli/subj_files/pilot_cityA.csv,./stimuli/frankfurt.jpg,./stimuli/street_plate1.png,GYŰRŰ,stimuli/scenes/057a.jpg,scene,1,stimuli/scenes/050a.jpg,stimuli/scenes/050b.jpg,stimuli/scenes/050a.jpg,stimuli/scenes/053a.jpg,stimuli/scenes/053b.jpg,lure,target,dist1,dist2,0,1,1,1,0,41,41,9,,,,,,,,,853.5024047,None,853.5024047,None,853.5024047,None,853.5024047,None,856.4628098,None,,,,,,,,,,,,,,,,,,,,,,,,,,,,,,,,,,,,,,,pilot,2022_Jun_14_1511,Hippopolis_Learning,2021.1.2,59.52981434
Hippopolis,stimuli/subj_files/pilot_cityA.csv,./stimuli/frankfurt.jpg,./stimuli/street_plate1.png,KULLANCS,stimuli/objects/019a.jpg,object,1,stimuli/objects/003a.jpg,stimuli/objects/003a.jpg,stimuli/objects/003b.jpg,stimuli/scenes/072a.jpg,stimuli/scenes/072b.jpg,target,lure,dist1,dist2,0,1,1,1,0,42,42,14,,,,,,,,,857.5183858,None,857.5183858,None,857.5183858,None,857.5183858,None,860.4473973,None,,,,,,,,,,,,,,,,,,,,,,,,,,,,,,,,,,,,,,,pilot,2022_Jun_14_1511,Hippopolis_Learning,2021.1.2,59.52981434
Hippopolis,stimuli/subj_files/pilot_cityA.csv,./stimuli/frankfurt.jpg,./stimuli/street_plate1.png,FOGÓ,stimuli/scenes/030a.jpg,scene,1,stimuli/scenes/089a.jpg,stimuli/scenes/089a.jpg,stimuli/scenes/050b.jpg,stimuli/scenes/050a.jpg,stimuli/scenes/089b.jpg,target,dist2,dist1,lure,0,1,1,1,0,43,43,36,,,,,,,,,861.484106,None,861.484106,None,861.484106,None,861.484106,None,864.4600515,None,,,,,,,,,,,,,,,,,,,,,,,,,,,,,,,,,,,,,,,pilot,2022_Jun_14_1511,Hippopolis_Learning,2021.1.2,59.52981434
Hippopolis,stimuli/subj_files/pilot_cityA.csv,./stimuli/frankfurt.jpg,./stimuli/street_plate1.png,MÁRVÁNY,stimuli/objects/054a.jpg,object,0,stimuli/objects/054a.jpg,stimuli/scenes/020a.jpg,stimuli/objects/054b.jpg,stimuli/scenes/020b.jpg,stimuli/objects/054a.jpg,dist1,lure,dist2,target,0,1,1,1,0,44,44,33,,,,,,,,,865.4876151,None,865.4876151,None,865.4876151,None,865.4876151,None,868.4598702,None,,,,,,,,,,,,,,,,,,,,,,,,,,,,,,,,,,,,,,,pilot,2022_Jun_14_1511,Hippopolis_Learning,2021.1.2,59.52981434
Hippopolis,stimuli/subj_files/pilot_cityA.csv,./stimuli/frankfurt.jpg,./stimuli/street_plate1.png,TOLLTARTÓ,stimuli/objects/057a.jpg,object,0,stimuli/objects/057a.jpg,stimuli/scenes/077a.jpg,stimuli/objects/057a.jpg,stimuli/objects/057b.jpg,stimuli/scenes/077b.jpg,dist1,target,lure,dist2,0,1,1,1,0,45,45,2,,,,,,,,,869.4893692,None,869.4893692,None,869.4893692,None,869.4893692,None,872.4598839,None,,,,,,,,,,,,,,,,,,,,,,,,,,,,,,,,,,,,,,,pilot,2022_Jun_14_1511,Hippopolis_Learning,2021.1.2,59.52981434
Hippopolis,stimuli/subj_files/pilot_cityA.csv,./stimuli/frankfurt.jpg,./stimuli/street_plate1.png,SÜTŐ,stimuli/scenes/080a.jpg,scene,1,stimuli/scenes/063a.jpg,stimuli/objects/057b.jpg,stimuli/objects/057a.jpg,stimuli/scenes/063a.jpg,stimuli/scenes/063b.jpg,dist2,dist1,target,lure,0,1,1,1,0,46,46,19,,,,,,,,,873.4767781,None,873.4767781,None,873.4767781,None,873.4767781,None,876.4598148,None,,,,,,,,,,,,,,,,,,,,,,,,,,,,,,,,,,,,,,,pilot,2022_Jun_14_1511,Hippopolis_Learning,2021.1.2,59.52981434
Hippopolis,stimuli/subj_files/pilot_cityA.csv,./stimuli/frankfurt.jpg,./stimuli/street_plate1.png,ELEFÁNT,stimuli/scenes/058a.jpg,scene,2,stimuli/objects/018a.jpg,stimuli/objects/018a.jpg,stimuli/scenes/018b.jpg,stimuli/objects/018b.jpg,stimuli/scenes/018a.jpg,target,dist2,lure,dist1,0,1,1,1,0,47,47,41,,,,,,,,,877.4798751,None,877.4798751,None,877.4798751,None,877.4798751,None,880.4597172,None,,,,,,,,,,,,,,,,,,,,,,,,,,,,,,,,,,,,,,,pilot,2022_Jun_14_1511,Hippopolis_Learning,2021.1.2,59.52981434
Hippopolis,stimuli/subj_files/pilot_cityA.csv,./stimuli/frankfurt.jpg,./stimuli/street_plate1.png,BETON,stimuli/objects/056a.jpg,object,2,stimuli/scenes/056a.jpg,stimuli/scenes/056b.jpg,stimuli/scenes/084b.jpg,stimuli/scenes/084a.jpg,stimuli/scenes/056a.jpg,lure,dist2,dist1,target,0,1,1,1,0,48,48,59,,,,,,,,,881.5066142,None,881.5066142,None,881.5066142,None,881.5066142,None,884.4673381,None,,,,,,,,,,,,,,,,,,,,,,,,,,,,,,,,,,,,,,,pilot,2022_Jun_14_1511,Hippopolis_Learning,2021.1.2,59.52981434
Hippopolis,stimuli/subj_files/pilot_cityA.csv,./stimuli/frankfurt.jpg,./stimuli/street_plate1.png,SZAXOFON,stimuli/objects/058a.jpg,object,0,stimuli/objects/058a.jpg,stimuli/objects/058b.jpg,stimuli/objects/058a.jpg,stimuli/scenes/038b.jpg,stimuli/scenes/038a.jpg,lure,target,dist2,dist1,0,1,1,1,0,49,49,52,,,,,,,,,885.4953676,None,885.4953676,None,885.4953676,None,885.4953676,None,888.4591225,None,,,,,,,,,,,,,,,,,,,,,,,,,,,,,,,,,,,,,,,pilot,2022_Jun_14_1511,Hippopolis_Learning,2021.1.2,59.52981434
Hippopolis,stimuli/subj_files/pilot_cityA.csv,./stimuli/frankfurt.jpg,./stimuli/street_plate1.png,KOCSI,stimuli/scenes/087a.jpg,scene,1,stimuli/scenes/066a.jpg,stimuli/scenes/066b.jpg,stimuli/scenes/066a.jpg,stimuli/objects/001a.jpg,stimuli/objects/001b.jpg,lure,target,dist1,dist2,0,1,1,1,0,50,50,56,,,,,,,,,889.4820823,None,889.4820823,None,889.4820823,None,889.4820823,None,892.4597645,None,,,,,,,,,,,,,,,,,,,,,,,,,,,,,,,,,,,,,,,pilot,2022_Jun_14_1511,Hippopolis_Learning,2021.1.2,59.52981434
Hippopolis,stimuli/subj_files/pilot_cityA.csv,./stimuli/frankfurt.jpg,./stimuli/street_plate1.png,BAGOLY,stimuli/scenes/018a.jpg,scene,0,stimuli/scenes/018a.jpg,stimuli/objects/040b.jpg,stimuli/scenes/018b.jpg,stimuli/scenes/018a.jpg,stimuli/objects/040a.jpg,dist2,lure,target,dist1,0,1,1,1,0,51,51,21,,,,,,,,,893.487305,None,893.487305,None,893.487305,None,893.487305,None,896.461257,None,,,,,,,,,,,,,,,,,,,,,,,,,,,,,,,,,,,,,,,pilot,2022_Jun_14_1511,Hippopolis_Learning,2021.1.2,59.52981434
Hippopolis,stimuli/subj_files/pilot_cityA.csv,./stimuli/frankfurt.jpg,./stimuli/street_plate1.png,MANDARIN,stimuli/objects/070a.jpg,object,2,stimuli/scenes/011a.jpg,stimuli/scenes/011b.jpg,stimuli/objects/030a.jpg,stimuli/objects/030b.jpg,stimuli/scenes/011a.jpg,lure,dist1,dist2,target,0,1,1,1,0,52,52,42,,,,,,,,,897.4784205,None,897.4784205,None,897.4784205,None,897.4784205,None,900.4596419,None,,,,,,,,,,,,,,,,,,,,,,,,,,,,,,,,,,,,,,,pilot,2022_Jun_14_1511,Hippopolis_Learning,2021.1.2,59.52981434
Hippopolis,stimuli/subj_files/pilot_cityA.csv,./stimuli/frankfurt.jpg,./stimuli/street_plate1.png,HÁRFA,stimuli/scenes/014a.jpg,scene,2,stimuli/objects/034a.jpg,stimuli/objects/017b.jpg,stimuli/objects/017a.jpg,stimuli/objects/034b.jpg,stimuli/objects/034a.jpg,dist2,dist1,lure,target,0,1,1,1,0,53,53,7,,,,,,,,,901.4940041,None,901.4940041,None,901.4940041,None,901.4940041,None,904.4638554,None,,,,,,,,,,,,,,,,,,,,,,,,,,,,,,,,,,,,,,,pilot,2022_Jun_14_1511,Hippopolis_Learning,2021.1.2,59.52981434
Hippopolis,stimuli/subj_files/pilot_cityA.csv,./stimuli/frankfurt.jpg,./stimuli/street_plate1.png,KAKAÓ,stimuli/objects/014a.jpg,object,1,stimuli/objects/031a.jpg,stimuli/objects/031a.jpg,stimuli/objects/031b.jpg,stimuli/scenes/065a.jpg,stimuli/scenes/065b.jpg,target,lure,dist1,dist2,0,1,1,1,0,54,54,4,,,,,,,,,905.49648,None,905.49648,None,905.49648,None,905.49648,None,908.4468798,None,,,,,,,,,,,,,,,,,,,,,,,,,,,,,,,,,,,,,,,pilot,2022_Jun_14_1511,Hippopolis_Learning,2021.1.2,59.52981434
Hippopolis,stimuli/subj_files/pilot_cityA.csv,./stimuli/frankfurt.jpg,./stimuli/street_plate1.png,CSILLAG,stimuli/objects/041a.jpg,object,1,stimuli/objects/078a.jpg,stimuli/objects/078b.jpg,stimuli/objects/009b.jpg,stimuli/objects/078a.jpg,stimuli/objects/009a.jpg,lure,dist2,target,dist1,0,1,1,1,0,55,55,26,,,,,,,,,909.4664069,None,909.4664069,None,909.4664069,None,909.4664069,None,912.4560541,None,,,,,,,,,,,,,,,,,,,,,,,,,,,,,,,,,,,,,,,pilot,2022_Jun_14_1511,Hippopolis_Learning,2021.1.2,59.52981434
Hippopolis,stimuli/subj_files/pilot_cityA.csv,./stimuli/frankfurt.jpg,./stimuli/street_plate1.png,SIVATAG,stimuli/scenes/033a.jpg,scene,2,stimuli/objects/037a.jpg,stimuli/objects/069a.jpg,stimuli/objects/037a.jpg,stimuli/objects/037b.jpg,stimuli/objects/069b.jpg,dist1,target,lure,dist2,0,1,1,1,0,56,56,49,,,,,,,,,913.4878906,None,913.4878906,None,913.4878906,None,913.4878906,None,916.4593909,None,,,,,,,,,,,,,,,,,,,,,,,,,,,,,,,,,,,,,,,pilot,2022_Jun_14_1511,Hippopolis_Learning,2021.1.2,59.52981434
Hippopolis,stimuli/subj_files/pilot_cityA.csv,./stimuli/frankfurt.jpg,./stimuli/street_plate1.png,BÚJÓCSKA,stimuli/objects/007a.jpg,object,0,stimuli/objects/007a.jpg,stimuli/objects/018b.jpg,stimuli/objects/007a.jpg,stimuli/objects/007b.jpg,stimuli/objects/018a.jpg,dist2,target,lure,dist1,0,1,1,1,0,57,57,48,,,,,,,,,917.4941954,None,917.4941954,None,917.4941954,None,917.4941954,None,920.4601871,None,,,,,,,,,,,,,,,,,,,,,,,,,,,,,,,,,,,,,,,pilot,2022_Jun_14_1511,Hippopolis_Learning,2021.1.2,59.52981434
Hippopolis,stimuli/subj_files/pilot_cityA.csv,./stimuli/frankfurt.jpg,./stimuli/street_plate1.png,HARCSA,stimuli/scenes/012a.jpg,scene,0,stimuli/scenes/012a.jpg,stimuli/scenes/060a.jpg,stimuli/scenes/012b.jpg,stimuli/scenes/012a.jpg,stimuli/scenes/060b.jpg,dist1,lure,target,dist2,0,1,1,1,0,58,58,12,,,,,,,,,921.4853603,None,921.4853603,None,921.4853603,None,921.4853603,None,924.4627859,None,,,,,,,,,,,,,,,,,,,,,,,,,,,,,,,,,,,,,,,pilot,2022_Jun_14_1511,Hippopolis_Learning,2021.1.2,59.52981434
Hippopolis,stimuli/subj_files/pilot_cityA.csv,./stimuli/frankfurt.jpg,./stimuli/street_plate1.png,KATONA,stimuli/scenes/085a.jpg,scene,1,stimuli/scenes/024a.jpg,stimuli/scenes/024b.jpg,stimuli/scenes/024a.jpg,stimuli/scenes/063b.jpg,stimuli/scenes/063a.jpg,lure,target,dist2,dist1,0,1,1,1,0,59,59,31,,,,,,,,,925.5020757,None,925.5020757,None,925.5020757,None,925.5020757,None,928.4642038,None,,,,,,,,,,,,,,,,,,,,,,,,,,,,,,,,,,,,,,,pilot,2022_Jun_14_1511,Hippopolis_Learning,2021.1.2,59.52981434
Hippopolis,stimuli/subj_files/pilot_cityA.csv,./stimuli/frankfurt.jpg,./stimuli/street_plate1.png,BETON,stimuli/objects/056a.jpg,object,2,stimuli/scenes/056a.jpg,stimuli/scenes/056b.jpg,stimuli/scenes/084b.jpg,stimuli/scenes/084a.jpg,stimuli/scenes/056a.jpg,lure,dist2,dist1,target,0,1,1,1,,,,,0,0,0,59,,,,,,,,,,,,,948.9132114,None,929.4495768,None,space,17.59117189,929.4495768,None,947.1192682,None,947.1192682,None,947.1192682,None,947.1192682,None,right,1.713540853,947.1192682,None,947.1192682,None,None,None,None,None,None,None,None,None,None,None,None,,,,,,,,pilot,2022_Jun_14_1511,Hippopolis_Learning,2021.1.2,59.52981434
Hippopolis,stimuli/subj_files/pilot_cityA.csv,./stimuli/frankfurt.jpg,./stimuli/street_plate1.png,FÉNYKÉP,stimuli/objects/079a.jpg,object,1,stimuli/objects/095a.jpg,stimuli/scenes/061a.jpg,stimuli/objects/095b.jpg,stimuli/objects/095a.jpg,stimuli/scenes/061b.jpg,dist1,lure,target,dist2,0,1,1,1,,,,,0,1,1,37,,,,,,,,,,,,,951.2980071,None,,,,,,,949.9304844,None,949.9304844,None,949.9304844,None,949.9304844,None,right,1.318130502,949.9304844,None,949.9304844,None,None,None,None,None,None,None,None,None,None,None,None,,,,,,,,pilot,2022_Jun_14_1511,Hippopolis_Learning,2021.1.2,59.52981434
Hippopolis,stimuli/subj_files/pilot_cityA.csv,./stimuli/frankfurt.jpg,./stimuli/street_plate1.png,GYŰRŰ,stimuli/scenes/057a.jpg,scene,1,stimuli/scenes/050a.jpg,stimuli/scenes/050b.jpg,stimuli/scenes/050a.jpg,stimuli/scenes/053a.jpg,stimuli/scenes/053b.jpg,lure,target,dist1,dist2,0,1,1,1,,,,,0,2,2,9,,,,,,,,,,,,,954.5856658,None,,,,,,,952.3329758,None,952.3329758,None,952.3329758,None,952.3329758,None,right,2.211907136,952.3329758,None,952.3329758,None,None,None,None,None,None,None,None,None,None,None,None,,,,,,,,pilot,2022_Jun_14_1511,Hippopolis_Learning,2021.1.2,59.52981434
Hippopolis,stimuli/subj_files/pilot_cityA.csv,./stimuli/frankfurt.jpg,./stimuli/street_plate1.png,HARMONIKA,stimuli/scenes/001a.jpg,scene,2,stimuli/objects/097a.jpg,stimuli/scenes/028b.jpg,stimuli/objects/097a.jpg,stimuli/objects/097b.jpg,stimuli/scenes/028a.jpg,dist2,target,lure,dist1,0,1,1,1,,,,,0,3,3,20,,,,,,,,,,,,,957.4209847,None,,,,,,,955.6189638,None,955.6189638,None,955.6189638,None,955.6189638,None,left,1.757564458,955.6189638,None,955.6189638,None,None,None,None,None,None,None,None,None,None,None,None,,,,,,,,pilot,2022_Jun_14_1511,Hippopolis_Learning,2021.1.2,59.52981434
