CityName,StimuliFile,CityImage,StreetSign,Cue,Image,Category,Novelty,UpdateImage,TestImage1,TestImage2,TestImage3,TestImage4,TestImage1Type,TestImage2Type,TestImage3Type,TestImage4Type,CityBlock.thisRepN,CityBlock.thisTrialN,CityBlock.thisN,CityBlock.thisIndex,LearningTrials.thisRepN,LearningTrials.thisTrialN,LearningTrials.thisN,LearningTrials.thisIndex,learning_instructions_text.started,learning_instructions_text.stopped,intro_key.keys,intro_key.rt,intro_key.started,intro_key.stopped,cityname_text.started,cityname_text.stopped,city_image.started,city_image.stopped,test_resp,fx_cross.started,fx_cross.stopped,plate_updating.started,plate_updating.stopped,city_text_updating.started,city_text_updating.stopped,street_text_updating.started,street_text_updating.stopped,test_image1.started,test_image1.stopped,test_image2.started,test_image2.stopped,test_image3.started,test_image3.stopped,test_image4.started,test_image4.stopped,button_d.started,button_d.stopped,button_f.started,button_f.stopped,button_j.started,button_j.stopped,button_k.started,button_k.stopped,key_resp.keys,key_resp.rt,key_resp.started,key_resp.stopped,short_break_text.started,short_break_text.stopped,short_break_key.keys,short_break_key.started,short_break_key.stopped,short_break_key.rt,n_targets,n_lures,n_dist1s,n_dist2s,break_text.started,break_text.stopped,break_key_resp.keys,break_key_resp.rt,break_key_resp.started,break_key_resp.stopped,end_text.started,end_text.stopped,participant,date,expName,psychopyVersion,frameRate,
,,,,,,,,,,,,,,,,,,,,,,,,,11.055568168871105,None,space,47.539740732405335,11.055568168871105,None,,,,,,,,,,,,,,,,,,,,,,,,,,,,,,,,,,,,,,,,,,,,,,,,,,,,pilot1,2022_Jun_16_1024,Hippopolis_4AFCT,2021.1.2,59.999813475294616,
Camponello,stimuli/subj_files/pilot1_cityB.csv,./stimuli/leipzig.jpg,./stimuli/street_plate2.png,TIGRIS UTCA,stimuli/scenes/048a.jpg,scene,0,stimuli/scenes/048a.jpg,stimuli/scenes/048b.jpg,stimuli/objects/084b.jpg,stimuli/objects/084a.jpg,stimuli/scenes/048a.jpg,lure,dist2,dist1,target,0,0,0,1,0,0,0,44,,,,,,,58.67863689549267,None,58.67863689549267,None,invalid,61.65140360407531,None,62.70993815315887,None,62.70993815315887,None,62.70993815315887,None,62.70993815315887,None,62.70993815315887,None,62.70993815315887,None,62.70993815315887,None,62.70993815315887,None,62.70993815315887,None,62.70993815315887,None,62.70993815315887,None,k,2.5090148369781673,62.70993815315887,None,None,None,None,None,None,,,,,,,,,,,,,,pilot1,2022_Jun_16_1024,Hippopolis_4AFCT,2021.1.2,59.999813475294616,
Camponello,stimuli/subj_files/pilot1_cityB.csv,./stimuli/leipzig.jpg,./stimuli/street_plate2.png,SÜTŐ UTCA,stimuli/scenes/073a.jpg,scene,0,stimuli/scenes/073a.jpg,stimuli/objects/019a.jpg,stimuli/objects/019b.jpg,stimuli/scenes/073b.jpg,stimuli/scenes/073a.jpg,dist1,dist2,lure,target,0,0,0,1,0,1,1,38,,,,,,,,,,,target,65.25409269146621,None,66.32137119071558,None,66.32137119071558,None,66.32137119071558,None,66.32137119071558,None,66.32137119071558,None,66.32137119071558,None,66.32137119071558,None,66.32137119071558,None,66.32137119071558,None,66.32137119071558,None,66.32137119071558,None,k,1.6974154734052718,66.32137119071558,None,None,None,None,None,None,,,,,,,,,,,,,,pilot1,2022_Jun_16_1024,Hippopolis_4AFCT,2021.1.2,59.999813475294616,
Camponello,stimuli/subj_files/pilot1_cityB.csv,./stimuli/leipzig.jpg,./stimuli/street_plate2.png,KÖMÉNYMAG UTCA,stimuli/scenes/093a.jpg,scene,0,stimuli/scenes/093a.jpg,stimuli/scenes/093b.jpg,stimuli/objects/007b.jpg,stimuli/scenes/093a.jpg,stimuli/objects/007a.jpg,lure,dist2,target,dist1,0,0,0,1,0,2,2,15,,,,,,,,,,,dist1,68.04521040525287,None,69.13840663898736,None,69.13840663898736,None,69.13840663898736,None,69.13840663898736,None,69.13840663898736,None,69.13840663898736,None,69.13840663898736,None,69.13840663898736,None,69.13840663898736,None,69.13840663898736,None,69.13840663898736,None,j,1.9364952542819083,69.13840663898736,None,None,None,None,None,None,,,,,,,,,,,,,,pilot1,2022_Jun_16_1024,Hippopolis_4AFCT,2021.1.2,59.999813475294616,
Camponello,stimuli/subj_files/pilot1_cityB.csv,./stimuli/leipzig.jpg,./stimuli/street_plate2.png,PALACK UTCA,stimuli/scenes/010a.jpg,scene,0,stimuli/scenes/010a.jpg,stimuli/scenes/010b.jpg,stimuli/scenes/010a.jpg,stimuli/scenes/033a.jpg,stimuli/scenes/033b.jpg,lure,target,dist1,dist2,0,0,0,1,0,3,3,46,,,,,,,,,,,dist1,71.10743193794042,None,72.16694957902655,None,72.16694957902655,None,72.16694957902655,None,72.16694957902655,None,72.16694957902655,None,72.16694957902655,None,72.16694957902655,None,72.16694957902655,None,72.16694957902655,None,72.16694957902655,None,72.16694957902655,None,f,2.5398243931122124,72.16694957902655,None,None,None,None,None,None,,,,,,,,,,,,,,pilot1,2022_Jun_16_1024,Hippopolis_4AFCT,2021.1.2,59.999813475294616,
Camponello,stimuli/subj_files/pilot1_cityB.csv,./stimuli/leipzig.jpg,./stimuli/street_plate2.png,ZEBRA UTCA,stimuli/objects/036a.jpg,object,1,stimuli/objects/026a.jpg,stimuli/objects/026b.jpg,stimuli/objects/071b.jpg,stimuli/objects/071a.jpg,stimuli/objects/026a.jpg,lure,dist2,dist1,target,0,0,0,1,0,4,4,28,,,,,,,,,,,dist2,74.76127974269912,None,75.84637985238805,None,75.84637985238805,None,75.84637985238805,None,75.84637985238805,None,75.84637985238805,None,75.84637985238805,None,75.84637985238805,None,75.84637985238805,None,75.84637985238805,None,75.84637985238805,None,75.84637985238805,None,k,2.332803792785853,75.84637985238805,None,None,None,None,None,None,,,,,,,,,,,,,,pilot1,2022_Jun_16_1024,Hippopolis_4AFCT,2021.1.2,59.999813475294616,
Camponello,stimuli/subj_files/pilot1_cityB.csv,./stimuli/leipzig.jpg,./stimuli/street_plate2.png,PIZSAMA UTCA,stimuli/objects/087a.jpg,object,0,stimuli/objects/087a.jpg,stimuli/objects/087a.jpg,stimuli/objects/051b.jpg,stimuli/objects/087b.jpg,stimuli/objects/051a.jpg,target,dist2,lure,dist1,0,0,0,1,0,5,5,4,,,,,,,,,,,dist1,78.21640833420679,None,79.28251807112247,None,79.28251807112247,None,79.28251807112247,None,79.28251807112247,None,79.28251807112247,None,79.28251807112247,None,79.28251807112247,None,79.28251807112247,None,79.28251807112247,None,79.28251807112247,None,79.28251807112247,None,j,2.384142271708697,79.28251807112247,None,None,None,None,None,None,,,,,,,,,,,,,,pilot1,2022_Jun_16_1024,Hippopolis_4AFCT,2021.1.2,59.999813475294616,
Camponello,stimuli/subj_files/pilot1_cityB.csv,./stimuli/leipzig.jpg,./stimuli/street_plate2.png,FEJSZE UTCA,stimuli/objects/079a.jpg,object,2,stimuli/scenes/101a.jpg,stimuli/objects/083b.jpg,stimuli/scenes/101b.jpg,stimuli/scenes/101a.jpg,stimuli/objects/083a.jpg,dist2,lure,target,dist1,0,0,0,1,0,6,6,48,,,,,,,,,,,target,81.70840862300247,None,82.76762272184715,None,82.76762272184715,None,82.76762272184715,None,82.76762272184715,None,82.76762272184715,None,82.76762272184715,None,82.76762272184715,None,82.76762272184715,None,82.76762272184715,None,82.76762272184715,None,82.76762272184715,None,k,3.971172799821943,82.76762272184715,None,None,None,None,None,None,,,,,,,,,,,,,,pilot1,2022_Jun_16_1024,Hippopolis_4AFCT,2021.1.2,59.999813475294616,
Camponello,stimuli/subj_files/pilot1_cityB.csv,./stimuli/leipzig.jpg,./stimuli/street_plate2.png,BAGOLY UTCA,stimuli/objects/056a.jpg,object,0,stimuli/objects/056a.jpg,stimuli/scenes/073a.jpg,stimuli/objects/056b.jpg,stimuli/objects/056a.jpg,stimuli/scenes/073b.jpg,dist1,lure,target,dist2,0,0,0,1,0,7,7,61,,,,,,,,,,,dist2,86.76766315242276,None,87.81025954755023,None,87.81025954755023,None,87.81025954755023,None,87.81025954755023,None,87.81025954755023,None,87.81025954755023,None,87.81025954755023,None,87.81025954755023,None,87.81025954755023,None,87.81025954755023,None,87.81025954755023,None,j,2.3524295524694026,87.81025954755023,None,None,None,None,None,None,,,,,,,,,,,,,,pilot1,2022_Jun_16_1024,Hippopolis_4AFCT,2021.1.2,59.999813475294616,
Camponello,stimuli/subj_files/pilot1_cityB.csv,./stimuli/leipzig.jpg,./stimuli/street_plate2.png,KÍGYÓ UTCA,stimuli/objects/023a.jpg,object,0,stimuli/objects/023a.jpg,stimuli/scenes/107b.jpg,stimuli/objects/023a.jpg,stimuli/objects/023b.jpg,stimuli/scenes/107a.jpg,dist2,target,lure,dist1,0,0,0,1,0,8,8,45,,,,,,,,,,,lure,90.19407868338749,None,91.26104586571455,None,91.26104586571455,None,91.26104586571455,None,91.26104586571455,None,91.26104586571455,None,91.26104586571455,None,91.26104586571455,None,91.26104586571455,None,91.26104586571455,None,91.26104586571455,None,91.26104586571455,None,f,1.6538767283782363,91.26104586571455,None,None,None,None,None,None,,,,,,,,,,,,,,pilot1,2022_Jun_16_1024,Hippopolis_4AFCT,2021.1.2,59.999813475294616,
Camponello,stimuli/subj_files/pilot1_cityB.csv,./stimuli/leipzig.jpg,./stimuli/street_plate2.png,SZEKRÉNY UTCA,stimuli/objects/112a.jpg,object,0,stimuli/objects/112a.jpg,stimuli/objects/112a.jpg,stimuli/objects/020a.jpg,stimuli/objects/020b.jpg,stimuli/objects/112b.jpg,target,dist1,dist2,lure,0,0,0,1,0,9,9,33,,,,,,,,,,,dist1,92.95920308912173,None,93.99318646779284,None,93.99318646779284,None,93.99318646779284,None,93.99318646779284,None,93.99318646779284,None,93.99318646779284,None,93.99318646779284,None,93.99318646779284,None,93.99318646779284,None,93.99318646779284,None,93.99318646779284,None,d,2.0894013307988644,93.99318646779284,None,None,None,None,None,None,,,,,,,,,,,,,,pilot1,2022_Jun_16_1024,Hippopolis_4AFCT,2021.1.2,59.999813475294616,
Camponello,stimuli/subj_files/pilot1_cityB.csv,./stimuli/leipzig.jpg,./stimuli/street_plate2.png,DOMINÓ UTCA,stimuli/scenes/052a.jpg,scene,0,stimuli/scenes/052a.jpg,stimuli/scenes/052a.jpg,stimuli/scenes/052b.jpg,stimuli/scenes/090a.jpg,stimuli/scenes/090b.jpg,target,lure,dist1,dist2,0,0,0,1,0,10,10,31,,,,,,,,,,,target,96.12982627796009,None,97.16295314440504,None,97.16295314440504,None,97.16295314440504,None,97.16295314440504,None,97.16295314440504,None,97.16295314440504,None,97.16295314440504,None,97.16295314440504,None,97.16295314440504,None,97.16295314440504,None,97.16295314440504,None,d,3.57558859558776,97.16295314440504,None,None,None,None,None,None,,,,,,,,,,,,,,pilot1,2022_Jun_16_1024,Hippopolis_4AFCT,2021.1.2,59.999813475294616,
Camponello,stimuli/subj_files/pilot1_cityB.csv,./stimuli/leipzig.jpg,./stimuli/street_plate2.png,PULÓVER UTCA,stimuli/scenes/091a.jpg,scene,1,stimuli/scenes/042a.jpg,stimuli/scenes/099b.jpg,stimuli/scenes/099a.jpg,stimuli/scenes/042a.jpg,stimuli/scenes/042b.jpg,dist2,dist1,target,lure,0,0,0,1,0,11,11,7,,,,,,,,,,,dist2,100.78584055462852,None,101.84275942482054,None,101.84275942482054,None,101.84275942482054,None,101.84275942482054,None,101.84275942482054,None,101.84275942482054,None,101.84275942482054,None,101.84275942482054,None,101.84275942482054,None,101.84275942482054,None,101.84275942482054,None,j,2.7198440236970782,101.84275942482054,None,None,None,None,None,None,,,,,,,,,,,,,,pilot1,2022_Jun_16_1024,Hippopolis_4AFCT,2021.1.2,59.999813475294616,
Camponello,stimuli/subj_files/pilot1_cityB.csv,./stimuli/leipzig.jpg,./stimuli/street_plate2.png,FÓKA UTCA,stimuli/scenes/034a.jpg,scene,0,stimuli/scenes/034a.jpg,stimuli/scenes/034a.jpg,stimuli/objects/004a.jpg,stimuli/scenes/034b.jpg,stimuli/objects/004b.jpg,target,dist1,lure,dist2,0,0,0,1,0,12,12,70,,,,,,,,,,,lure,104.60642676474527,None,105.65792852221057,None,105.65792852221057,None,105.65792852221057,None,105.65792852221057,None,105.65792852221057,None,105.65792852221057,None,105.65792852221057,None,105.65792852221057,None,105.65792852221057,None,105.65792852221057,None,105.65792852221057,None,d,2.82456585066393,105.65792852221057,None,None,None,None,None,None,,,,,,,,,,,,,,pilot1,2022_Jun_16_1024,Hippopolis_4AFCT,2021.1.2,59.999813475294616,
Camponello,stimuli/subj_files/pilot1_cityB.csv,./stimuli/leipzig.jpg,./stimuli/street_plate2.png,PETÁRDA UTCA,stimuli/scenes/112a.jpg,scene,0,stimuli/scenes/112a.jpg,stimuli/scenes/058a.jpg,stimuli/scenes/112a.jpg,stimuli/scenes/058b.jpg,stimuli/scenes/112b.jpg,dist1,target,dist2,lure,0,0,0,1,0,13,13,26,,,,,,,,,,,dist1,108.512852658052,None,109.56567090656608,None,109.56567090656608,None,109.56567090656608,None,109.56567090656608,None,109.56567090656608,None,109.56567090656608,None,109.56567090656608,None,109.56567090656608,None,109.56567090656608,None,109.56567090656608,None,109.56567090656608,None,f,2.4527481477707624,109.56567090656608,None,None,None,None,None,None,,,,,,,,,,,,,,pilot1,2022_Jun_16_1024,Hippopolis_4AFCT,2021.1.2,59.999813475294616,
Camponello,stimuli/subj_files/pilot1_cityB.csv,./stimuli/leipzig.jpg,./stimuli/street_plate2.png,SZAXOFON UTCA,stimuli/scenes/107a.jpg,scene,0,stimuli/scenes/107a.jpg,stimuli/scenes/063a.jpg,stimuli/scenes/063b.jpg,stimuli/scenes/107b.jpg,stimuli/scenes/107a.jpg,dist1,dist2,lure,target,0,0,0,1,0,14,14,37,,,,,,,,,,,dist2,112.06280124885961,None,113.1283589489758,None,113.1283589489758,None,113.1283589489758,None,113.1283589489758,None,113.1283589489758,None,113.1283589489758,None,113.1283589489758,None,113.1283589489758,None,113.1283589489758,None,113.1283589489758,None,113.1283589489758,None,k,2.1862568678334355,113.1283589489758,None,None,None,None,None,None,,,,,,,,,,,,,,pilot1,2022_Jun_16_1024,Hippopolis_4AFCT,2021.1.2,59.999813475294616,
Camponello,stimuli/subj_files/pilot1_cityB.csv,./stimuli/leipzig.jpg,./stimuli/street_plate2.png,HERING UTCA,stimuli/objects/032a.jpg,object,0,stimuli/objects/032a.jpg,stimuli/objects/032a.jpg,stimuli/scenes/082b.jpg,stimuli/scenes/082a.jpg,stimuli/objects/032b.jpg,target,dist2,dist1,lure,0,0,0,1,0,15,15,57,,,,,,,,,,,lure,115.35289761750028,None,116.40231252089143,None,116.40231252089143,None,116.40231252089143,None,116.40231252089143,None,116.40231252089143,None,116.40231252089143,None,116.40231252089143,None,116.40231252089143,None,116.40231252089143,None,116.40231252089143,None,116.40231252089143,None,d,4.352437638677657,116.40231252089143,None,None,None,None,None,None,,,,,,,,,,,,,,pilot1,2022_Jun_16_1024,Hippopolis_4AFCT,2021.1.2,59.999813475294616,
Camponello,stimuli/subj_files/pilot1_cityB.csv,./stimuli/leipzig.jpg,./stimuli/street_plate2.png,KESZTYŰ UTCA,stimuli/objects/082a.jpg,object,0,stimuli/objects/082a.jpg,stimuli/scenes/078a.jpg,stimuli/objects/082b.jpg,stimuli/scenes/078b.jpg,stimuli/objects/082a.jpg,dist1,lure,dist2,target,0,0,0,1,0,16,16,16,,,,,,,,,,,dist1,120.78986840089783,None,121.83977811550722,None,121.83977811550722,None,121.83977811550722,None,121.83977811550722,None,121.83977811550722,None,121.83977811550722,None,121.83977811550722,None,121.83977811550722,None,121.83977811550722,None,121.83977811550722,None,121.83977811550722,None,None,,121.83977811550722,None,None,None,None,None,None,,,,,,,,,,,,,,pilot1,2022_Jun_16_1024,Hippopolis_4AFCT,2021.1.2,59.999813475294616,
Camponello,stimuli/subj_files/pilot1_cityB.csv,./stimuli/leipzig.jpg,./stimuli/street_plate2.png,BETON UTCA,stimuli/objects/116a.jpg,object,0,stimuli/objects/116a.jpg,stimuli/objects/116b.jpg,stimuli/objects/116a.jpg,stimuli/objects/001b.jpg,stimuli/objects/001a.jpg,lure,target,dist2,dist1,0,0,0,1,0,17,17,52,,,,,,,,,,,invalid,126.80862676305696,None,127.86771614803001,None,127.86771614803001,None,127.86771614803001,None,127.86771614803001,None,127.86771614803001,None,127.86771614803001,None,127.86771614803001,None,127.86771614803001,None,127.86771614803001,None,127.86771614803001,None,127.86771614803001,None,f,2.3904417101293802,127.86771614803001,None,None,None,None,None,None,,,,,,,,,,,,,,pilot1,2022_Jun_16_1024,Hippopolis_4AFCT,2021.1.2,59.999813475294616,
Camponello,stimuli/subj_files/pilot1_cityB.csv,./stimuli/leipzig.jpg,./stimuli/street_plate2.png,KOCSI UTCA,stimuli/scenes/066a.jpg,scene,0,stimuli/scenes/066a.jpg,stimuli/scenes/066a.jpg,stimuli/objects/058b.jpg,stimuli/objects/058a.jpg,stimuli/scenes/066b.jpg,target,dist2,dist1,lure,0,0,0,1,0,18,18,73,,,,,,,,,,,dist2,130.28536689141765,None,131.33578354679048,None,131.33578354679048,None,131.33578354679048,None,131.33578354679048,None,131.33578354679048,None,131.33578354679048,None,131.33578354679048,None,131.33578354679048,None,131.33578354679048,None,131.33578354679048,None,131.33578354679048,None,d,1.8344353334978223,131.33578354679048,None,None,None,None,None,None,,,,,,,,,,,,,,pilot1,2022_Jun_16_1024,Hippopolis_4AFCT,2021.1.2,59.999813475294616,
Camponello,stimuli/subj_files/pilot1_cityB.csv,./stimuli/leipzig.jpg,./stimuli/street_plate2.png,MOCSÁR UTCA,stimuli/objects/031a.jpg,object,0,stimuli/objects/031a.jpg,stimuli/scenes/013a.jpg,stimuli/scenes/013b.jpg,stimuli/objects/031a.jpg,stimuli/objects/031b.jpg,dist1,dist2,target,lure,0,0,0,1,0,19,19,58,,,,,,,,,,,dist1,133.20313675049692,None,134.24162941332906,None,134.24162941332906,None,134.24162941332906,None,134.24162941332906,None,134.24162941332906,None,134.24162941332906,None,134.24162941332906,None,134.24162941332906,None,134.24162941332906,None,134.24162941332906,None,134.24162941332906,None,j,3.4247945649549365,134.24162941332906,None,None,None,None,None,None,,,,,,,,,,,,,,pilot1,2022_Jun_16_1024,Hippopolis_4AFCT,2021.1.2,59.999813475294616,
Camponello,stimuli/subj_files/pilot1_cityB.csv,./stimuli/leipzig.jpg,./stimuli/street_plate2.png,CSILLAG UTCA,stimuli/scenes/109a.jpg,scene,1,stimuli/scenes/049a.jpg,stimuli/objects/050a.jpg,stimuli/scenes/049a.jpg,stimuli/scenes/049b.jpg,stimuli/objects/050b.jpg,dist1,target,lure,dist2,0,0,0,1,0,20,20,68,,,,,,,,,,,lure,137.71063947305083,None,138.76783296233043,None,138.76783296233043,None,138.76783296233043,None,138.76783296233043,None,138.76783296233043,None,138.76783296233043,None,138.76783296233043,None,138.76783296233043,None,138.76783296233043,None,138.76783296233043,None,138.76783296233043,None,f,2.882270634174347,138.76783296233043,None,None,None,None,None,None,,,,,,,,,,,,,,pilot1,2022_Jun_16_1024,Hippopolis_4AFCT,2021.1.2,59.999813475294616,
Camponello,stimuli/subj_files/pilot1_cityB.csv,./stimuli/leipzig.jpg,./stimuli/street_plate2.png,HEGESZTŐ UTCA,stimuli/objects/052a.jpg,object,0,stimuli/objects/052a.jpg,stimuli/objects/052a.jpg,stimuli/objects/067a.jpg,stimuli/objects/067b.jpg,stimuli/objects/052b.jpg,target,dist1,dist2,lure,0,0,0,1,0,21,21,66,,,,,,,,,,,dist1,141.68455193005502,None,142.73626268375665,None,142.73626268375665,None,142.73626268375665,None,142.73626268375665,None,142.73626268375665,None,142.73626268375665,None,142.73626268375665,None,142.73626268375665,None,142.73626268375665,None,142.73626268375665,None,142.73626268375665,None,d,1.9217292834073305,142.73626268375665,None,None,None,None,None,None,,,,,,,,,,,,,,pilot1,2022_Jun_16_1024,Hippopolis_4AFCT,2021.1.2,59.999813475294616,
Camponello,stimuli/subj_files/pilot1_cityB.csv,./stimuli/leipzig.jpg,./stimuli/street_plate2.png,TÁNYÉR UTCA,stimuli/scenes/040a.jpg,scene,0,stimuli/scenes/040a.jpg,stimuli/scenes/040a.jpg,stimuli/objects/044b.jpg,stimuli/scenes/040b.jpg,stimuli/objects/044a.jpg,target,dist2,lure,dist1,0,0,0,1,0,22,22,35,,,,,,,,,,,target,144.70478664012626,None,145.77234193589538,None,145.77234193589538,None,145.77234193589538,None,145.77234193589538,None,145.77234193589538,None,145.77234193589538,None,145.77234193589538,None,145.77234193589538,None,145.77234193589538,None,145.77234193589538,None,145.77234193589538,None,d,1.6856973669491708,145.77234193589538,None,None,None,None,None,None,,,,,,,,,,,,,,pilot1,2022_Jun_16_1024,Hippopolis_4AFCT,2021.1.2,59.999813475294616,
Camponello,stimuli/subj_files/pilot1_cityB.csv,./stimuli/leipzig.jpg,./stimuli/street_plate2.png,KATONA UTCA,stimuli/objects/004a.jpg,object,0,stimuli/objects/004a.jpg,stimuli/objects/004b.jpg,stimuli/scenes/083b.jpg,stimuli/objects/004a.jpg,stimuli/scenes/083a.jpg,lure,dist2,target,dist1,0,0,0,1,0,23,23,32,,,,,,,,,,,lure,147.4859496555291,None,148.54346752446145,None,148.54346752446145,None,148.54346752446145,None,148.54346752446145,None,148.54346752446145,None,148.54346752446145,None,148.54346752446145,None,148.54346752446145,None,148.54346752446145,None,148.54346752446145,None,148.54346752446145,None,j,1.906908264849335,148.54346752446145,None,None,None,None,None,None,,,,,,,,,,,,,,pilot1,2022_Jun_16_1024,Hippopolis_4AFCT,2021.1.2,59.999813475294616,
Camponello,stimuli/subj_files/pilot1_cityB.csv,./stimuli/leipzig.jpg,./stimuli/street_plate2.png,TENGER UTCA,stimuli/scenes/037a.jpg,scene,1,stimuli/scenes/119a.jpg,stimuli/objects/081a.jpg,stimuli/objects/081b.jpg,stimuli/scenes/119a.jpg,stimuli/scenes/119b.jpg,dist1,dist2,target,lure,0,0,0,1,0,24,24,59,,,,,,,,,,,target,150.48978281160817,None,151.57081713248044,None,151.57081713248044,None,151.57081713248044,None,151.57081713248044,None,151.57081713248044,None,151.57081713248044,None,151.57081713248044,None,151.57081713248044,None,151.57081713248044,None,151.57081713248044,None,151.57081713248044,None,j,2.03118152031675,151.57081713248044,None,None,None,None,None,None,,,,,,,,,,,,,,pilot1,2022_Jun_16_1024,Hippopolis_4AFCT,2021.1.2,59.999813475294616,
Camponello,stimuli/subj_files/pilot1_cityB.csv,./stimuli/leipzig.jpg,./stimuli/street_plate2.png,LÉPCSŐ UTCA,stimuli/objects/003a.jpg,object,0,stimuli/objects/003a.jpg,stimuli/scenes/010a.jpg,stimuli/scenes/010b.jpg,stimuli/objects/003b.jpg,stimuli/objects/003a.jpg,dist1,dist2,lure,target,0,0,0,1,0,25,25,34,,,,,,,,,,,lure,153.63391601480544,None,154.6683251610957,None,154.6683251610957,None,154.6683251610957,None,154.6683251610957,None,154.6683251610957,None,154.6683251610957,None,154.6683251610957,None,154.6683251610957,None,154.6683251610957,None,154.6683251610957,None,154.6683251610957,None,k,3.8456079340539873,154.6683251610957,None,None,None,None,None,None,,,,,,,,,,,,,,pilot1,2022_Jun_16_1024,Hippopolis_4AFCT,2021.1.2,59.999813475294616,
Camponello,stimuli/subj_files/pilot1_cityB.csv,./stimuli/leipzig.jpg,./stimuli/street_plate2.png,SZÚNYOG UTCA,stimuli/objects/084a.jpg,object,0,stimuli/objects/084a.jpg,stimuli/objects/084b.jpg,stimuli/objects/023b.jpg,stimuli/objects/084a.jpg,stimuli/objects/023a.jpg,lure,dist2,target,dist1,0,0,0,1,0,26,26,63,,,,,,,,,,,dist1,158.54656483931467,None,159.60896240128204,None,159.60896240128204,None,159.60896240128204,None,159.60896240128204,None,159.60896240128204,None,159.60896240128204,None,159.60896240128204,None,159.60896240128204,None,159.60896240128204,None,159.60896240128204,None,159.60896240128204,None,j,3.0649257344193757,159.60896240128204,None,None,None,None,None,None,,,,,,,,,,,,,,pilot1,2022_Jun_16_1024,Hippopolis_4AFCT,2021.1.2,59.999813475294616,
Camponello,stimuli/subj_files/pilot1_cityB.csv,./stimuli/leipzig.jpg,./stimuli/street_plate2.png,ÁLLOMÁS UTCA,stimuli/objects/001a.jpg,object,0,stimuli/objects/001a.jpg,stimuli/objects/001b.jpg,stimuli/objects/001a.jpg,stimuli/objects/107b.jpg,stimuli/objects/107a.jpg,lure,target,dist2,dist1,0,0,0,1,0,27,27,76,,,,,,,,,,,dist2,162.7104765055701,None,163.7440655278042,None,163.7440655278042,None,163.7440655278042,None,163.7440655278042,None,163.7440655278042,None,163.7440655278042,None,163.7440655278042,None,163.7440655278042,None,163.7440655278042,None,163.7440655278042,None,163.7440655278042,None,f,1.9541016481816769,163.7440655278042,None,None,None,None,None,None,,,,,,,,,,,,,,pilot1,2022_Jun_16_1024,Hippopolis_4AFCT,2021.1.2,59.999813475294616,
Camponello,stimuli/subj_files/pilot1_cityB.csv,./stimuli/leipzig.jpg,./stimuli/street_plate2.png,KARTON UTCA,stimuli/objects/095a.jpg,object,0,stimuli/objects/095a.jpg,stimuli/scenes/005b.jpg,stimuli/scenes/005a.jpg,stimuli/objects/095a.jpg,stimuli/objects/095b.jpg,dist2,dist1,target,lure,0,0,0,1,0,28,28,77,,,,,,,,,,,dist1,165.73433568701148,None,166.77054151846096,None,166.77054151846096,None,166.77054151846096,None,166.77054151846096,None,166.77054151846096,None,166.77054151846096,None,166.77054151846096,None,166.77054151846096,None,166.77054151846096,None,166.77054151846096,None,166.77054151846096,None,j,4.031435301527381,166.77054151846096,None,None,None,None,None,None,,,,,,,,,,,,,,pilot1,2022_Jun_16_1024,Hippopolis_4AFCT,2021.1.2,59.999813475294616,
Camponello,stimuli/subj_files/pilot1_cityB.csv,./stimuli/leipzig.jpg,./stimuli/street_plate2.png,MEDVE UTCA,stimuli/scenes/063a.jpg,scene,0,stimuli/scenes/063a.jpg,stimuli/scenes/063b.jpg,stimuli/scenes/063a.jpg,stimuli/scenes/101b.jpg,stimuli/scenes/101a.jpg,lure,target,dist2,dist1,0,0,0,1,0,29,29,74,,,,,,,,,,,dist2,170.8271263674833,None,171.86108610965312,None,171.86108610965312,None,171.86108610965312,None,171.86108610965312,None,171.86108610965312,None,171.86108610965312,None,171.86108610965312,None,171.86108610965312,None,171.86108610965312,None,171.86108610965312,None,171.86108610965312,None,f,1.5805158731527627,171.86108610965312,None,None,None,None,None,None,,,,,,,,,,,,,,pilot1,2022_Jun_16_1024,Hippopolis_4AFCT,2021.1.2,59.999813475294616,
Camponello,stimuli/subj_files/pilot1_cityB.csv,./stimuli/leipzig.jpg,./stimuli/street_plate2.png,REPÜLŐ UTCA,stimuli/scenes/056a.jpg,scene,0,stimuli/scenes/056a.jpg,stimuli/scenes/055b.jpg,stimuli/scenes/056a.jpg,stimuli/scenes/055a.jpg,stimuli/scenes/056b.jpg,dist2,target,dist1,lure,0,0,0,1,0,30,30,22,,,,,,,,,,,target,173.46543503925204,None,174.51085444074124,None,174.51085444074124,None,174.51085444074124,None,174.51085444074124,None,174.51085444074124,None,174.51085444074124,None,174.51085444074124,None,174.51085444074124,None,174.51085444074124,None,174.51085444074124,None,174.51085444074124,None,None,,174.51085444074124,None,None,None,None,None,None,,,,,,,,,,,,,,pilot1,2022_Jun_16_1024,Hippopolis_4AFCT,2021.1.2,59.999813475294616,
Camponello,stimuli/subj_files/pilot1_cityB.csv,./stimuli/leipzig.jpg,./stimuli/street_plate2.png,HARCSA UTCA,stimuli/objects/020a.jpg,object,0,stimuli/objects/020a.jpg,stimuli/objects/020a.jpg,stimuli/scenes/056a.jpg,stimuli/objects/020b.jpg,stimuli/scenes/056b.jpg,target,dist1,lure,dist2,0,0,0,1,0,31,31,19,,,,,,,,,,,invalid,179.4887956767343,None,180.53554960805923,None,180.53554960805923,None,180.53554960805923,None,180.53554960805923,None,180.53554960805923,None,180.53554960805923,None,180.53554960805923,None,180.53554960805923,None,180.53554960805923,None,180.53554960805923,None,180.53554960805923,None,d,1.802466344088316,180.53554960805923,None,None,None,None,None,None,,,,,,,,,,,,,,pilot1,2022_Jun_16_1024,Hippopolis_4AFCT,2021.1.2,59.999813475294616,
Camponello,stimuli/subj_files/pilot1_cityB.csv,./stimuli/leipzig.jpg,./stimuli/street_plate2.png,TERASZ UTCA,stimuli/objects/050a.jpg,object,0,stimuli/objects/050a.jpg,stimuli/scenes/049a.jpg,stimuli/objects/050a.jpg,stimuli/objects/050b.jpg,stimuli/scenes/049b.jpg,dist1,target,lure,dist2,0,0,0,1,0,32,32,62,,,,,,,,,,,dist1,182.373689962551,None,183.42168418783695,None,183.42168418783695,None,183.42168418783695,None,183.42168418783695,None,183.42168418783695,None,183.42168418783695,None,183.42168418783695,None,183.42168418783695,None,183.42168418783695,None,183.42168418783695,None,183.42168418783695,None,f,1.651936358306557,183.42168418783695,None,None,None,None,None,None,,,,,,,,,,,,,,pilot1,2022_Jun_16_1024,Hippopolis_4AFCT,2021.1.2,59.999813475294616,
Camponello,stimuli/subj_files/pilot1_cityB.csv,./stimuli/leipzig.jpg,./stimuli/street_plate2.png,RÁDIÓ UTCA,stimuli/scenes/115a.jpg,scene,0,stimuli/scenes/115a.jpg,stimuli/objects/095b.jpg,stimuli/scenes/115a.jpg,stimuli/scenes/115b.jpg,stimuli/objects/095a.jpg,dist2,target,lure,dist1,0,0,0,1,0,33,33,72,,,,,,,,,,,target,185.10598793439567,None,186.15573779167607,None,186.15573779167607,None,186.15573779167607,None,186.15573779167607,None,186.15573779167607,None,186.15573779167607,None,186.15573779167607,None,186.15573779167607,None,186.15573779167607,None,186.15573779167607,None,186.15573779167607,None,f,2.789842275902629,186.15573779167607,None,None,None,None,None,None,,,,,,,,,,,,,,pilot1,2022_Jun_16_1024,Hippopolis_4AFCT,2021.1.2,59.999813475294616,
Camponello,stimuli/subj_files/pilot1_cityB.csv,./stimuli/leipzig.jpg,./stimuli/street_plate2.png,BÖGRE UTCA,stimuli/scenes/081a.jpg,scene,1,stimuli/scenes/083a.jpg,stimuli/scenes/040b.jpg,stimuli/scenes/083a.jpg,stimuli/scenes/040a.jpg,stimuli/scenes/083b.jpg,dist2,target,dist1,lure,0,0,0,1,0,34,34,24,,,,,,,,,,,target,188.97556949965656,None,190.01136480271816,None,190.01136480271816,None,190.01136480271816,None,190.01136480271816,None,190.01136480271816,None,190.01136480271816,None,190.01136480271816,None,190.01136480271816,None,190.01136480271816,None,190.01136480271816,None,190.01136480271816,None,f,2.150196587201208,190.01136480271816,None,None,None,None,None,None,,,,,,,,,,,,,,pilot1,2022_Jun_16_1024,Hippopolis_4AFCT,2021.1.2,59.999813475294616,
Camponello,stimuli/subj_files/pilot1_cityB.csv,./stimuli/leipzig.jpg,./stimuli/street_plate2.png,SZÁMOLÓGÉP UTCA,stimuli/objects/051a.jpg,object,0,stimuli/objects/051a.jpg,stimuli/objects/051b.jpg,stimuli/objects/051a.jpg,stimuli/scenes/039b.jpg,stimuli/scenes/039a.jpg,lure,target,dist2,dist1,0,0,0,1,0,35,35,5,,,,,,,,,,,target,192.19883335242048,None,193.25220332620665,None,193.25220332620665,None,193.25220332620665,None,193.25220332620665,None,193.25220332620665,None,193.25220332620665,None,193.25220332620665,None,193.25220332620665,None,193.25220332620665,None,193.25220332620665,None,193.25220332620665,None,d,3.6131236692890525,193.25220332620665,None,None,None,None,None,None,,,,,,,,,,,,,,pilot1,2022_Jun_16_1024,Hippopolis_4AFCT,2021.1.2,59.999813475294616,
Camponello,stimuli/subj_files/pilot1_cityB.csv,./stimuli/leipzig.jpg,./stimuli/street_plate2.png,MOSODA UTCA,stimuli/objects/002a.jpg,object,0,stimuli/objects/002a.jpg,stimuli/objects/002b.jpg,stimuli/objects/092a.jpg,stimuli/objects/002a.jpg,stimuli/objects/092b.jpg,lure,dist1,target,dist2,0,0,0,1,0,36,36,2,,,,,,,,,,,lure,196.9035154939629,None,197.9569171909243,None,197.9569171909243,None,197.9569171909243,None,197.9569171909243,None,197.9569171909243,None,197.9569171909243,None,197.9569171909243,None,197.9569171909243,None,197.9569171909243,None,197.9569171909243,None,197.9569171909243,None,j,1.9324574558995664,197.9569171909243,None,None,None,None,None,None,,,,,,,,,,,,,,pilot1,2022_Jun_16_1024,Hippopolis_4AFCT,2021.1.2,59.999813475294616,
Camponello,stimuli/subj_files/pilot1_cityB.csv,./stimuli/leipzig.jpg,./stimuli/street_plate2.png,KALAPÁCS UTCA,stimuli/objects/069a.jpg,object,1,stimuli/objects/096a.jpg,stimuli/objects/031a.jpg,stimuli/objects/031b.jpg,stimuli/objects/096b.jpg,stimuli/objects/096a.jpg,dist1,dist2,lure,target,0,0,0,1,0,37,37,36,,,,,,,,,,,lure,199.94163526035845,None,200.99329998530447,None,200.99329998530447,None,200.99329998530447,None,200.99329998530447,None,200.99329998530447,None,200.99329998530447,None,200.99329998530447,None,200.99329998530447,None,200.99329998530447,None,200.99329998530447,None,200.99329998530447,None,j,4.224159551318735,200.99329998530447,None,None,None,None,None,None,,,,,,,,,,,,,,pilot1,2022_Jun_16_1024,Hippopolis_4AFCT,2021.1.2,59.999813475294616,
Camponello,stimuli/subj_files/pilot1_cityB.csv,./stimuli/leipzig.jpg,./stimuli/street_plate2.png,BOLYGÓ UTCA,stimuli/objects/113a.jpg,object,0,stimuli/objects/113a.jpg,stimuli/objects/113a.jpg,stimuli/scenes/112a.jpg,stimuli/objects/113b.jpg,stimuli/scenes/112b.jpg,target,dist1,lure,dist2,0,0,0,1,0,38,38,64,,,,,,,,,,,lure,205.25196011923254,None,206.3054803092964,None,206.3054803092964,None,206.3054803092964,None,206.3054803092964,None,206.3054803092964,None,206.3054803092964,None,206.3054803092964,None,206.3054803092964,None,206.3054803092964,None,206.3054803092964,None,206.3054803092964,None,d,2.9119596336968243,206.3054803092964,None,None,None,None,None,None,,,,,,,,,,,,,,pilot1,2022_Jun_16_1024,Hippopolis_4AFCT,2021.1.2,59.999813475294616,
Camponello,stimuli/subj_files/pilot1_cityB.csv,./stimuli/leipzig.jpg,./stimuli/street_plate2.png,SZOMSZÉD UTCA,stimuli/scenes/038a.jpg,scene,0,stimuli/scenes/038a.jpg,stimuli/scenes/038b.jpg,stimuli/scenes/016b.jpg,stimuli/scenes/038a.jpg,stimuli/scenes/016a.jpg,lure,dist2,target,dist1,0,0,0,1,0,39,39,1,,,,,,,,,,,lure,209.2515698056668,None,210.2902329005301,None,210.2902329005301,None,210.2902329005301,None,210.2902329005301,None,210.2902329005301,None,210.2902329005301,None,210.2902329005301,None,210.2902329005301,None,210.2902329005301,None,210.2902329005301,None,210.2902329005301,None,j,1.3429513154551387,210.2902329005301,None,211.67435153573751,None,space,211.67435153573751,None,12.054956418462098,,,,,,,,,,,,,pilot1,2022_Jun_16_1024,Hippopolis_4AFCT,2021.1.2,59.999813475294616,
Camponello,stimuli/subj_files/pilot1_cityB.csv,./stimuli/leipzig.jpg,./stimuli/street_plate2.png,AKÁC UTCA,stimuli/scenes/015a.jpg,scene,0,stimuli/scenes/015a.jpg,stimuli/scenes/015b.jpg,stimuli/objects/075b.jpg,stimuli/scenes/015a.jpg,stimuli/objects/075a.jpg,lure,dist2,target,dist1,0,0,0,1,0,40,40,75,,,,,,,,,,,target,223.77013752097264,None,224.83859193651006,None,224.83859193651006,None,224.83859193651006,None,224.83859193651006,None,224.83859193651006,None,224.83859193651006,None,224.83859193651006,None,224.83859193651006,None,224.83859193651006,None,224.83859193651006,None,224.83859193651006,None,j,2.618457121308893,224.83859193651006,None,None,None,None,None,None,,,,,,,,,,,,,,pilot1,2022_Jun_16_1024,Hippopolis_4AFCT,2021.1.2,59.999813475294616,
Camponello,stimuli/subj_files/pilot1_cityB.csv,./stimuli/leipzig.jpg,./stimuli/street_plate2.png,FÉNYMÁSOLÓ UTCA,stimuli/objects/075a.jpg,object,0,stimuli/objects/075a.jpg,stimuli/objects/075b.jpg,stimuli/objects/029a.jpg,stimuli/objects/075a.jpg,stimuli/objects/029b.jpg,lure,dist1,target,dist2,0,0,0,1,0,41,41,39,,,,,,,,,,,target,227.48412404675037,None,228.53836390655488,None,228.53836390655488,None,228.53836390655488,None,228.53836390655488,None,228.53836390655488,None,228.53836390655488,None,228.53836390655488,None,228.53836390655488,None,228.53836390655488,None,228.53836390655488,None,228.53836390655488,None,j,4.614665640052408,228.53836390655488,None,None,None,None,None,None,,,,,,,,,,,,,,pilot1,2022_Jun_16_1024,Hippopolis_4AFCT,2021.1.2,59.999813475294616,
Camponello,stimuli/subj_files/pilot1_cityB.csv,./stimuli/leipzig.jpg,./stimuli/street_plate2.png,HAJÓ UTCA,stimuli/objects/078a.jpg,object,1,stimuli/objects/083a.jpg,stimuli/scenes/066b.jpg,stimuli/objects/083a.jpg,stimuli/objects/083b.jpg,stimuli/scenes/066a.jpg,dist2,target,lure,dist1,0,0,0,1,0,42,42,78,,,,,,,,,,,lure,233.18028523027897,None,234.23231010092422,None,234.23231010092422,None,234.23231010092422,None,234.23231010092422,None,234.23231010092422,None,234.23231010092422,None,234.23231010092422,None,234.23231010092422,None,234.23231010092422,None,234.23231010092422,None,234.23231010092422,None,f,4.8086678152903914,234.23231010092422,None,None,None,None,None,None,,,,,,,,,,,,,,pilot1,2022_Jun_16_1024,Hippopolis_4AFCT,2021.1.2,59.999813475294616,
Camponello,stimuli/subj_files/pilot1_cityB.csv,./stimuli/leipzig.jpg,./stimuli/street_plate2.png,TELEP UTCA,stimuli/scenes/033a.jpg,scene,0,stimuli/scenes/033a.jpg,stimuli/scenes/033a.jpg,stimuli/scenes/011a.jpg,stimuli/scenes/011b.jpg,stimuli/scenes/033b.jpg,target,dist1,dist2,lure,0,0,0,1,0,43,43,17,,,,,,,,,,,dist1,239.08986131008714,None,240.13227452198043,None,240.13227452198043,None,240.13227452198043,None,240.13227452198043,None,240.13227452198043,None,240.13227452198043,None,240.13227452198043,None,240.13227452198043,None,240.13227452198043,None,240.13227452198043,None,240.13227452198043,None,d,2.34864833438769,240.13227452198043,None,None,None,None,None,None,,,,,,,,,,,,,,pilot1,2022_Jun_16_1024,Hippopolis_4AFCT,2021.1.2,59.999813475294616,
Camponello,stimuli/subj_files/pilot1_cityB.csv,./stimuli/leipzig.jpg,./stimuli/street_plate2.png,MÁRVÁNY UTCA,stimuli/scenes/036a.jpg,scene,2,stimuli/objects/029a.jpg,stimuli/objects/029a.jpg,stimuli/objects/108b.jpg,stimuli/objects/108a.jpg,stimuli/objects/029b.jpg,target,dist2,dist1,lure,0,0,0,1,0,44,44,71,,,,,,,,,,,target,242.5075182733126,None,243.57438002387062,None,243.57438002387062,None,243.57438002387062,None,243.57438002387062,None,243.57438002387062,None,243.57438002387062,None,243.57438002387062,None,243.57438002387062,None,243.57438002387062,None,243.57438002387062,None,243.57438002387062,None,d,2.090478346683085,243.57438002387062,None,None,None,None,None,None,,,,,,,,,,,,,,pilot1,2022_Jun_16_1024,Hippopolis_4AFCT,2021.1.2,59.999813475294616,
Camponello,stimuli/subj_files/pilot1_cityB.csv,./stimuli/leipzig.jpg,./stimuli/street_plate2.png,PULYKA UTCA,stimuli/scenes/009a.jpg,scene,2,stimuli/objects/081a.jpg,stimuli/objects/081a.jpg,stimuli/objects/043b.jpg,stimuli/objects/043a.jpg,stimuli/objects/081b.jpg,target,dist2,dist1,lure,0,0,0,1,0,45,45,50,,,,,,,,,,,target,245.71005571400747,None,246.7529130433686,None,246.7529130433686,None,246.7529130433686,None,246.7529130433686,None,246.7529130433686,None,246.7529130433686,None,246.7529130433686,None,246.7529130433686,None,246.7529130433686,None,246.7529130433686,None,246.7529130433686,None,k,3.840063619427383,246.7529130433686,None,None,None,None,None,None,,,,,,,,,,,,,,pilot1,2022_Jun_16_1024,Hippopolis_4AFCT,2021.1.2,59.999813475294616,
Camponello,stimuli/subj_files/pilot1_cityB.csv,./stimuli/leipzig.jpg,./stimuli/street_plate2.png,SIRÁLY UTCA,stimuli/scenes/013a.jpg,scene,0,stimuli/scenes/013a.jpg,stimuli/scenes/013a.jpg,stimuli/scenes/102a.jpg,stimuli/scenes/102b.jpg,stimuli/scenes/013b.jpg,target,dist1,dist2,lure,0,0,0,1,0,46,46,40,,,,,,,,,,,lure,250.62179111177102,None,251.6715073804371,None,251.6715073804371,None,251.6715073804371,None,251.6715073804371,None,251.6715073804371,None,251.6715073804371,None,251.6715073804371,None,251.6715073804371,None,251.6715073804371,None,251.6715073804371,None,251.6715073804371,None,d,1.657270743045956,251.6715073804371,None,None,None,None,None,None,,,,,,,,,,,,,,pilot1,2022_Jun_16_1024,Hippopolis_4AFCT,2021.1.2,59.999813475294616,
Camponello,stimuli/subj_files/pilot1_cityB.csv,./stimuli/leipzig.jpg,./stimuli/street_plate2.png,ÜVEG UTCA,stimuli/objects/103a.jpg,object,0,stimuli/objects/103a.jpg,stimuli/objects/103b.jpg,stimuli/objects/103a.jpg,stimuli/scenes/025a.jpg,stimuli/scenes/025b.jpg,lure,target,dist1,dist2,0,0,0,1,0,47,47,79,,,,,,,,,,,lure,253.35702529689297,None,254.40093880472705,None,254.40093880472705,None,254.40093880472705,None,254.40093880472705,None,254.40093880472705,None,254.40093880472705,None,254.40093880472705,None,254.40093880472705,None,254.40093880472705,None,254.40093880472705,None,254.40093880472705,None,f,1.1837535756640136,254.40093880472705,None,None,None,None,None,None,,,,,,,,,,,,,,pilot1,2022_Jun_16_1024,Hippopolis_4AFCT,2021.1.2,59.999813475294616,
Camponello,stimuli/subj_files/pilot1_cityB.csv,./stimuli/leipzig.jpg,./stimuli/street_plate2.png,KÖRTE UTCA,stimuli/scenes/050a.jpg,scene,1,stimuli/scenes/019a.jpg,stimuli/scenes/019a.jpg,stimuli/objects/114b.jpg,stimuli/scenes/019b.jpg,stimuli/objects/114a.jpg,target,dist2,lure,dist1,0,0,0,1,0,48,48,20,,,,,,,,,,,dist2,255.62763959076256,None,256.6642176974565,None,256.6642176974565,None,256.6642176974565,None,256.6642176974565,None,256.6642176974565,None,256.6642176974565,None,256.6642176974565,None,256.6642176974565,None,256.6642176974565,None,256.6642176974565,None,256.6642176974565,None,d,2.584947405382991,256.6642176974565,None,None,None,None,None,None,,,,,,,,,,,,,,pilot1,2022_Jun_16_1024,Hippopolis_4AFCT,2021.1.2,59.999813475294616,
Camponello,stimuli/subj_files/pilot1_cityB.csv,./stimuli/leipzig.jpg,./stimuli/street_plate2.png,KANÁL UTCA,stimuli/scenes/005a.jpg,scene,0,stimuli/scenes/005a.jpg,stimuli/scenes/005b.jpg,stimuli/objects/113b.jpg,stimuli/objects/113a.jpg,stimuli/scenes/005a.jpg,lure,dist2,dist1,target,0,0,0,1,0,49,49,14,,,,,,,,,,,lure,259.2891378463246,None,260.32994159916416,None,260.32994159916416,None,260.32994159916416,None,260.32994159916416,None,260.32994159916416,None,260.32994159916416,None,260.32994159916416,None,260.32994159916416,None,260.32994159916416,None,260.32994159916416,None,260.32994159916416,None,k,1.3826799192465842,260.32994159916416,None,None,None,None,None,None,,,,,,,,,,,,,,pilot1,2022_Jun_16_1024,Hippopolis_4AFCT,2021.1.2,59.999813475294616,
Camponello,stimuli/subj_files/pilot1_cityB.csv,./stimuli/leipzig.jpg,./stimuli/street_plate2.png,ORVOS UTCA,stimuli/scenes/058a.jpg,scene,0,stimuli/scenes/058a.jpg,stimuli/scenes/058b.jpg,stimuli/objects/056b.jpg,stimuli/objects/056a.jpg,stimuli/scenes/058a.jpg,lure,dist2,dist1,target,0,0,0,1,0,50,50,0,,,,,,,,,,,target,261.7561857653782,None,262.78268290450796,None,262.78268290450796,None,262.78268290450796,None,262.78268290450796,None,262.78268290450796,None,262.78268290450796,None,262.78268290450796,None,262.78268290450796,None,262.78268290450796,None,262.78268290450796,None,262.78268290450796,None,k,1.314324714243412,262.78268290450796,None,None,None,None,None,None,,,,,,,,,,,,,,pilot1,2022_Jun_16_1024,Hippopolis_4AFCT,2021.1.2,59.999813475294616,
Camponello,stimuli/subj_files/pilot1_cityB.csv,./stimuli/leipzig.jpg,./stimuli/street_plate2.png,SAPKA UTCA,stimuli/objects/092a.jpg,object,0,stimuli/objects/092a.jpg,stimuli/scenes/093a.jpg,stimuli/scenes/093b.jpg,stimuli/objects/092a.jpg,stimuli/objects/092b.jpg,dist1,dist2,target,lure,0,0,0,1,0,51,51,53,,,,,,,,,,,lure,264.134490754921,None,265.16907530929893,None,265.16907530929893,None,265.16907530929893,None,265.16907530929893,None,265.16907530929893,None,265.16907530929893,None,265.16907530929893,None,265.16907530929893,None,265.16907530929893,None,265.16907530929893,None,265.16907530929893,None,j,2.2078851987607777,265.16907530929893,None,None,None,None,None,None,,,,,,,,,,,,,,pilot1,2022_Jun_16_1024,Hippopolis_4AFCT,2021.1.2,59.999813475294616,
Camponello,stimuli/subj_files/pilot1_cityB.csv,./stimuli/leipzig.jpg,./stimuli/street_plate2.png,SZŐLŐ UTCA,stimuli/objects/071a.jpg,object,0,stimuli/objects/071a.jpg,stimuli/objects/096b.jpg,stimuli/objects/071b.jpg,stimuli/objects/096a.jpg,stimuli/objects/071a.jpg,dist2,lure,dist1,target,0,0,0,1,0,52,52,9,,,,,,,,,,,dist1,267.4110804181546,None,268.46157358167693,None,268.46157358167693,None,268.46157358167693,None,268.46157358167693,None,268.46157358167693,None,268.46157358167693,None,268.46157358167693,None,268.46157358167693,None,268.46157358167693,None,268.46157358167693,None,268.46157358167693,None,k,4.579031127505004,268.46157358167693,None,None,None,None,None,None,,,,,,,,,,,,,,pilot1,2022_Jun_16_1024,Hippopolis_4AFCT,2021.1.2,59.999813475294616,
Camponello,stimuli/subj_files/pilot1_cityB.csv,./stimuli/leipzig.jpg,./stimuli/street_plate2.png,TÁSKA UTCA,stimuli/scenes/055a.jpg,scene,0,stimuli/scenes/055a.jpg,stimuli/scenes/055a.jpg,stimuli/scenes/055b.jpg,stimuli/objects/074a.jpg,stimuli/objects/074b.jpg,target,lure,dist1,dist2,0,0,0,1,0,53,53,67,,,,,,,,,,,dist2,273.0674719456583,None,274.12453076895326,None,274.12453076895326,None,274.12453076895326,None,274.12453076895326,None,274.12453076895326,None,274.12453076895326,None,274.12453076895326,None,274.12453076895326,None,274.12453076895326,None,274.12453076895326,None,274.12453076895326,None,d,3.0600258260965347,274.12453076895326,None,None,None,None,None,None,,,,,,,,,,,,,,pilot1,2022_Jun_16_1024,Hippopolis_4AFCT,2021.1.2,59.999813475294616,
Camponello,stimuli/subj_files/pilot1_cityB.csv,./stimuli/leipzig.jpg,./stimuli/street_plate2.png,CUKOR UTCA,stimuli/scenes/065a.jpg,scene,0,stimuli/scenes/065a.jpg,stimuli/objects/052b.jpg,stimuli/scenes/065a.jpg,stimuli/objects/052a.jpg,stimuli/scenes/065b.jpg,dist2,target,dist1,lure,0,0,0,1,0,54,54,49,,,,,,,,,,,dist2,277.20785845210776,None,278.2489539296366,None,278.2489539296366,None,278.2489539296366,None,278.2489539296366,None,278.2489539296366,None,278.2489539296366,None,278.2489539296366,None,278.2489539296366,None,278.2489539296366,None,278.2489539296366,None,278.2489539296366,None,f,3.047770300414413,278.2489539296366,None,None,None,None,None,None,,,,,,,,,,,,,,pilot1,2022_Jun_16_1024,Hippopolis_4AFCT,2021.1.2,59.999813475294616,
Camponello,stimuli/subj_files/pilot1_cityB.csv,./stimuli/leipzig.jpg,./stimuli/street_plate2.png,LIGET UTCA,stimuli/scenes/095a.jpg,scene,0,stimuli/scenes/095a.jpg,stimuli/scenes/115b.jpg,stimuli/scenes/115a.jpg,stimuli/scenes/095b.jpg,stimuli/scenes/095a.jpg,dist2,dist1,lure,target,0,0,0,1,0,55,55,54,,,,,,,,,,,dist1,281.33624881273136,None,282.37801326531917,None,282.37801326531917,None,282.37801326531917,None,282.37801326531917,None,282.37801326531917,None,282.37801326531917,None,282.37801326531917,None,282.37801326531917,None,282.37801326531917,None,282.37801326531917,None,282.37801326531917,None,k,1.5263419467955828,282.37801326531917,None,None,None,None,None,None,,,,,,,,,,,,,,pilot1,2022_Jun_16_1024,Hippopolis_4AFCT,2021.1.2,59.999813475294616,
Camponello,stimuli/subj_files/pilot1_cityB.csv,./stimuli/leipzig.jpg,./stimuli/street_plate2.png,PELIKÁN UTCA,stimuli/objects/058a.jpg,object,0,stimuli/objects/058a.jpg,stimuli/objects/112b.jpg,stimuli/objects/112a.jpg,stimuli/objects/058a.jpg,stimuli/objects/058b.jpg,dist2,dist1,target,lure,0,0,0,1,0,56,56,65,,,,,,,,,,,lure,283.9453726266511,None,284.98230496933684,None,284.98230496933684,None,284.98230496933684,None,284.98230496933684,None,284.98230496933684,None,284.98230496933684,None,284.98230496933684,None,284.98230496933684,None,284.98230496933684,None,284.98230496933684,None,284.98230496933684,None,j,3.0983088705688715,284.98230496933684,None,None,None,None,None,None,,,,,,,,,,,,,,pilot1,2022_Jun_16_1024,Hippopolis_4AFCT,2021.1.2,59.999813475294616,
Camponello,stimuli/subj_files/pilot1_cityB.csv,./stimuli/leipzig.jpg,./stimuli/street_plate2.png,LÁMPA UTCA,stimuli/objects/009a.jpg,object,2,stimuli/scenes/039a.jpg,stimuli/objects/005b.jpg,stimuli/scenes/039a.jpg,stimuli/scenes/039b.jpg,stimuli/objects/005a.jpg,dist2,target,lure,dist1,0,0,0,1,0,57,57,55,,,,,,,,,,,lure,288.1059263548814,None,289.13537992257625,None,289.13537992257625,None,289.13537992257625,None,289.13537992257625,None,289.13537992257625,None,289.13537992257625,None,289.13537992257625,None,289.13537992257625,None,289.13537992257625,None,289.13537992257625,None,289.13537992257625,None,f,4.240962925832719,289.13537992257625,None,None,None,None,None,None,,,,,,,,,,,,,,pilot1,2022_Jun_16_1024,Hippopolis_4AFCT,2021.1.2,59.999813475294616,
Camponello,stimuli/subj_files/pilot1_cityB.csv,./stimuli/leipzig.jpg,./stimuli/street_plate2.png,ELEFÁNT UTCA,stimuli/scenes/099a.jpg,scene,0,stimuli/scenes/099a.jpg,stimuli/scenes/099b.jpg,stimuli/scenes/099a.jpg,stimuli/objects/116b.jpg,stimuli/objects/116a.jpg,lure,target,dist2,dist1,0,0,0,1,0,58,58,51,,,,,,,,,,,target,293.40761145111173,None,294.4762701978907,None,294.4762701978907,None,294.4762701978907,None,294.4762701978907,None,294.4762701978907,None,294.4762701978907,None,294.4762701978907,None,294.4762701978907,None,294.4762701978907,None,294.4762701978907,None,294.4762701978907,None,f,3.875949425622821,294.4762701978907,None,None,None,None,None,None,,,,,,,,,,,,,,pilot1,2022_Jun_16_1024,Hippopolis_4AFCT,2021.1.2,59.999813475294616,
Camponello,stimuli/subj_files/pilot1_cityB.csv,./stimuli/leipzig.jpg,./stimuli/street_plate2.png,FÉNYKÉP UTCA,stimuli/scenes/011a.jpg,scene,0,stimuli/scenes/011a.jpg,stimuli/scenes/011a.jpg,stimuli/scenes/011b.jpg,stimuli/scenes/065b.jpg,stimuli/scenes/065a.jpg,target,lure,dist2,dist1,0,0,0,1,0,59,59,29,,,,,,,,,,,lure,298.3966966746375,None,299.4460947839543,None,299.4460947839543,None,299.4460947839543,None,299.4460947839543,None,299.4460947839543,None,299.4460947839543,None,299.4460947839543,None,299.4460947839543,None,299.4460947839543,None,299.4460947839543,None,299.4460947839543,None,d,1.498296928126365,299.4460947839543,None,None,None,None,None,None,,,,,,,,,,,,,,pilot1,2022_Jun_16_1024,Hippopolis_4AFCT,2021.1.2,59.999813475294616,
Camponello,stimuli/subj_files/pilot1_cityB.csv,./stimuli/leipzig.jpg,./stimuli/street_plate2.png,SUGÁR UTCA,stimuli/objects/098a.jpg,object,1,stimuli/objects/019a.jpg,stimuli/objects/019b.jpg,stimuli/scenes/042a.jpg,stimuli/scenes/042b.jpg,stimuli/objects/019a.jpg,lure,dist1,dist2,target,0,0,0,1,0,60,60,3,,,,,,,,,,,lure,300.98111505806446,None,302.03251356165856,None,302.03251356165856,None,302.03251356165856,None,302.03251356165856,None,302.03251356165856,None,302.03251356165856,None,302.03251356165856,None,302.03251356165856,None,302.03251356165856,None,302.03251356165856,None,302.03251356165856,None,k,2.4956586589105427,302.03251356165856,None,None,None,None,None,None,,,,,,,,,,,,,,pilot1,2022_Jun_16_1024,Hippopolis_4AFCT,2021.1.2,59.999813475294616,
Camponello,stimuli/subj_files/pilot1_cityB.csv,./stimuli/leipzig.jpg,./stimuli/street_plate2.png,HÁRFA UTCA,stimuli/scenes/075a.jpg,scene,0,stimuli/scenes/075a.jpg,stimuli/scenes/034a.jpg,stimuli/scenes/075a.jpg,stimuli/scenes/034b.jpg,stimuli/scenes/075b.jpg,dist1,target,dist2,lure,0,0,0,1,0,61,61,6,,,,,,,,,,,lure,304.55741461506113,None,305.5918097659014,None,305.5918097659014,None,305.5918097659014,None,305.5918097659014,None,305.5918097659014,None,305.5918097659014,None,305.5918097659014,None,305.5918097659014,None,305.5918097659014,None,305.5918097659014,None,305.5918097659014,None,f,2.3763285423628986,305.5918097659014,None,None,None,None,None,None,,,,,,,,,,,,,,pilot1,2022_Jun_16_1024,Hippopolis_4AFCT,2021.1.2,59.999813475294616,
Camponello,stimuli/subj_files/pilot1_cityB.csv,./stimuli/leipzig.jpg,./stimuli/street_plate2.png,HENTES UTCA,stimuli/objects/063a.jpg,object,2,stimuli/scenes/090a.jpg,stimuli/scenes/090a.jpg,stimuli/scenes/019b.jpg,stimuli/scenes/019a.jpg,stimuli/scenes/090b.jpg,target,dist2,dist1,lure,0,0,0,1,0,62,62,56,,,,,,,,,,,dist2,307.9942855653353,None,309.02828698186204,None,309.02828698186204,None,309.02828698186204,None,309.02828698186204,None,309.02828698186204,None,309.02828698186204,None,309.02828698186204,None,309.02828698186204,None,309.02828698186204,None,309.02828698186204,None,309.02828698186204,None,d,4.523839276749641,309.02828698186204,None,None,None,None,None,None,,,,,,,,,,,,,,pilot1,2022_Jun_16_1024,Hippopolis_4AFCT,2021.1.2,59.999813475294616,
Camponello,stimuli/subj_files/pilot1_cityB.csv,./stimuli/leipzig.jpg,./stimuli/street_plate2.png,KAKAÓ UTCA,stimuli/scenes/016a.jpg,scene,0,stimuli/scenes/016a.jpg,stimuli/scenes/075b.jpg,stimuli/scenes/075a.jpg,stimuli/scenes/016a.jpg,stimuli/scenes/016b.jpg,dist2,dist1,target,lure,0,0,0,1,0,63,63,18,,,,,,,,,,,dist2,313.5743274637498,None,314.61913449363783,None,314.61913449363783,None,314.61913449363783,None,314.61913449363783,None,314.61913449363783,None,314.61913449363783,None,314.61913449363783,None,314.61913449363783,None,314.61913449363783,None,314.61913449363783,None,314.61913449363783,None,j,2.341052931267768,314.61913449363783,None,None,None,None,None,None,,,,,,,,,,,,,,pilot1,2022_Jun_16_1024,Hippopolis_4AFCT,2021.1.2,59.999813475294616,
Camponello,stimuli/subj_files/pilot1_cityB.csv,./stimuli/leipzig.jpg,./stimuli/street_plate2.png,KERÉK UTCA,stimuli/objects/085a.jpg,object,2,stimuli/scenes/053a.jpg,stimuli/scenes/052b.jpg,stimuli/scenes/053b.jpg,stimuli/scenes/052a.jpg,stimuli/scenes/053a.jpg,dist2,lure,dist1,target,0,0,0,1,0,64,64,43,,,,,,,,,,,dist1,317.00539720850065,None,318.03646365599707,None,318.03646365599707,None,318.03646365599707,None,318.03646365599707,None,318.03646365599707,None,318.03646365599707,None,318.03646365599707,None,318.03646365599707,None,318.03646365599707,None,318.03646365599707,None,318.03646365599707,None,k,3.8675295440480113,318.03646365599707,None,None,None,None,None,None,,,,,,,,,,,,,,pilot1,2022_Jun_16_1024,Hippopolis_4AFCT,2021.1.2,59.999813475294616,
Camponello,stimuli/subj_files/pilot1_cityB.csv,./stimuli/leipzig.jpg,./stimuli/street_plate2.png,ANANÁSZ UTCA,stimuli/scenes/092a.jpg,scene,1,stimuli/scenes/087a.jpg,stimuli/scenes/087b.jpg,stimuli/scenes/119a.jpg,stimuli/scenes/087a.jpg,stimuli/scenes/119b.jpg,lure,dist1,target,dist2,0,0,0,1,0,65,65,69,,,,,,,,,,,dist2,321.9466384234838,None,322.9952714559622,None,322.9952714559622,None,322.9952714559622,None,322.9952714559622,None,322.9952714559622,None,322.9952714559622,None,322.9952714559622,None,322.9952714559622,None,322.9952714559622,None,322.9952714559622,None,322.9952714559622,None,k,4.060688891913742,322.9952714559622,None,None,None,None,None,None,,,,,,,,,,,,,,pilot1,2022_Jun_16_1024,Hippopolis_4AFCT,2021.1.2,59.999813475294616,
Camponello,stimuli/subj_files/pilot1_cityB.csv,./stimuli/leipzig.jpg,./stimuli/street_plate2.png,SALÁTA UTCA,stimuli/objects/108a.jpg,object,0,stimuli/objects/108a.jpg,stimuli/objects/108b.jpg,stimuli/objects/026b.jpg,stimuli/objects/108a.jpg,stimuli/objects/026a.jpg,lure,dist2,target,dist1,0,0,0,1,0,66,66,30,,,,,,,,,,,dist1,327.0836862740107,None,328.1377911567688,None,328.1377911567688,None,328.1377911567688,None,328.1377911567688,None,328.1377911567688,None,328.1377911567688,None,328.1377911567688,None,328.1377911567688,None,328.1377911567688,None,328.1377911567688,None,328.1377911567688,None,None,,328.1377911567688,None,None,None,None,None,None,,,,,,,,,,,,,,pilot1,2022_Jun_16_1024,Hippopolis_4AFCT,2021.1.2,59.999813475294616,
Camponello,stimuli/subj_files/pilot1_cityB.csv,./stimuli/leipzig.jpg,./stimuli/street_plate2.png,MAJOM UTCA,stimuli/objects/048a.jpg,object,1,stimuli/objects/107a.jpg,stimuli/scenes/087a.jpg,stimuli/objects/107b.jpg,stimuli/scenes/087b.jpg,stimuli/objects/107a.jpg,dist1,lure,dist2,target,0,0,0,1,0,67,67,8,,,,,,,,,,,invalid,333.10272360919043,None,334.13906099647284,None,334.13906099647284,None,334.13906099647284,None,334.13906099647284,None,334.13906099647284,None,334.13906099647284,None,334.13906099647284,None,334.13906099647284,None,334.13906099647284,None,334.13906099647284,None,334.13906099647284,None,k,3.460806638933718,334.13906099647284,None,None,None,None,None,None,,,,,,,,,,,,,,pilot1,2022_Jun_16_1024,Hippopolis_4AFCT,2021.1.2,59.999813475294616,
Camponello,stimuli/subj_files/pilot1_cityB.csv,./stimuli/leipzig.jpg,./stimuli/street_plate2.png,FŰRÉSZ UTCA,stimuli/objects/044a.jpg,object,0,stimuli/objects/044a.jpg,stimuli/scenes/038b.jpg,stimuli/scenes/038a.jpg,stimuli/objects/044a.jpg,stimuli/objects/044b.jpg,dist2,dist1,target,lure,0,0,0,1,0,68,68,42,,,,,,,,,,,lure,337.63282997952774,None,338.6830261317082,None,338.6830261317082,None,338.6830261317082,None,338.6830261317082,None,338.6830261317082,None,338.6830261317082,None,338.6830261317082,None,338.6830261317082,None,338.6830261317082,None,338.6830261317082,None,338.6830261317082,None,j,3.5246883244253695,338.6830261317082,None,None,None,None,None,None,,,,,,,,,,,,,,pilot1,2022_Jun_16_1024,Hippopolis_4AFCT,2021.1.2,59.999813475294616,
Camponello,stimuli/subj_files/pilot1_cityB.csv,./stimuli/leipzig.jpg,./stimuli/street_plate2.png,FOLYÓ UTCA,stimuli/scenes/089a.jpg,scene,2,stimuli/objects/114a.jpg,stimuli/objects/008b.jpg,stimuli/objects/114a.jpg,stimuli/objects/008a.jpg,stimuli/objects/114b.jpg,dist2,target,dist1,lure,0,0,0,1,0,69,69,12,,,,,,,,,,,dist1,342.2468655202538,None,343.2973089222796,None,343.2973089222796,None,343.2973089222796,None,343.2973089222796,None,343.2973089222796,None,343.2973089222796,None,343.2973089222796,None,343.2973089222796,None,343.2973089222796,None,343.2973089222796,None,343.2973089222796,None,f,4.046579767018557,343.2973089222796,None,None,None,None,None,None,,,,,,,,,,,,,,pilot1,2022_Jun_16_1024,Hippopolis_4AFCT,2021.1.2,59.999813475294616,
Camponello,stimuli/subj_files/pilot1_cityB.csv,./stimuli/leipzig.jpg,./stimuli/street_plate2.png,FOGAS UTCA,stimuli/objects/094a.jpg,object,1,stimuli/objects/007a.jpg,stimuli/scenes/015a.jpg,stimuli/objects/007b.jpg,stimuli/objects/007a.jpg,stimuli/scenes/015b.jpg,dist1,lure,target,dist2,0,0,0,1,0,70,70,60,,,,,,,,,,,lure,347.38372832210734,None,348.42142356419936,None,348.42142356419936,None,348.42142356419936,None,348.42142356419936,None,348.42142356419936,None,348.42142356419936,None,348.42142356419936,None,348.42142356419936,None,348.42142356419936,None,348.42142356419936,None,348.42142356419936,None,f,4.330166145693511,348.42142356419936,None,None,None,None,None,None,,,,,,,,,,,,,,pilot1,2022_Jun_16_1024,Hippopolis_4AFCT,2021.1.2,59.999813475294616,
Camponello,stimuli/subj_files/pilot1_cityB.csv,./stimuli/leipzig.jpg,./stimuli/street_plate2.png,PISZTRÁNG UTCA,stimuli/scenes/025a.jpg,scene,0,stimuli/scenes/025a.jpg,stimuli/scenes/025a.jpg,stimuli/scenes/095b.jpg,stimuli/scenes/025b.jpg,stimuli/scenes/095a.jpg,target,dist2,lure,dist1,0,0,0,1,0,71,71,27,,,,,,,,,,,dist2,352.79447565227747,None,353.8459033900872,None,353.8459033900872,None,353.8459033900872,None,353.8459033900872,None,353.8459033900872,None,353.8459033900872,None,353.8459033900872,None,353.8459033900872,None,353.8459033900872,None,353.8459033900872,None,353.8459033900872,None,d,1.5937709738500416,353.8459033900872,None,None,None,None,None,None,,,,,,,,,,,,,,pilot1,2022_Jun_16_1024,Hippopolis_4AFCT,2021.1.2,59.999813475294616,
Camponello,stimuli/subj_files/pilot1_cityB.csv,./stimuli/leipzig.jpg,./stimuli/street_plate2.png,LIMONÁDÉ UTCA,stimuli/scenes/082a.jpg,scene,0,stimuli/scenes/082a.jpg,stimuli/objects/002b.jpg,stimuli/scenes/082b.jpg,stimuli/scenes/082a.jpg,stimuli/objects/002a.jpg,dist2,lure,target,dist1,0,0,0,1,0,72,72,11,,,,,,,,,,,dist2,355.4721023985185,None,356.5152141312137,None,356.5152141312137,None,356.5152141312137,None,356.5152141312137,None,356.5152141312137,None,356.5152141312137,None,356.5152141312137,None,356.5152141312137,None,356.5152141312137,None,356.5152141312137,None,356.5152141312137,None,k,2.3323969962075353,356.5152141312137,None,None,None,None,None,None,,,,,,,,,,,,,,pilot1,2022_Jun_16_1024,Hippopolis_4AFCT,2021.1.2,59.999813475294616,
Camponello,stimuli/subj_files/pilot1_cityB.csv,./stimuli/leipzig.jpg,./stimuli/street_plate2.png,CSAVARHÚZÓ UTCA,stimuli/objects/105a.jpg,object,2,stimuli/scenes/102a.jpg,stimuli/scenes/102b.jpg,stimuli/scenes/102a.jpg,stimuli/objects/082b.jpg,stimuli/objects/082a.jpg,lure,target,dist2,dist1,0,0,0,1,0,73,73,10,,,,,,,,,,,dist1,358.88253219099715,None,359.9186929264106,None,359.9186929264106,None,359.9186929264106,None,359.9186929264106,None,359.9186929264106,None,359.9186929264106,None,359.9186929264106,None,359.9186929264106,None,359.9186929264106,None,359.9186929264106,None,359.9186929264106,None,None,,359.9186929264106,None,None,None,None,None,None,,,,,,,,,,,,,,pilot1,2022_Jun_16_1024,Hippopolis_4AFCT,2021.1.2,59.999813475294616,
Camponello,stimuli/subj_files/pilot1_cityB.csv,./stimuli/leipzig.jpg,./stimuli/street_plate2.png,KÓKUSZ UTCA,stimuli/objects/091a.jpg,object,2,stimuli/scenes/078a.jpg,stimuli/objects/032b.jpg,stimuli/scenes/078a.jpg,stimuli/scenes/078b.jpg,stimuli/objects/032a.jpg,dist2,target,lure,dist1,0,0,0,1,0,74,74,13,,,,,,,,,,,invalid,364.8913853042759,None,365.9252666728571,None,365.9252666728571,None,365.9252666728571,None,365.9252666728571,None,365.9252666728571,None,365.9252666728571,None,365.9252666728571,None,365.9252666728571,None,365.9252666728571,None,365.9252666728571,None,365.9252666728571,None,f,2.6023833681829274,365.9252666728571,None,None,None,None,None,None,,,,,,,,,,,,,,pilot1,2022_Jun_16_1024,Hippopolis_4AFCT,2021.1.2,59.999813475294616,
Camponello,stimuli/subj_files/pilot1_cityB.csv,./stimuli/leipzig.jpg,./stimuli/street_plate2.png,KÁRÁSZ UTCA,stimuli/objects/005a.jpg,object,0,stimuli/objects/005a.jpg,stimuli/objects/087a.jpg,stimuli/objects/087b.jpg,stimuli/objects/005a.jpg,stimuli/objects/005b.jpg,dist1,dist2,target,lure,0,0,0,1,0,75,75,47,,,,,,,,,,,dist2,368.5655844467692,None,369.6039421330206,None,369.6039421330206,None,369.6039421330206,None,369.6039421330206,None,369.6039421330206,None,369.6039421330206,None,369.6039421330206,None,369.6039421330206,None,369.6039421330206,None,369.6039421330206,None,369.6039421330206,None,j,2.7794866897165775,369.6039421330206,None,None,None,None,None,None,,,,,,,,,,,,,,pilot1,2022_Jun_16_1024,Hippopolis_4AFCT,2021.1.2,59.999813475294616,
Camponello,stimuli/subj_files/pilot1_cityB.csv,./stimuli/leipzig.jpg,./stimuli/street_plate2.png,SZALVÉTA UTCA,stimuli/scenes/098a.jpg,scene,2,stimuli/objects/043a.jpg,stimuli/objects/003a.jpg,stimuli/objects/043b.jpg,stimuli/objects/043a.jpg,stimuli/objects/003b.jpg,dist1,lure,target,dist2,0,0,0,1,0,76,76,23,,,,,,,,,,,target,372.43550065532327,None,373.4692523339763,None,373.4692523339763,None,373.4692523339763,None,373.4692523339763,None,373.4692523339763,None,373.4692523339763,None,373.4692523339763,None,373.4692523339763,None,373.4692523339763,None,373.4692523339763,None,373.4692523339763,None,j,3.138381757773459,373.4692523339763,None,None,None,None,None,None,,,,,,,,,,,,,,pilot1,2022_Jun_16_1024,Hippopolis_4AFCT,2021.1.2,59.999813475294616,
Camponello,stimuli/subj_files/pilot1_cityB.csv,./stimuli/leipzig.jpg,./stimuli/street_plate2.png,ZONGORA UTCA,stimuli/scenes/110a.jpg,scene,2,stimuli/objects/074a.jpg,stimuli/scenes/048a.jpg,stimuli/objects/074a.jpg,stimuli/objects/074b.jpg,stimuli/scenes/048b.jpg,dist1,target,lure,dist2,0,0,0,1,0,77,77,21,,,,,,,,,,,lure,376.6293784286827,None,377.6773913144134,None,377.6773913144134,None,377.6773913144134,None,377.6773913144134,None,377.6773913144134,None,377.6773913144134,None,377.6773913144134,None,377.6773913144134,None,377.6773913144134,None,377.6773913144134,None,377.6773913144134,None,f,3.9379125111736357,377.6773913144134,None,None,None,None,None,None,,,,,,,,,,,,,,pilot1,2022_Jun_16_1024,Hippopolis_4AFCT,2021.1.2,59.999813475294616,
Camponello,stimuli/subj_files/pilot1_cityB.csv,./stimuli/leipzig.jpg,./stimuli/street_plate2.png,LEVÉL UTCA,stimuli/objects/008a.jpg,object,0,stimuli/objects/008a.jpg,stimuli/objects/008b.jpg,stimuli/objects/008a.jpg,stimuli/objects/103a.jpg,stimuli/objects/103b.jpg,lure,target,dist1,dist2,0,0,0,1,0,78,78,41,,,,,,,,,,,target,381.6610376550816,None,382.7115538325161,None,382.7115538325161,None,382.7115538325161,None,382.7115538325161,None,382.7115538325161,None,382.7115538325161,None,382.7115538325161,None,382.7115538325161,None,382.7115538325161,None,382.7115538325161,None,382.7115538325161,None,d,2.7276546433568,382.7115538325161,None,None,None,None,None,None,,,,,,,,,,,,,,pilot1,2022_Jun_16_1024,Hippopolis_4AFCT,2021.1.2,59.999813475294616,
Camponello,stimuli/subj_files/pilot1_cityB.csv,./stimuli/leipzig.jpg,./stimuli/street_plate2.png,PÁLMAFA UTCA,stimuli/scenes/074a.jpg,scene,2,stimuli/objects/067a.jpg,stimuli/objects/067a.jpg,stimuli/scenes/053a.jpg,stimuli/objects/067b.jpg,stimuli/scenes/053b.jpg,target,dist1,lure,dist2,0,0,0,1,0,79,79,25,,,,,,,,,,,target,385.4842384974472,None,386.5221949853003,None,386.5221949853003,None,386.5221949853003,None,386.5221949853003,None,386.5221949853003,None,386.5221949853003,None,386.5221949853003,None,386.5221949853003,None,386.5221949853003,None,386.5221949853003,None,386.5221949853003,None,None,,386.5221949853003,None,391.48594592371956,None,space,391.48594592371956,None,86.25656799226999,,,,,,,,,,,,,pilot1,2022_Jun_16_1024,Hippopolis_4AFCT,2021.1.2,59.999813475294616,
Hippopolis,stimuli/subj_files/pilot1_cityA.csv,./stimuli/frankfurt.jpg,./stimuli/street_plate1.png,TÁBLA UTCA,stimuli/objects/118a.jpg,object,1,stimuli/objects/042a.jpg,stimuli/scenes/084a.jpg,stimuli/scenes/084b.jpg,stimuli/objects/042a.jpg,stimuli/objects/042b.jpg,dist1,dist2,target,lure,0,1,1,0,0,0,0,78,,,,,,,479.7620836943388,None,479.7620836943388,None,invalid,482.75768886040896,None,483.8000174788758,None,483.8000174788758,None,483.8000174788758,None,483.8000174788758,None,483.8000174788758,None,483.8000174788758,None,483.8000174788758,None,483.8000174788758,None,483.8000174788758,None,483.8000174788758,None,483.8000174788758,None,j,3.1101501351222396,483.8000174788758,None,None,None,None,None,None,,18,23,18,16,477.76379112061113,None,space,1.9144075666554272,477.76379112061113,None,,,pilot1,2022_Jun_16_1024,Hippopolis_4AFCT,2021.1.2,59.999813475294616,
Hippopolis,stimuli/subj_files/pilot1_cityA.csv,./stimuli/frankfurt.jpg,./stimuli/street_plate1.png,MANDARIN UTCA,stimuli/scenes/047a.jpg,scene,1,stimuli/scenes/024a.jpg,stimuli/scenes/024a.jpg,stimuli/scenes/024b.jpg,stimuli/scenes/069a.jpg,stimuli/scenes/069b.jpg,target,lure,dist1,dist2,0,1,1,0,0,1,1,60,,,,,,,,,,,dist1,486.94710648804903,None,487.9816191997379,None,487.9816191997379,None,487.9816191997379,None,487.9816191997379,None,487.9816191997379,None,487.9816191997379,None,487.9816191997379,None,487.9816191997379,None,487.9816191997379,None,487.9816191997379,None,487.9816191997379,None,d,1.6808173628523946,487.9816191997379,None,None,None,None,None,None,,,,,,,,,,,,,,pilot1,2022_Jun_16_1024,Hippopolis_4AFCT,2021.1.2,59.999813475294616,
Hippopolis,stimuli/subj_files/pilot1_cityA.csv,./stimuli/frankfurt.jpg,./stimuli/street_plate1.png,GYŰRŰ UTCA,stimuli/scenes/007a.jpg,scene,0,stimuli/scenes/007a.jpg,stimuli/scenes/076a.jpg,stimuli/scenes/007b.jpg,stimuli/scenes/007a.jpg,stimuli/scenes/076b.jpg,dist1,lure,target,dist2,0,1,1,0,0,2,2,76,,,,,,,,,,,dist1,489.7007270711474,None,490.7391889449209,None,490.7391889449209,None,490.7391889449209,None,490.7391889449209,None,490.7391889449209,None,490.7391889449209,None,490.7391889449209,None,490.7391889449209,None,490.7391889449209,None,490.7391889449209,None,490.7391889449209,None,j,2.5548099344596267,490.7391889449209,None,None,None,None,None,None,,,,,,,,,,,,,,pilot1,2022_Jun_16_1024,Hippopolis_4AFCT,2021.1.2,59.999813475294616,
Hippopolis,stimuli/subj_files/pilot1_cityA.csv,./stimuli/frankfurt.jpg,./stimuli/street_plate1.png,DOBOZ UTCA,stimuli/scenes/030a.jpg,scene,1,stimuli/scenes/060a.jpg,stimuli/scenes/051a.jpg,stimuli/scenes/060b.jpg,stimuli/scenes/060a.jpg,stimuli/scenes/051b.jpg,dist1,lure,target,dist2,0,1,1,0,0,3,3,21,,,,,,,,,,,target,493.3362792916596,None,494.38747875066474,None,494.38747875066474,None,494.38747875066474,None,494.38747875066474,None,494.38747875066474,None,494.38747875066474,None,494.38747875066474,None,494.38747875066474,None,494.38747875066474,None,494.38747875066474,None,494.38747875066474,None,j,2.650937093887478,494.38747875066474,None,None,None,None,None,None,,,,,,,,,,,,,,pilot1,2022_Jun_16_1024,Hippopolis_4AFCT,2021.1.2,59.999813475294616,
Hippopolis,stimuli/subj_files/pilot1_cityA.csv,./stimuli/frankfurt.jpg,./stimuli/street_plate1.png,RIBIZLI UTCA,stimuli/scenes/017a.jpg,scene,0,stimuli/scenes/017a.jpg,stimuli/scenes/068b.jpg,stimuli/scenes/017a.jpg,stimuli/scenes/068a.jpg,stimuli/scenes/017b.jpg,dist2,target,dist1,lure,0,1,1,0,0,4,4,37,,,,,,,,,,,dist1,497.0721286474727,None,498.12510177725926,None,498.12510177725926,None,498.12510177725926,None,498.12510177725926,None,498.12510177725926,None,498.12510177725926,None,498.12510177725926,None,498.12510177725926,None,498.12510177725926,None,498.12510177725926,None,498.12510177725926,None,f,3.2969201640225947,498.12510177725926,None,None,None,None,None,None,,,,,,,,,,,,,,pilot1,2022_Jun_16_1024,Hippopolis_4AFCT,2021.1.2,59.999813475294616,
Hippopolis,stimuli/subj_files/pilot1_cityA.csv,./stimuli/frankfurt.jpg,./stimuli/street_plate1.png,SZŐNYEG UTCA,stimuli/scenes/044a.jpg,scene,0,stimuli/scenes/044a.jpg,stimuli/scenes/044a.jpg,stimuli/scenes/004b.jpg,stimuli/scenes/004a.jpg,stimuli/scenes/044b.jpg,target,dist2,dist1,lure,0,1,1,0,0,5,5,11,,,,,,,,,,,dist2,501.46651672013104,None,502.49624677281827,None,502.49624677281827,None,502.49624677281827,None,502.49624677281827,None,502.49624677281827,None,502.49624677281827,None,502.49624677281827,None,502.49624677281827,None,502.49624677281827,None,502.49624677281827,None,502.49624677281827,None,d,1.7096728645265102,502.49624677281827,None,None,None,None,None,None,,,,,,,,,,,,,,pilot1,2022_Jun_16_1024,Hippopolis_4AFCT,2021.1.2,59.999813475294616,
Hippopolis,stimuli/subj_files/pilot1_cityA.csv,./stimuli/frankfurt.jpg,./stimuli/street_plate1.png,POHÁR UTCA,stimuli/scenes/062a.jpg,scene,1,stimuli/scenes/064a.jpg,stimuli/scenes/064a.jpg,stimuli/scenes/006b.jpg,stimuli/scenes/006a.jpg,stimuli/scenes/064b.jpg,target,dist2,dist1,lure,0,1,1,0,0,6,6,38,,,,,,,,,,,target,504.24884010106325,None,505.2815645248629,None,505.2815645248629,None,505.2815645248629,None,505.2815645248629,None,505.2815645248629,None,505.2815645248629,None,505.2815645248629,None,505.2815645248629,None,505.2815645248629,None,505.2815645248629,None,505.2815645248629,None,j,2.412511048838496,505.2815645248629,None,None,None,None,None,None,,,,,,,,,,,,,,pilot1,2022_Jun_16_1024,Hippopolis_4AFCT,2021.1.2,59.999813475294616,
Hippopolis,stimuli/subj_files/pilot1_cityA.csv,./stimuli/frankfurt.jpg,./stimuli/street_plate1.png,KOKTÉL UTCA,stimuli/scenes/106a.jpg,scene,1,stimuli/scenes/096a.jpg,stimuli/scenes/096a.jpg,stimuli/scenes/096b.jpg,stimuli/objects/042a.jpg,stimuli/objects/042b.jpg,target,lure,dist1,dist2,0,1,1,0,0,7,7,44,,,,,,,,,,,dist1,507.72632757853717,None,508.78965753829107,None,508.78965753829107,None,508.78965753829107,None,508.78965753829107,None,508.78965753829107,None,508.78965753829107,None,508.78965753829107,None,508.78965753829107,None,508.78965753829107,None,508.78965753829107,None,508.78965753829107,None,d,4.2482504323124886,508.78965753829107,None,None,None,None,None,None,,,,,,,,,,,,,,pilot1,2022_Jun_16_1024,Hippopolis_4AFCT,2021.1.2,59.999813475294616,
Hippopolis,stimuli/subj_files/pilot1_cityA.csv,./stimuli/frankfurt.jpg,./stimuli/street_plate1.png,KOCKA UTCA,stimuli/scenes/002a.jpg,scene,0,stimuli/scenes/002a.jpg,stimuli/scenes/072a.jpg,stimuli/scenes/002b.jpg,stimuli/scenes/072b.jpg,stimuli/scenes/002a.jpg,dist1,lure,dist2,target,0,1,1,0,0,8,8,73,,,,,,,,,,,dist1,513.0711449333467,None,514.1224541780539,None,514.1224541780539,None,514.1224541780539,None,514.1224541780539,None,514.1224541780539,None,514.1224541780539,None,514.1224541780539,None,514.1224541780539,None,514.1224541780539,None,514.1224541780539,None,514.1224541780539,None,k,2.115394950378686,514.1224541780539,None,None,None,None,None,None,,,,,,,,,,,,,,pilot1,2022_Jun_16_1024,Hippopolis_4AFCT,2021.1.2,59.999813475294616,
Hippopolis,stimuli/subj_files/pilot1_cityA.csv,./stimuli/frankfurt.jpg,./stimuli/street_plate1.png,DARU UTCA,stimuli/scenes/035a.jpg,scene,1,stimuli/scenes/080a.jpg,stimuli/scenes/080b.jpg,stimuli/objects/010b.jpg,stimuli/objects/010a.jpg,stimuli/scenes/080a.jpg,lure,dist2,dist1,target,0,1,1,0,0,9,9,41,,,,,,,,,,,target,516.2620924026705,None,517.3156001525931,None,517.3156001525931,None,517.3156001525931,None,517.3156001525931,None,517.3156001525931,None,517.3156001525931,None,517.3156001525931,None,517.3156001525931,None,517.3156001525931,None,517.3156001525931,None,517.3156001525931,None,k,1.418354551307857,517.3156001525931,None,None,None,None,None,None,,,,,,,,,,,,,,pilot1,2022_Jun_16_1024,Hippopolis_4AFCT,2021.1.2,59.999813475294616,
Hippopolis,stimuli/subj_files/pilot1_cityA.csv,./stimuli/frankfurt.jpg,./stimuli/street_plate1.png,TENISZ UTCA,stimuli/objects/089a.jpg,object,2,stimuli/scenes/120a.jpg,stimuli/objects/040a.jpg,stimuli/objects/040b.jpg,stimuli/scenes/120b.jpg,stimuli/scenes/120a.jpg,dist1,dist2,lure,target,0,1,1,0,0,10,10,0,,,,,,,,,,,target,518.7653162968345,None,519.8154035964981,None,519.8154035964981,None,519.8154035964981,None,519.8154035964981,None,519.8154035964981,None,519.8154035964981,None,519.8154035964981,None,519.8154035964981,None,519.8154035964981,None,519.8154035964981,None,519.8154035964981,None,k,1.7823106292635202,519.8154035964981,None,None,None,None,None,None,,,,,,,,,,,,,,pilot1,2022_Jun_16_1024,Hippopolis_4AFCT,2021.1.2,59.999813475294616,
Hippopolis,stimuli/subj_files/pilot1_cityA.csv,./stimuli/frankfurt.jpg,./stimuli/street_plate1.png,KULACS UTCA,stimuli/objects/045a.jpg,object,1,stimuli/objects/073a.jpg,stimuli/objects/073a.jpg,stimuli/objects/073b.jpg,stimuli/scenes/002a.jpg,stimuli/scenes/002b.jpg,target,lure,dist1,dist2,0,1,1,0,0,11,11,51,,,,,,,,,,,dist2,521.6494902912527,None,522.7042202972807,None,522.7042202972807,None,522.7042202972807,None,522.7042202972807,None,522.7042202972807,None,522.7042202972807,None,522.7042202972807,None,522.7042202972807,None,522.7042202972807,None,522.7042202972807,None,522.7042202972807,None,f,3.3738364465534687,522.7042202972807,None,None,None,None,None,None,,,,,,,,,,,,,,pilot1,2022_Jun_16_1024,Hippopolis_4AFCT,2021.1.2,59.999813475294616,
Hippopolis,stimuli/subj_files/pilot1_cityA.csv,./stimuli/frankfurt.jpg,./stimuli/street_plate1.png,VITORLA UTCA,stimuli/scenes/086a.jpg,scene,2,stimuli/objects/015a.jpg,stimuli/objects/015b.jpg,stimuli/objects/115a.jpg,stimuli/objects/015a.jpg,stimuli/objects/115b.jpg,lure,dist1,target,dist2,0,1,1,0,0,12,12,77,,,,,,,,,,,dist1,526.1056175255217,None,527.1473151114769,None,527.1473151114769,None,527.1473151114769,None,527.1473151114769,None,527.1473151114769,None,527.1473151114769,None,527.1473151114769,None,527.1473151114769,None,527.1473151114769,None,527.1473151114769,None,527.1473151114769,None,f,2.402378142811358,527.1473151114769,None,None,None,None,None,None,,,,,,,,,,,,,,pilot1,2022_Jun_16_1024,Hippopolis_4AFCT,2021.1.2,59.999813475294616,
Hippopolis,stimuli/subj_files/pilot1_cityA.csv,./stimuli/frankfurt.jpg,./stimuli/street_plate1.png,MARTINI UTCA,stimuli/scenes/069a.jpg,scene,0,stimuli/scenes/069a.jpg,stimuli/objects/065a.jpg,stimuli/scenes/069b.jpg,stimuli/scenes/069a.jpg,stimuli/objects/065b.jpg,dist1,lure,target,dist2,0,1,1,0,0,13,13,54,,,,,,,,,,,lure,529.5760177848861,None,530.6277132993564,None,530.6277132993564,None,530.6277132993564,None,530.6277132993564,None,530.6277132993564,None,530.6277132993564,None,530.6277132993564,None,530.6277132993564,None,530.6277132993564,None,530.6277132993564,None,530.6277132993564,None,j,4.073867795988917,530.6277132993564,None,None,None,None,None,None,,,,,,,,,,,,,,pilot1,2022_Jun_16_1024,Hippopolis_4AFCT,2021.1.2,59.999813475294616,
Hippopolis,stimuli/subj_files/pilot1_cityA.csv,./stimuli/frankfurt.jpg,./stimuli/street_plate1.png,ASZTAL UTCA,stimuli/objects/016a.jpg,object,0,stimuli/objects/016a.jpg,stimuli/objects/016a.jpg,stimuli/scenes/046b.jpg,stimuli/scenes/046a.jpg,stimuli/objects/016b.jpg,target,dist2,dist1,lure,0,1,1,0,0,14,14,56,,,,,,,,,,,dist1,534.7507680309936,None,535.7887646383606,None,535.7887646383606,None,535.7887646383606,None,535.7887646383606,None,535.7887646383606,None,535.7887646383606,None,535.7887646383606,None,535.7887646383606,None,535.7887646383606,None,535.7887646383606,None,535.7887646383606,None,d,1.6647796863690019,535.7887646383606,None,None,None,None,None,None,,,,,,,,,,,,,,pilot1,2022_Jun_16_1024,Hippopolis_4AFCT,2021.1.2,59.999813475294616,
Hippopolis,stimuli/subj_files/pilot1_cityA.csv,./stimuli/frankfurt.jpg,./stimuli/street_plate1.png,TÖLCSÉR UTCA,stimuli/scenes/068a.jpg,scene,0,stimuli/scenes/068a.jpg,stimuli/objects/039a.jpg,stimuli/scenes/068a.jpg,stimuli/scenes/068b.jpg,stimuli/objects/039b.jpg,dist1,target,lure,dist2,0,1,1,0,0,15,15,46,,,,,,,,,,,dist1,537.5039221043698,None,538.5393019025214,None,538.5393019025214,None,538.5393019025214,None,538.5393019025214,None,538.5393019025214,None,538.5393019025214,None,538.5393019025214,None,538.5393019025214,None,538.5393019025214,None,538.5393019025214,None,538.5393019025214,None,d,4.306608329992741,538.5393019025214,None,None,None,None,None,None,,,,,,,,,,,,,,pilot1,2022_Jun_16_1024,Hippopolis_4AFCT,2021.1.2,59.999813475294616,
Hippopolis,stimuli/subj_files/pilot1_cityA.csv,./stimuli/frankfurt.jpg,./stimuli/street_plate1.png,FÜZET UTCA,stimuli/scenes/008a.jpg,scene,2,stimuli/objects/024a.jpg,stimuli/objects/024b.jpg,stimuli/scenes/117a.jpg,stimuli/objects/024a.jpg,stimuli/scenes/117b.jpg,lure,dist1,target,dist2,0,1,1,0,0,16,16,69,,,,,,,,,,,lure,542.8814921849407,None,543.9481996763498,None,543.9481996763498,None,543.9481996763498,None,543.9481996763498,None,543.9481996763498,None,543.9481996763498,None,543.9481996763498,None,543.9481996763498,None,543.9481996763498,None,543.9481996763498,None,543.9481996763498,None,f,0.017329908907413483,543.9481996763498,None,None,None,None,None,None,,,,,,,,,,,,,,pilot1,2022_Jun_16_1024,Hippopolis_4AFCT,2021.1.2,59.999813475294616,
Hippopolis,stimuli/subj_files/pilot1_cityA.csv,./stimuli/frankfurt.jpg,./stimuli/street_plate1.png,SIVATAG UTCA,stimuli/scenes/085a.jpg,scene,2,stimuli/objects/038a.jpg,stimuli/objects/012b.jpg,stimuli/objects/038a.jpg,stimuli/objects/038b.jpg,stimuli/objects/012a.jpg,dist2,target,lure,dist1,0,1,1,0,0,17,17,35,,,,,,,,,,,target,543.9984661154449,None,545.066540481057,None,545.066540481057,None,545.066540481057,None,545.066540481057,None,545.066540481057,None,545.066540481057,None,545.066540481057,None,545.066540481057,None,545.066540481057,None,545.066540481057,None,545.066540481057,None,f,3.2989059407263994,545.066540481057,None,None,None,None,None,None,,,,,,,,,,,,,,pilot1,2022_Jun_16_1024,Hippopolis_4AFCT,2021.1.2,59.999813475294616,
Hippopolis,stimuli/subj_files/pilot1_cityA.csv,./stimuli/frankfurt.jpg,./stimuli/street_plate1.png,HARMONIKA UTCA,stimuli/scenes/028a.jpg,scene,2,stimuli/objects/099a.jpg,stimuli/objects/099a.jpg,stimuli/objects/015b.jpg,stimuli/objects/015a.jpg,stimuli/objects/099b.jpg,target,dist2,dist1,lure,0,1,1,0,0,18,18,63,,,,,,,,,,,dist2,548.4155094632879,None,549.4616214763373,None,549.4616214763373,None,549.4616214763373,None,549.4616214763373,None,549.4616214763373,None,549.4616214763373,None,549.4616214763373,None,549.4616214763373,None,549.4616214763373,None,549.4616214763373,None,549.4616214763373,None,d,3.7841471238061786,549.4616214763373,None,None,None,None,None,None,,,,,,,,,,,,,,pilot1,2022_Jun_16_1024,Hippopolis_4AFCT,2021.1.2,59.999813475294616,
Hippopolis,stimuli/subj_files/pilot1_cityA.csv,./stimuli/frankfurt.jpg,./stimuli/street_plate1.png,EGÉR UTCA,stimuli/objects/013a.jpg,object,1,stimuli/objects/080a.jpg,stimuli/scenes/070a.jpg,stimuli/objects/080a.jpg,stimuli/objects/080b.jpg,stimuli/scenes/070b.jpg,dist1,target,lure,dist2,0,1,1,0,0,19,19,34,,,,,,,,,,,dist1,553.2806243519299,None,554.3384709549136,None,554.3384709549136,None,554.3384709549136,None,554.3384709549136,None,554.3384709549136,None,554.3384709549136,None,554.3384709549136,None,554.3384709549136,None,554.3384709549136,None,554.3384709549136,None,554.3384709549136,None,j,2.8752064309082925,554.3384709549136,None,None,None,None,None,None,,,,,,,,,,,,,,pilot1,2022_Jun_16_1024,Hippopolis_4AFCT,2021.1.2,59.999813475294616,
Hippopolis,stimuli/subj_files/pilot1_cityA.csv,./stimuli/frankfurt.jpg,./stimuli/street_plate1.png,MENTA UTCA,stimuli/objects/088a.jpg,object,1,stimuli/objects/054a.jpg,stimuli/scenes/088b.jpg,stimuli/scenes/088a.jpg,stimuli/objects/054b.jpg,stimuli/objects/054a.jpg,dist2,dist1,lure,target,0,1,1,0,0,20,20,26,,,,,,,,,,,lure,557.2527441666462,None,558.300129130017,None,558.300129130017,None,558.300129130017,None,558.300129130017,None,558.300129130017,None,558.300129130017,None,558.300129130017,None,558.300129130017,None,558.300129130017,None,558.300129130017,None,558.300129130017,None,k,1.9531736043281853,558.300129130017,None,None,None,None,None,None,,,,,,,,,,,,,,pilot1,2022_Jun_16_1024,Hippopolis_4AFCT,2021.1.2,59.999813475294616,
Hippopolis,stimuli/subj_files/pilot1_cityA.csv,./stimuli/frankfurt.jpg,./stimuli/street_plate1.png,KÁRTYA UTCA,stimuli/scenes/079a.jpg,scene,1,stimuli/scenes/094a.jpg,stimuli/scenes/094a.jpg,stimuli/scenes/105a.jpg,stimuli/scenes/105b.jpg,stimuli/scenes/094b.jpg,target,dist1,dist2,lure,0,1,1,0,0,21,21,30,,,,,,,,,,,lure,560.2764043034986,None,561.3375342031941,None,561.3375342031941,None,561.3375342031941,None,561.3375342031941,None,561.3375342031941,None,561.3375342031941,None,561.3375342031941,None,561.3375342031941,None,561.3375342031941,None,561.3375342031941,None,561.3375342031941,None,d,1.6997710368596017,561.3375342031941,None,None,None,None,None,None,,,,,,,,,,,,,,pilot1,2022_Jun_16_1024,Hippopolis_4AFCT,2021.1.2,59.999813475294616,
Hippopolis,stimuli/subj_files/pilot1_cityA.csv,./stimuli/frankfurt.jpg,./stimuli/street_plate1.png,EPER UTCA,stimuli/objects/028a.jpg,object,1,stimuli/objects/062a.jpg,stimuli/objects/062a.jpg,stimuli/objects/047b.jpg,stimuli/objects/062b.jpg,stimuli/objects/047a.jpg,target,dist2,lure,dist1,0,1,1,0,0,22,22,39,,,,,,,,,,,target,563.0642113527283,None,564.1100039621815,None,564.1100039621815,None,564.1100039621815,None,564.1100039621815,None,564.1100039621815,None,564.1100039621815,None,564.1100039621815,None,564.1100039621815,None,564.1100039621815,None,564.1100039621815,None,564.1100039621815,None,f,2.831369430758059,564.1100039621815,None,None,None,None,None,None,,,,,,,,,,,,,,pilot1,2022_Jun_16_1024,Hippopolis_4AFCT,2021.1.2,59.999813475294616,
Hippopolis,stimuli/subj_files/pilot1_cityA.csv,./stimuli/frankfurt.jpg,./stimuli/street_plate1.png,SZITAKÖTŐ UTCA,stimuli/objects/064a.jpg,object,0,stimuli/objects/064a.jpg,stimuli/objects/037b.jpg,stimuli/objects/064a.jpg,stimuli/objects/064b.jpg,stimuli/objects/037a.jpg,dist2,target,lure,dist1,0,1,1,0,0,23,23,3,,,,,,,,,,,target,566.9965577791445,None,568.0530312880874,None,568.0530312880874,None,568.0530312880874,None,568.0530312880874,None,568.0530312880874,None,568.0530312880874,None,568.0530312880874,None,568.0530312880874,None,568.0530312880874,None,568.0530312880874,None,568.0530312880874,None,j,4.792536214925349,568.0530312880874,None,None,None,None,None,None,,,,,,,,,,,,,,pilot1,2022_Jun_16_1024,Hippopolis_4AFCT,2021.1.2,59.999813475294616,
Hippopolis,stimuli/subj_files/pilot1_cityA.csv,./stimuli/frankfurt.jpg,./stimuli/street_plate1.png,KESELYŰ UTCA,stimuli/scenes/027a.jpg,scene,2,stimuli/objects/101a.jpg,stimuli/scenes/044a.jpg,stimuli/objects/101a.jpg,stimuli/objects/101b.jpg,stimuli/scenes/044b.jpg,dist1,target,lure,dist2,0,1,1,0,0,24,24,4,,,,,,,,,,,lure,572.8884842349216,None,573.9280514256097,None,573.9280514256097,None,573.9280514256097,None,573.9280514256097,None,573.9280514256097,None,573.9280514256097,None,573.9280514256097,None,573.9280514256097,None,573.9280514256097,None,573.9280514256097,None,573.9280514256097,None,None,,573.9280514256097,None,None,None,None,None,None,,,,,,,,,,,,,,pilot1,2022_Jun_16_1024,Hippopolis_4AFCT,2021.1.2,59.999813475294616,
Hippopolis,stimuli/subj_files/pilot1_cityA.csv,./stimuli/frankfurt.jpg,./stimuli/street_plate1.png,BÚJÓCSKA UTCA,stimuli/objects/025a.jpg,object,2,stimuli/scenes/001a.jpg,stimuli/scenes/096b.jpg,stimuli/scenes/001a.jpg,stimuli/scenes/096a.jpg,stimuli/scenes/001b.jpg,dist2,target,dist1,lure,0,1,1,0,0,25,25,7,,,,,,,,,,,invalid,578.9027330013923,None,579.9514266806655,None,579.9514266806655,None,579.9514266806655,None,579.9514266806655,None,579.9514266806655,None,579.9514266806655,None,579.9514266806655,None,579.9514266806655,None,579.9514266806655,None,579.9514266806655,None,579.9514266806655,None,f,2.2057457845658064,579.9514266806655,None,None,None,None,None,None,,,,,,,,,,,,,,pilot1,2022_Jun_16_1024,Hippopolis_4AFCT,2021.1.2,59.999813475294616,
Hippopolis,stimuli/subj_files/pilot1_cityA.csv,./stimuli/frankfurt.jpg,./stimuli/street_plate1.png,TÉRKÉP UTCA,stimuli/scenes/061a.jpg,scene,2,stimuli/objects/065a.jpg,stimuli/objects/065a.jpg,stimuli/scenes/060b.jpg,stimuli/scenes/060a.jpg,stimuli/objects/065b.jpg,target,dist2,dist1,lure,0,1,1,0,0,26,26,72,,,,,,,,,,,dist2,582.1984461490065,None,583.2493703672662,None,583.2493703672662,None,583.2493703672662,None,583.2493703672662,None,583.2493703672662,None,583.2493703672662,None,583.2493703672662,None,583.2493703672662,None,583.2493703672662,None,583.2493703672662,None,583.2493703672662,None,d,3.1955873761326075,583.2493703672662,None,None,None,None,None,None,,,,,,,,,,,,,,pilot1,2022_Jun_16_1024,Hippopolis_4AFCT,2021.1.2,59.999813475294616,
Hippopolis,stimuli/subj_files/pilot1_cityA.csv,./stimuli/frankfurt.jpg,./stimuli/street_plate1.png,TOLMÁCS UTCA,stimuli/objects/049a.jpg,object,2,stimuli/scenes/097a.jpg,stimuli/scenes/097b.jpg,stimuli/scenes/077a.jpg,stimuli/scenes/097a.jpg,stimuli/scenes/077b.jpg,lure,dist1,target,dist2,0,1,1,0,0,27,27,23,,,,,,,,,,,lure,586.4852651301771,None,587.5194428879768,None,587.5194428879768,None,587.5194428879768,None,587.5194428879768,None,587.5194428879768,None,587.5194428879768,None,587.5194428879768,None,587.5194428879768,None,587.5194428879768,None,587.5194428879768,None,587.5194428879768,None,j,3.3259398778900504,587.5194428879768,None,None,None,None,None,None,,,,,,,,,,,,,,pilot1,2022_Jun_16_1024,Hippopolis_4AFCT,2021.1.2,59.999813475294616,
Hippopolis,stimuli/subj_files/pilot1_cityA.csv,./stimuli/frankfurt.jpg,./stimuli/street_plate1.png,BICIKLI UTCA,stimuli/objects/027a.jpg,object,2,stimuli/scenes/026a.jpg,stimuli/scenes/029b.jpg,stimuli/scenes/026b.jpg,stimuli/scenes/029a.jpg,stimuli/scenes/026a.jpg,dist2,lure,dist1,target,0,1,1,0,0,28,28,47,,,,,,,,,,,dist1,590.8785055885091,None,591.9229195062071,None,591.9229195062071,None,591.9229195062071,None,591.9229195062071,None,591.9229195062071,None,591.9229195062071,None,591.9229195062071,None,591.9229195062071,None,591.9229195062071,None,591.9229195062071,None,591.9229195062071,None,k,2.633986923843622,591.9229195062071,None,None,None,None,None,None,,,,,,,,,,,,,,pilot1,2022_Jun_16_1024,Hippopolis_4AFCT,2021.1.2,59.999813475294616,
Hippopolis,stimuli/subj_files/pilot1_cityA.csv,./stimuli/frankfurt.jpg,./stimuli/street_plate1.png,FIÓK UTCA,stimuli/objects/012a.jpg,object,0,stimuli/objects/012a.jpg,stimuli/objects/012a.jpg,stimuli/objects/024b.jpg,stimuli/objects/012b.jpg,stimuli/objects/024a.jpg,target,dist2,lure,dist1,0,1,1,0,0,29,29,31,,,,,,,,,,,dist1,594.5831183758564,None,595.640837777406,None,595.640837777406,None,595.640837777406,None,595.640837777406,None,595.640837777406,None,595.640837777406,None,595.640837777406,None,595.640837777406,None,595.640837777406,None,595.640837777406,None,595.640837777406,None,d,3.7001585513353348,595.640837777406,None,None,None,None,None,None,,,,,,,,,,,,,,pilot1,2022_Jun_16_1024,Hippopolis_4AFCT,2021.1.2,59.999813475294616,
Hippopolis,stimuli/subj_files/pilot1_cityA.csv,./stimuli/frankfurt.jpg,./stimuli/street_plate1.png,TEHÉN UTCA,stimuli/objects/006a.jpg,object,1,stimuli/objects/017a.jpg,stimuli/objects/017a.jpg,stimuli/objects/017b.jpg,stimuli/scenes/113b.jpg,stimuli/scenes/113a.jpg,target,lure,dist2,dist1,0,1,1,0,0,30,30,28,,,,,,,,,,,target,599.3872921466827,None,600.4306617039256,None,600.4306617039256,None,600.4306617039256,None,600.4306617039256,None,600.4306617039256,None,600.4306617039256,None,600.4306617039256,None,600.4306617039256,None,600.4306617039256,None,600.4306617039256,None,600.4306617039256,None,d,2.3500948259606957,600.4306617039256,None,None,None,None,None,None,,,,,,,,,,,,,,pilot1,2022_Jun_16_1024,Hippopolis_4AFCT,2021.1.2,59.999813475294616,
Hippopolis,stimuli/subj_files/pilot1_cityA.csv,./stimuli/frankfurt.jpg,./stimuli/street_plate1.png,POLIP UTCA,stimuli/objects/039a.jpg,object,0,stimuli/objects/039a.jpg,stimuli/objects/101a.jpg,stimuli/objects/039b.jpg,stimuli/objects/101b.jpg,stimuli/objects/039a.jpg,dist1,lure,dist2,target,0,1,1,0,0,31,31,12,,,,,,,,,,,dist1,602.8221399988979,None,603.8690512995236,None,603.8690512995236,None,603.8690512995236,None,603.8690512995236,None,603.8690512995236,None,603.8690512995236,None,603.8690512995236,None,603.8690512995236,None,603.8690512995236,None,603.8690512995236,None,603.8690512995236,None,k,2.0797361796721816,603.8690512995236,None,None,None,None,None,None,,,,,,,,,,,,,,pilot1,2022_Jun_16_1024,Hippopolis_4AFCT,2021.1.2,59.999813475294616,
Hippopolis,stimuli/subj_files/pilot1_cityA.csv,./stimuli/frankfurt.jpg,./stimuli/street_plate1.png,KÖTÉNY UTCA,stimuli/scenes/108a.jpg,scene,2,stimuli/objects/066a.jpg,stimuli/objects/072b.jpg,stimuli/objects/072a.jpg,stimuli/objects/066b.jpg,stimuli/objects/066a.jpg,dist2,dist1,lure,target,0,1,1,0,0,32,32,36,,,,,,,,,,,target,605.9959702878259,None,607.0791940949857,None,607.0791940949857,None,607.0791940949857,None,607.0791940949857,None,607.0791940949857,None,607.0791940949857,None,607.0791940949857,None,607.0791940949857,None,607.0791940949857,None,607.0791940949857,None,607.0791940949857,None,j,4.229618027806282,607.0791940949857,None,None,None,None,None,None,,,,,,,,,,,,,,pilot1,2022_Jun_16_1024,Hippopolis_4AFCT,2021.1.2,59.999813475294616,
Hippopolis,stimuli/subj_files/pilot1_cityA.csv,./stimuli/frankfurt.jpg,./stimuli/street_plate1.png,ÁLOM UTCA,stimuli/scenes/031a.jpg,scene,1,stimuli/scenes/114a.jpg,stimuli/scenes/114b.jpg,stimuli/scenes/080b.jpg,stimuli/scenes/114a.jpg,stimuli/scenes/080a.jpg,lure,dist2,target,dist1,0,1,1,0,0,33,33,15,,,,,,,,,,,target,611.3446326171979,None,612.3890117020346,None,612.3890117020346,None,612.3890117020346,None,612.3890117020346,None,612.3890117020346,None,612.3890117020346,None,612.3890117020346,None,612.3890117020346,None,612.3890117020346,None,612.3890117020346,None,612.3890117020346,None,j,1.9116206369362772,612.3890117020346,None,None,None,None,None,None,,,,,,,,,,,,,,pilot1,2022_Jun_16_1024,Hippopolis_4AFCT,2021.1.2,59.999813475294616,
Hippopolis,stimuli/subj_files/pilot1_cityA.csv,./stimuli/frankfurt.jpg,./stimuli/street_plate1.png,KECSKE UTCA,stimuli/objects/011a.jpg,object,1,stimuli/objects/086a.jpg,stimuli/objects/086b.jpg,stimuli/objects/066a.jpg,stimuli/objects/086a.jpg,stimuli/objects/066b.jpg,lure,dist1,target,dist2,0,1,1,0,0,34,34,64,,,,,,,,,,,target,614.3483108924702,None,615.3939029024914,None,615.3939029024914,None,615.3939029024914,None,615.3939029024914,None,615.3939029024914,None,615.3939029024914,None,615.3939029024914,None,615.3939029024914,None,615.3939029024914,None,615.3939029024914,None,615.3939029024914,None,d,4.042718931566924,615.3939029024914,None,None,None,None,None,None,,,,,,,,,,,,,,pilot1,2022_Jun_16_1024,Hippopolis_4AFCT,2021.1.2,59.999813475294616,
Hippopolis,stimuli/subj_files/pilot1_cityA.csv,./stimuli/frankfurt.jpg,./stimuli/street_plate1.png,ÁLLOMÁS UTCA,stimuli/objects/041a.jpg,object,1,stimuli/objects/022a.jpg,stimuli/objects/022b.jpg,stimuli/objects/022a.jpg,stimuli/objects/062b.jpg,stimuli/objects/062a.jpg,lure,target,dist2,dist1,0,1,1,0,0,35,35,24,,,,,,,,,,,lure,619.480975727085,None,620.51921802992,None,620.51921802992,None,620.51921802992,None,620.51921802992,None,620.51921802992,None,620.51921802992,None,620.51921802992,None,620.51921802992,None,620.51921802992,None,620.51921802992,None,620.51921802992,None,f,3.84532087482512,620.51921802992,None,None,None,None,None,None,,,,,,,,,,,,,,pilot1,2022_Jun_16_1024,Hippopolis_4AFCT,2021.1.2,59.999813475294616,
Hippopolis,stimuli/subj_files/pilot1_cityA.csv,./stimuli/frankfurt.jpg,./stimuli/street_plate1.png,NARANCS UTCA,stimuli/scenes/103a.jpg,scene,2,stimuli/objects/097a.jpg,stimuli/objects/097b.jpg,stimuli/objects/046a.jpg,stimuli/objects/046b.jpg,stimuli/objects/097a.jpg,lure,dist1,dist2,target,0,1,1,0,0,36,36,13,,,,,,,,,,,dist1,624.4097685925663,None,625.4855525000021,None,625.4855525000021,None,625.4855525000021,None,625.4855525000021,None,625.4855525000021,None,625.4855525000021,None,625.4855525000021,None,625.4855525000021,None,625.4855525000021,None,625.4855525000021,None,625.4855525000021,None,d,4.782900298014283,625.4855525000021,None,None,None,None,None,None,,,,,,,,,,,,,,pilot1,2022_Jun_16_1024,Hippopolis_4AFCT,2021.1.2,59.999813475294616,
Hippopolis,stimuli/subj_files/pilot1_cityA.csv,./stimuli/frankfurt.jpg,./stimuli/street_plate1.png,TRIATLON UTCA,stimuli/objects/119a.jpg,object,2,stimuli/scenes/018a.jpg,stimuli/objects/017a.jpg,stimuli/objects/017b.jpg,stimuli/scenes/018b.jpg,stimuli/scenes/018a.jpg,dist1,dist2,lure,target,0,1,1,0,0,37,37,75,,,,,,,,,,,dist1,630.3132504979149,None,631.3789055431262,None,631.3789055431262,None,631.3789055431262,None,631.3789055431262,None,631.3789055431262,None,631.3789055431262,None,631.3789055431262,None,631.3789055431262,None,631.3789055431262,None,631.3789055431262,None,631.3789055431262,None,k,3.4819103023037314,631.3789055431262,None,None,None,None,None,None,,,,,,,,,,,,,,pilot1,2022_Jun_16_1024,Hippopolis_4AFCT,2021.1.2,59.999813475294616,
Hippopolis,stimuli/subj_files/pilot1_cityA.csv,./stimuli/frankfurt.jpg,./stimuli/street_plate1.png,MOTOR UTCA,stimuli/objects/111a.jpg,object,1,stimuli/objects/100a.jpg,stimuli/objects/055a.jpg,stimuli/objects/100b.jpg,stimuli/objects/100a.jpg,stimuli/objects/055b.jpg,dist1,lure,target,dist2,0,1,1,0,0,38,38,55,,,,,,,,,,,dist2,634.896889498923,None,635.9484630990773,None,635.9484630990773,None,635.9484630990773,None,635.9484630990773,None,635.9484630990773,None,635.9484630990773,None,635.9484630990773,None,635.9484630990773,None,635.9484630990773,None,635.9484630990773,None,635.9484630990773,None,j,1.8081008503213525,635.9484630990773,None,None,None,None,None,None,,,,,,,,,,,,,,pilot1,2022_Jun_16_1024,Hippopolis_4AFCT,2021.1.2,59.999813475294616,
Hippopolis,stimuli/subj_files/pilot1_cityA.csv,./stimuli/frankfurt.jpg,./stimuli/street_plate1.png,KULLANCS UTCA,stimuli/scenes/111a.jpg,scene,1,stimuli/scenes/084a.jpg,stimuli/scenes/084b.jpg,stimuli/scenes/084a.jpg,stimuli/objects/054a.jpg,stimuli/objects/054b.jpg,lure,target,dist1,dist2,0,1,1,0,0,39,39,68,,,,,,,,,,,dist1,637.7839148016647,None,638.8193888347596,None,638.8193888347596,None,638.8193888347596,None,638.8193888347596,None,638.8193888347596,None,638.8193888347596,None,638.8193888347596,None,638.8193888347596,None,638.8193888347596,None,638.8193888347596,None,638.8193888347596,None,d,2.792975667398423,638.8193888347596,None,641.6527008125558,None,space,641.6527008125558,None,31.67144735623151,,,,,,,,,,,,,pilot1,2022_Jun_16_1024,Hippopolis_4AFCT,2021.1.2,59.999813475294616,
Hippopolis,stimuli/subj_files/pilot1_cityA.csv,./stimuli/frankfurt.jpg,./stimuli/street_plate1.png,LÁNDZSA UTCA,stimuli/scenes/041a.jpg,scene,1,stimuli/scenes/116a.jpg,stimuli/scenes/116b.jpg,stimuli/scenes/116a.jpg,stimuli/objects/100a.jpg,stimuli/objects/100b.jpg,lure,target,dist1,dist2,0,1,1,0,0,40,40,32,,,,,,,,,,,lure,673.363567631226,None,674.4216145225801,None,674.4216145225801,None,674.4216145225801,None,674.4216145225801,None,674.4216145225801,None,674.4216145225801,None,674.4216145225801,None,674.4216145225801,None,674.4216145225801,None,674.4216145225801,None,674.4216145225801,None,f,2.8702912824228406,674.4216145225801,None,None,None,None,None,None,,,,,,,,,,,,,,pilot1,2022_Jun_16_1024,Hippopolis_4AFCT,2021.1.2,59.999813475294616,
Hippopolis,stimuli/subj_files/pilot1_cityA.csv,./stimuli/frankfurt.jpg,./stimuli/street_plate1.png,PAPRIKA UTCA,stimuli/scenes/118a.jpg,scene,0,stimuli/scenes/118a.jpg,stimuli/scenes/118a.jpg,stimuli/objects/068b.jpg,stimuli/scenes/118b.jpg,stimuli/objects/068a.jpg,target,dist2,lure,dist1,0,1,1,0,0,41,41,20,,,,,,,,,,,dist2,677.3195555345155,None,678.3630731310695,None,678.3630731310695,None,678.3630731310695,None,678.3630731310695,None,678.3630731310695,None,678.3630731310695,None,678.3630731310695,None,678.3630731310695,None,678.3630731310695,None,678.3630731310695,None,678.3630731310695,None,j,2.8009190866723657,678.3630731310695,None,None,None,None,None,None,,,,,,,,,,,,,,pilot1,2022_Jun_16_1024,Hippopolis_4AFCT,2021.1.2,59.999813475294616,
Hippopolis,stimuli/subj_files/pilot1_cityA.csv,./stimuli/frankfurt.jpg,./stimuli/street_plate1.png,LEPKE UTCA,stimuli/scenes/046a.jpg,scene,0,stimuli/scenes/046a.jpg,stimuli/scenes/094a.jpg,stimuli/scenes/046a.jpg,stimuli/scenes/046b.jpg,stimuli/scenes/094b.jpg,dist1,target,lure,dist2,0,1,1,0,0,42,42,61,,,,,,,,,,,lure,681.2085523079149,None,682.25426281197,None,682.25426281197,None,682.25426281197,None,682.25426281197,None,682.25426281197,None,682.25426281197,None,682.25426281197,None,682.25426281197,None,682.25426281197,None,682.25426281197,None,682.25426281197,None,f,1.7416636236011982,682.25426281197,None,None,None,None,None,None,,,,,,,,,,,,,,pilot1,2022_Jun_16_1024,Hippopolis_4AFCT,2021.1.2,59.999813475294616,
Hippopolis,stimuli/subj_files/pilot1_cityA.csv,./stimuli/frankfurt.jpg,./stimuli/street_plate1.png,KORONG UTCA,stimuli/objects/104a.jpg,object,0,stimuli/objects/104a.jpg,stimuli/objects/076b.jpg,stimuli/objects/104a.jpg,stimuli/objects/104b.jpg,stimuli/objects/076a.jpg,dist2,target,lure,dist1,0,1,1,0,0,43,43,5,,,,,,,,,,,target,684.0225741020404,None,685.0733126495034,None,685.0733126495034,None,685.0733126495034,None,685.0733126495034,None,685.0733126495034,None,685.0733126495034,None,685.0733126495034,None,685.0733126495034,None,685.0733126495034,None,685.0733126495034,None,685.0733126495034,None,f,1.2426436059176922,685.0733126495034,None,None,None,None,None,None,,,,,,,,,,,,,,pilot1,2022_Jun_16_1024,Hippopolis_4AFCT,2021.1.2,59.999813475294616,
Hippopolis,stimuli/subj_files/pilot1_cityA.csv,./stimuli/frankfurt.jpg,./stimuli/street_plate1.png,KENYÉR UTCA,stimuli/scenes/071a.jpg,scene,2,stimuli/objects/055a.jpg,stimuli/objects/033b.jpg,stimuli/objects/055a.jpg,stimuli/objects/055b.jpg,stimuli/objects/033a.jpg,dist2,target,lure,dist1,0,1,1,0,0,44,44,17,,,,,,,,,,,target,686.3444257979281,None,687.3844713168219,None,687.3844713168219,None,687.3844713168219,None,687.3844713168219,None,687.3844713168219,None,687.3844713168219,None,687.3844713168219,None,687.3844713168219,None,687.3844713168219,None,687.3844713168219,None,687.3844713168219,None,None,,687.3844713168219,None,None,None,None,None,None,,,,,,,,,,,,,,pilot1,2022_Jun_16_1024,Hippopolis_4AFCT,2021.1.2,59.999813475294616,
Hippopolis,stimuli/subj_files/pilot1_cityA.csv,./stimuli/frankfurt.jpg,./stimuli/street_plate1.png,KAKAS UTCA,stimuli/scenes/057a.jpg,scene,1,stimuli/scenes/076a.jpg,stimuli/scenes/076b.jpg,stimuli/objects/014b.jpg,stimuli/objects/014a.jpg,stimuli/scenes/076a.jpg,lure,dist2,dist1,target,0,1,1,0,0,45,45,18,,,,,,,,,,,invalid,692.3522488577291,None,693.4343135431409,None,693.4343135431409,None,693.4343135431409,None,693.4343135431409,None,693.4343135431409,None,693.4343135431409,None,693.4343135431409,None,693.4343135431409,None,693.4343135431409,None,693.4343135431409,None,693.4343135431409,None,k,3.6015165923163295,693.4343135431409,None,None,None,None,None,None,,,,,,,,,,,,,,pilot1,2022_Jun_16_1024,Hippopolis_4AFCT,2021.1.2,59.999813475294616,
Hippopolis,stimuli/subj_files/pilot1_cityA.csv,./stimuli/frankfurt.jpg,./stimuli/street_plate1.png,MÁLNA UTCA,stimuli/scenes/003a.jpg,scene,2,stimuli/objects/115a.jpg,stimuli/objects/115a.jpg,stimuli/objects/115b.jpg,stimuli/objects/086a.jpg,stimuli/objects/086b.jpg,target,lure,dist1,dist2,0,1,1,0,0,46,46,45,,,,,,,,,,,dist2,697.0673207966611,None,698.1111360262148,None,698.1111360262148,None,698.1111360262148,None,698.1111360262148,None,698.1111360262148,None,698.1111360262148,None,698.1111360262148,None,698.1111360262148,None,698.1111360262148,None,698.1111360262148,None,698.1111360262148,None,d,2.9085273649543524,698.1111360262148,None,None,None,None,None,None,,,,,,,,,,,,,,pilot1,2022_Jun_16_1024,Hippopolis_4AFCT,2021.1.2,59.999813475294616,
Hippopolis,stimuli/subj_files/pilot1_cityA.csv,./stimuli/frankfurt.jpg,./stimuli/street_plate1.png,TETŐ UTCA,stimuli/scenes/067a.jpg,scene,2,stimuli/objects/047a.jpg,stimuli/objects/047a.jpg,stimuli/objects/047b.jpg,stimuli/objects/097b.jpg,stimuli/objects/097a.jpg,target,lure,dist2,dist1,0,1,1,0,0,47,47,8,,,,,,,,,,,target,701.0638642692938,None,702.0969730974175,None,702.0969730974175,None,702.0969730974175,None,702.0969730974175,None,702.0969730974175,None,702.0969730974175,None,702.0969730974175,None,702.0969730974175,None,702.0969730974175,None,702.0969730974175,None,702.0969730974175,None,d,3.6588730490766466,702.0969730974175,None,None,None,None,None,None,,,,,,,,,,,,,,pilot1,2022_Jun_16_1024,Hippopolis_4AFCT,2021.1.2,59.999813475294616,
Hippopolis,stimuli/subj_files/pilot1_cityA.csv,./stimuli/frankfurt.jpg,./stimuli/street_plate1.png,KABÁT UTCA,stimuli/scenes/032a.jpg,scene,1,stimuli/scenes/105a.jpg,stimuli/scenes/105a.jpg,stimuli/scenes/024b.jpg,stimuli/scenes/024a.jpg,stimuli/scenes/105b.jpg,target,dist2,dist1,lure,0,1,1,0,0,48,48,50,,,,,,,,,,,target,705.8010145658627,None,706.8333129105158,None,706.8333129105158,None,706.8333129105158,None,706.8333129105158,None,706.8333129105158,None,706.8333129105158,None,706.8333129105158,None,706.8333129105158,None,706.8333129105158,None,706.8333129105158,None,706.8333129105158,None,d,3.562395385466516,706.8333129105158,None,None,None,None,None,None,,,,,,,,,,,,,,pilot1,2022_Jun_16_1024,Hippopolis_4AFCT,2021.1.2,59.999813475294616,
