CityName,StimuliFile,CityImage,StreetSign,Cue,Image,Category,Novelty,UpdateImage,TestImage1,TestImage2,TestImage3,TestImage4,TestImage1Type,TestImage2Type,TestImage3Type,TestImage4Type,CityBlock.thisRepN,CityBlock.thisTrialN,CityBlock.thisN,CityBlock.thisIndex,LearningTrials.thisRepN,LearningTrials.thisTrialN,LearningTrials.thisN,LearningTrials.thisIndex,cityname_text.started,cityname_text.stopped,city_image.started,city_image.stopped,plate_updating.started,plate_updating.stopped,city_text_updating.started,city_text_updating.stopped,street_text_updating.started,street_text_updating.stopped,test_image1.started,test_image1.stopped,test_image2.started,test_image2.stopped,test_image3.started,test_image3.stopped,test_image4.started,test_image4.stopped,button_d.started,button_d.stopped,button_f.started,button_f.stopped,button_j.started,button_j.stopped,button_k.started,button_k.stopped,key_resp.keys,key_resp.rt,key_resp.started,key_resp.stopped,test_resp,fx_cross.started,fx_cross.stopped,n_targets,n_lures,n_dist1s,n_dist2s,break_text.started,break_text.stopped,break_key_resp.keys,break_key_resp.rt,break_key_resp.started,break_key_resp.stopped,participant,date,expName,psychopyVersion,frameRate,
Hippopolis,stimuli/subj_files/pilot_cityA.csv,./stimuli/frankfurt.jpg,./stimuli/street_plate1.png,MOSODA,stimuli/objects/059a.jpg,object,1,stimuli/objects/064a.jpg,stimuli/objects/064b.jpg,stimuli/objects/064a.jpg,stimuli/scenes/016b.jpg,stimuli/scenes/016a.jpg,lure,target,dist2,dist1,0,0,0,1,0,0,0,11,12.996469764504582,None,12.996469764504582,None,15.980772640090436,None,15.980772640090436,None,15.980772640090436,None,15.980772640090436,None,15.980772640090436,None,15.980772640090436,None,15.980772640090436,None,15.980772640090436,None,15.980772640090436,None,15.980772640090436,None,15.980772640090436,None,f,1.9711339236237109,15.980772640090436,None,target,17.999335378874093,None,,,,,,,,,,,pilot,2022_Jun_14_1615,Hippopolis_4AFCT,2021.1.2,59.999813475294616,
Hippopolis,stimuli/subj_files/pilot_cityA.csv,./stimuli/frankfurt.jpg,./stimuli/street_plate1.png,SZOMSZÉD,stimuli/objects/066a.jpg,object,0,stimuli/objects/066a.jpg,stimuli/objects/066b.jpg,stimuli/scenes/011b.jpg,stimuli/scenes/011a.jpg,stimuli/objects/066a.jpg,lure,dist2,dist1,target,0,0,0,1,0,1,1,13,,,,,19.050447445362806,None,19.050447445362806,None,19.050447445362806,None,19.050447445362806,None,19.050447445362806,None,19.050447445362806,None,19.050447445362806,None,19.050447445362806,None,19.050447445362806,None,19.050447445362806,None,19.050447445362806,None,k,1.9257698813453317,19.050447445362806,None,target,21.011337123345584,None,,,,,,,,,,,pilot,2022_Jun_14_1615,Hippopolis_4AFCT,2021.1.2,59.999813475294616,
Hippopolis,stimuli/subj_files/pilot_cityA.csv,./stimuli/frankfurt.jpg,./stimuli/street_plate1.png,SZŐNYEG,stimuli/objects/076a.jpg,object,2,stimuli/scenes/044a.jpg,stimuli/scenes/044b.jpg,stimuli/objects/065a.jpg,stimuli/scenes/044a.jpg,stimuli/objects/065b.jpg,lure,dist1,target,dist2,0,0,0,1,0,2,2,47,,,,,22.064487526658922,None,22.064487526658922,None,22.064487526658922,None,22.064487526658922,None,22.064487526658922,None,22.064487526658922,None,22.064487526658922,None,22.064487526658922,None,22.064487526658922,None,22.064487526658922,None,22.064487526658922,None,j,1.3592956447973847,22.064487526658922,None,target,23.464006586000323,None,,,,,,,,,,,pilot,2022_Jun_14_1615,Hippopolis_4AFCT,2021.1.2,59.999813475294616,
Hippopolis,stimuli/subj_files/pilot_cityA.csv,./stimuli/frankfurt.jpg,./stimuli/street_plate1.png,HARCSA,stimuli/scenes/012a.jpg,scene,0,stimuli/scenes/012a.jpg,stimuli/scenes/060a.jpg,stimuli/scenes/012b.jpg,stimuli/scenes/012a.jpg,stimuli/scenes/060b.jpg,dist1,lure,target,dist2,0,0,0,1,0,3,3,12,,,,,24.509988909587264,None,24.509988909587264,None,24.509988909587264,None,24.509988909587264,None,24.509988909587264,None,24.509988909587264,None,24.509988909587264,None,24.509988909587264,None,24.509988909587264,None,24.509988909587264,None,24.509988909587264,None,j,1.2018939680419862,24.509988909587264,None,target,25.74143223511055,None,,,,,,,,,,,pilot,2022_Jun_14_1615,Hippopolis_4AFCT,2021.1.2,59.999813475294616,
Hippopolis,stimuli/subj_files/pilot_cityA.csv,./stimuli/frankfurt.jpg,./stimuli/street_plate1.png,FEJSZE,stimuli/objects/008a.jpg,object,1,stimuli/objects/098a.jpg,stimuli/objects/058a.jpg,stimuli/objects/098b.jpg,stimuli/objects/058b.jpg,stimuli/objects/098a.jpg,dist1,lure,dist2,target,0,0,0,1,0,4,4,44,,,,,26.81532428972423,None,26.81532428972423,None,26.81532428972423,None,26.81532428972423,None,26.81532428972423,None,26.81532428972423,None,26.81532428972423,None,26.81532428972423,None,26.81532428972423,None,26.81532428972423,None,26.81532428972423,None,f,1.5205553583800793,26.81532428972423,None,lure,28.35818317439407,None,,,,,,,,,,,pilot,2022_Jun_14_1615,Hippopolis_4AFCT,2021.1.2,59.999813475294616,
Hippopolis,stimuli/subj_files/pilot_cityA.csv,./stimuli/frankfurt.jpg,./stimuli/street_plate1.png,SZITAKÖTŐ,stimuli/objects/005a.jpg,object,1,stimuli/objects/010a.jpg,stimuli/objects/010b.jpg,stimuli/objects/010a.jpg,stimuli/objects/034b.jpg,stimuli/objects/034a.jpg,lure,target,dist2,dist1,0,0,0,1,0,5,5,3,,,,,29.419231900945306,None,29.419231900945306,None,29.419231900945306,None,29.419231900945306,None,29.419231900945306,None,29.419231900945306,None,29.419231900945306,None,29.419231900945306,None,29.419231900945306,None,29.419231900945306,None,29.419231900945306,None,f,1.588830322958529,29.419231900945306,None,target,31.036692867986858,None,,,,,,,,,,,pilot,2022_Jun_14_1615,Hippopolis_4AFCT,2021.1.2,59.999813475294616,
Hippopolis,stimuli/subj_files/pilot_cityA.csv,./stimuli/frankfurt.jpg,./stimuli/street_plate1.png,KOCKA,stimuli/objects/001a.jpg,object,0,stimuli/objects/001a.jpg,stimuli/objects/037b.jpg,stimuli/objects/037a.jpg,stimuli/objects/001a.jpg,stimuli/objects/001b.jpg,dist2,dist1,target,lure,0,0,0,1,0,6,6,55,,,,,32.10431565204635,None,32.10431565204635,None,32.10431565204635,None,32.10431565204635,None,32.10431565204635,None,32.10431565204635,None,32.10431565204635,None,32.10431565204635,None,32.10431565204635,None,32.10431565204635,None,32.10431565204635,None,j,1.8477538796141744,32.10431565204635,None,target,33.990146067459136,None,,,,,,,,,,,pilot,2022_Jun_14_1615,Hippopolis_4AFCT,2021.1.2,59.999813475294616,
Hippopolis,stimuli/subj_files/pilot_cityA.csv,./stimuli/frankfurt.jpg,./stimuli/street_plate1.png,TOLLTARTÓ,stimuli/objects/057a.jpg,object,0,stimuli/objects/057a.jpg,stimuli/scenes/077a.jpg,stimuli/objects/057a.jpg,stimuli/objects/057b.jpg,stimuli/scenes/077b.jpg,dist1,target,lure,dist2,0,0,0,1,0,7,7,2,,,,,35.05735365767032,None,35.05735365767032,None,35.05735365767032,None,35.05735365767032,None,35.05735365767032,None,35.05735365767032,None,35.05735365767032,None,35.05735365767032,None,35.05735365767032,None,35.05735365767032,None,35.05735365767032,None,f,2.526791973505169,35.05735365767032,None,target,37.61714156344533,None,,,,,,,,,,,pilot,2022_Jun_14_1615,Hippopolis_4AFCT,2021.1.2,59.999813475294616,
Hippopolis,stimuli/subj_files/pilot_cityA.csv,./stimuli/frankfurt.jpg,./stimuli/street_plate1.png,HÁRFA,stimuli/scenes/014a.jpg,scene,2,stimuli/objects/034a.jpg,stimuli/objects/017b.jpg,stimuli/objects/017a.jpg,stimuli/objects/034b.jpg,stimuli/objects/034a.jpg,dist2,dist1,lure,target,0,0,0,1,0,8,8,7,,,,,38.66736757196486,None,38.66736757196486,None,38.66736757196486,None,38.66736757196486,None,38.66736757196486,None,38.66736757196486,None,38.66736757196486,None,38.66736757196486,None,38.66736757196486,None,38.66736757196486,None,38.66736757196486,None,f,1.780345689971,38.66736757196486,None,dist1,40.47444645501673,None,,,,,,,,,,,pilot,2022_Jun_14_1615,Hippopolis_4AFCT,2021.1.2,59.999813475294616,
Hippopolis,stimuli/subj_files/pilot_cityA.csv,./stimuli/frankfurt.jpg,./stimuli/street_plate1.png,HARMONIKA,stimuli/scenes/001a.jpg,scene,2,stimuli/objects/097a.jpg,stimuli/scenes/028b.jpg,stimuli/objects/097a.jpg,stimuli/objects/097b.jpg,stimuli/scenes/028a.jpg,dist2,target,lure,dist1,0,0,0,1,0,9,9,20,,,,,41.5171028743498,None,41.5171028743498,None,41.5171028743498,None,41.5171028743498,None,41.5171028743498,None,41.5171028743498,None,41.5171028743498,None,41.5171028743498,None,41.5171028743498,None,41.5171028743498,None,41.5171028743498,None,f,3.4585776547901332,41.5171028743498,None,target,45.00337286666036,None,,,,,,,,,,,pilot,2022_Jun_14_1615,Hippopolis_4AFCT,2021.1.2,59.999813475294616,
Hippopolis,stimuli/subj_files/pilot_cityA.csv,./stimuli/frankfurt.jpg,./stimuli/street_plate1.png,RÁDIÓ,stimuli/objects/092a.jpg,object,0,stimuli/objects/092a.jpg,stimuli/objects/062b.jpg,stimuli/objects/092b.jpg,stimuli/objects/062a.jpg,stimuli/objects/092a.jpg,dist2,lure,dist1,target,0,0,0,1,0,10,10,6,,,,,46.07084356807172,None,46.07084356807172,None,46.07084356807172,None,46.07084356807172,None,46.07084356807172,None,46.07084356807172,None,46.07084356807172,None,46.07084356807172,None,46.07084356807172,None,46.07084356807172,None,46.07084356807172,None,k,2.472785991150886,46.07084356807172,None,target,48.58599829720333,None,,,,,,,,,,,pilot,2022_Jun_14_1615,Hippopolis_4AFCT,2021.1.2,59.999813475294616,
Hippopolis,stimuli/subj_files/pilot_cityA.csv,./stimuli/frankfurt.jpg,./stimuli/street_plate1.png,KAKAÓ,stimuli/objects/014a.jpg,object,1,stimuli/objects/031a.jpg,stimuli/objects/031a.jpg,stimuli/objects/031b.jpg,stimuli/scenes/065a.jpg,stimuli/scenes/065b.jpg,target,lure,dist1,dist2,0,0,0,1,0,11,11,4,,,,,49.638199819251895,None,49.638199819251895,None,49.638199819251895,None,49.638199819251895,None,49.638199819251895,None,49.638199819251895,None,49.638199819251895,None,49.638199819251895,None,49.638199819251895,None,49.638199819251895,None,49.638199819251895,None,d,1.7374009676277637,49.638199819251895,None,target,51.39975324738771,None,,,,,,,,,,,pilot,2022_Jun_14_1615,Hippopolis_4AFCT,2021.1.2,59.999813475294616,
Hippopolis,stimuli/subj_files/pilot_cityA.csv,./stimuli/frankfurt.jpg,./stimuli/street_plate1.png,KATONA,stimuli/scenes/085a.jpg,scene,1,stimuli/scenes/024a.jpg,stimuli/scenes/024b.jpg,stimuli/scenes/024a.jpg,stimuli/scenes/063b.jpg,stimuli/scenes/063a.jpg,lure,target,dist2,dist1,0,0,0,1,0,12,12,31,,,,,52.45048899576068,None,52.45048899576068,None,52.45048899576068,None,52.45048899576068,None,52.45048899576068,None,52.45048899576068,None,52.45048899576068,None,52.45048899576068,None,52.45048899576068,None,52.45048899576068,None,52.45048899576068,None,f,3.389187420718372,52.45048899576068,None,target,55.86873407289386,None,,,,,,,,,,,pilot,2022_Jun_14_1615,Hippopolis_4AFCT,2021.1.2,59.999813475294616,
Hippopolis,stimuli/subj_files/pilot_cityA.csv,./stimuli/frankfurt.jpg,./stimuli/street_plate1.png,BAGOLY,stimuli/scenes/018a.jpg,scene,0,stimuli/scenes/018a.jpg,stimuli/objects/040b.jpg,stimuli/scenes/018b.jpg,stimuli/scenes/018a.jpg,stimuli/objects/040a.jpg,dist2,lure,target,dist1,0,0,0,1,0,13,13,21,,,,,56.923851903993636,None,56.923851903993636,None,56.923851903993636,None,56.923851903993636,None,56.923851903993636,None,56.923851903993636,None,56.923851903993636,None,56.923851903993636,None,56.923851903993636,None,56.923851903993636,None,56.923851903993636,None,j,2.7079349597916007,56.923851903993636,None,target,59.670486968010664,None,,,,,,,,,,,pilot,2022_Jun_14_1615,Hippopolis_4AFCT,2021.1.2,59.999813475294616,
Hippopolis,stimuli/subj_files/pilot_cityA.csv,./stimuli/frankfurt.jpg,./stimuli/street_plate1.png,MÁRVÁNY,stimuli/objects/054a.jpg,object,0,stimuli/objects/054a.jpg,stimuli/scenes/020a.jpg,stimuli/objects/054b.jpg,stimuli/scenes/020b.jpg,stimuli/objects/054a.jpg,dist1,lure,dist2,target,0,0,0,1,0,14,14,33,,,,,60.7213747985661,None,60.7213747985661,None,60.7213747985661,None,60.7213747985661,None,60.7213747985661,None,60.7213747985661,None,60.7213747985661,None,60.7213747985661,None,60.7213747985661,None,60.7213747985661,None,60.7213747985661,None,k,1.6464094598777592,60.7213747985661,None,target,62.4068494848907,None,,,,,,,,,,,pilot,2022_Jun_14_1615,Hippopolis_4AFCT,2021.1.2,59.999813475294616,
Hippopolis,stimuli/subj_files/pilot_cityA.csv,./stimuli/frankfurt.jpg,./stimuli/street_plate1.png,TÖLCSÉR,stimuli/scenes/027a.jpg,scene,0,stimuli/scenes/027a.jpg,stimuli/objects/098b.jpg,stimuli/objects/098a.jpg,stimuli/scenes/027a.jpg,stimuli/scenes/027b.jpg,dist2,dist1,target,lure,0,0,0,1,0,15,15,5,,,,,63.44074733648449,None,63.44074733648449,None,63.44074733648449,None,63.44074733648449,None,63.44074733648449,None,63.44074733648449,None,63.44074733648449,None,63.44074733648449,None,63.44074733648449,None,63.44074733648449,None,63.44074733648449,None,j,3.8066077078692615,63.44074733648449,None,target,67.29175123479217,None,,,,,,,,,,,pilot,2022_Jun_14_1615,Hippopolis_4AFCT,2021.1.2,59.999813475294616,
Hippopolis,stimuli/subj_files/pilot_cityA.csv,./stimuli/frankfurt.jpg,./stimuli/street_plate1.png,ÁRNYÉK,stimuli/scenes/013a.jpg,scene,0,stimuli/scenes/013a.jpg,stimuli/scenes/067a.jpg,stimuli/scenes/013b.jpg,stimuli/scenes/067b.jpg,stimuli/scenes/013a.jpg,dist1,lure,dist2,target,0,0,0,1,0,16,16,17,,,,,68.3382436092943,None,68.3382436092943,None,68.3382436092943,None,68.3382436092943,None,68.3382436092943,None,68.3382436092943,None,68.3382436092943,None,68.3382436092943,None,68.3382436092943,None,68.3382436092943,None,68.3382436092943,None,k,2.9411472911015153,68.3382436092943,None,target,71.30591291934252,None,,,,,,,,,,,pilot,2022_Jun_14_1615,Hippopolis_4AFCT,2021.1.2,59.999813475294616,
Hippopolis,stimuli/subj_files/pilot_cityA.csv,./stimuli/frankfurt.jpg,./stimuli/street_plate1.png,OROSZLÁN,stimuli/objects/040a.jpg,object,0,stimuli/objects/040a.jpg,stimuli/objects/040a.jpg,stimuli/objects/040b.jpg,stimuli/objects/097a.jpg,stimuli/objects/097b.jpg,target,lure,dist1,dist2,0,0,0,1,0,17,17,45,,,,,72.35938303777948,None,72.35938303777948,None,72.35938303777948,None,72.35938303777948,None,72.35938303777948,None,72.35938303777948,None,72.35938303777948,None,72.35938303777948,None,72.35938303777948,None,72.35938303777948,None,72.35938303777948,None,d,2.18398745264858,72.35938303777948,None,target,74.57369860867038,None,,,,,,,,,,,pilot,2022_Jun_14_1615,Hippopolis_4AFCT,2021.1.2,59.999813475294616,
Hippopolis,stimuli/subj_files/pilot_cityA.csv,./stimuli/frankfurt.jpg,./stimuli/street_plate1.png,KESELYŰ,stimuli/scenes/070a.jpg,scene,1,stimuli/scenes/072a.jpg,stimuli/objects/092b.jpg,stimuli/scenes/072a.jpg,stimuli/scenes/072b.jpg,stimuli/objects/092a.jpg,dist2,target,lure,dist1,0,0,0,1,0,18,18,46,,,,,75.61528734210879,None,75.61528734210879,None,75.61528734210879,None,75.61528734210879,None,75.61528734210879,None,75.61528734210879,None,75.61528734210879,None,75.61528734210879,None,75.61528734210879,None,75.61528734210879,None,75.61528734210879,None,f,3.3600759604014456,75.61528734210879,None,target,79.0104308500886,None,,,,,,,,,,,pilot,2022_Jun_14_1615,Hippopolis_4AFCT,2021.1.2,59.999813475294616,
Hippopolis,stimuli/subj_files/pilot_cityA.csv,./stimuli/frankfurt.jpg,./stimuli/street_plate1.png,VÁSÁR,stimuli/objects/013a.jpg,object,1,stimuli/objects/069a.jpg,stimuli/objects/069b.jpg,stimuli/scenes/043a.jpg,stimuli/scenes/043b.jpg,stimuli/objects/069a.jpg,lure,dist1,dist2,target,0,0,0,1,0,19,19,22,,,,,80.04751776345074,None,80.04751776345074,None,80.04751776345074,None,80.04751776345074,None,80.04751776345074,None,80.04751776345074,None,80.04751776345074,None,80.04751776345074,None,80.04751776345074,None,80.04751776345074,None,80.04751776345074,None,k,2.751747701317072,80.04751776345074,None,target,82.83597357198596,None,,,,,,,,,,,pilot,2022_Jun_14_1615,Hippopolis_4AFCT,2021.1.2,59.999813475294616,
Hippopolis,stimuli/subj_files/pilot_cityA.csv,./stimuli/frankfurt.jpg,./stimuli/street_plate1.png,PULYKA,stimuli/objects/086a.jpg,object,2,stimuli/scenes/074a.jpg,stimuli/scenes/074b.jpg,stimuli/scenes/059b.jpg,stimuli/scenes/059a.jpg,stimuli/scenes/074a.jpg,lure,dist2,dist1,target,0,0,0,1,0,20,20,18,,,,,83.87824216624722,None,83.87824216624722,None,83.87824216624722,None,83.87824216624722,None,83.87824216624722,None,83.87824216624722,None,83.87824216624722,None,83.87824216624722,None,83.87824216624722,None,83.87824216624722,None,83.87824216624722,None,d,2.536903108470142,83.87824216624722,None,lure,86.45867593307048,None,,,,,,,,,,,pilot,2022_Jun_14_1615,Hippopolis_4AFCT,2021.1.2,59.999813475294616,
Hippopolis,stimuli/subj_files/pilot_cityA.csv,./stimuli/frankfurt.jpg,./stimuli/street_plate1.png,SZÖCSKE,stimuli/objects/035a.jpg,object,2,stimuli/scenes/059a.jpg,stimuli/objects/011a.jpg,stimuli/scenes/059b.jpg,stimuli/scenes/059a.jpg,stimuli/objects/011b.jpg,dist1,lure,target,dist2,0,0,0,1,0,21,21,53,,,,,87.54004551889375,None,87.54004551889375,None,87.54004551889375,None,87.54004551889375,None,87.54004551889375,None,87.54004551889375,None,87.54004551889375,None,87.54004551889375,None,87.54004551889375,None,87.54004551889375,None,87.54004551889375,None,d,2.0270028356462717,87.54004551889375,None,dist1,89.60438345139846,None,,,,,,,,,,,pilot,2022_Jun_14_1615,Hippopolis_4AFCT,2021.1.2,59.999813475294616,
Hippopolis,stimuli/subj_files/pilot_cityA.csv,./stimuli/frankfurt.jpg,./stimuli/street_plate1.png,MAJOM,stimuli/scenes/073a.jpg,scene,2,stimuli/objects/065a.jpg,stimuli/objects/065b.jpg,stimuli/scenes/074b.jpg,stimuli/scenes/074a.jpg,stimuli/objects/065a.jpg,lure,dist2,dist1,target,0,0,0,1,0,22,22,57,,,,,90.64009633753449,None,90.64009633753449,None,90.64009633753449,None,90.64009633753449,None,90.64009633753449,None,90.64009633753449,None,90.64009633753449,None,90.64009633753449,None,90.64009633753449,None,90.64009633753449,None,90.64009633753449,None,k,2.9429162964224815,90.64009633753449,None,target,93.61877185991034,None,,,,,,,,,,,pilot,2022_Jun_14_1615,Hippopolis_4AFCT,2021.1.2,59.999813475294616,
Hippopolis,stimuli/subj_files/pilot_cityA.csv,./stimuli/frankfurt.jpg,./stimuli/street_plate1.png,NARANCS,stimuli/scenes/016a.jpg,scene,0,stimuli/scenes/016a.jpg,stimuli/scenes/016b.jpg,stimuli/scenes/013a.jpg,stimuli/scenes/016a.jpg,stimuli/scenes/013b.jpg,lure,dist1,target,dist2,0,0,0,1,0,23,23,32,,,,,94.65997556736693,None,94.65997556736693,None,94.65997556736693,None,94.65997556736693,None,94.65997556736693,None,94.65997556736693,None,94.65997556736693,None,94.65997556736693,None,94.65997556736693,None,94.65997556736693,None,94.65997556736693,None,j,4.443103833124042,94.65997556736693,None,target,99.12638125801459,None,,,,,,,,,,,pilot,2022_Jun_14_1615,Hippopolis_4AFCT,2021.1.2,59.999813475294616,
Hippopolis,stimuli/subj_files/pilot_cityA.csv,./stimuli/frankfurt.jpg,./stimuli/street_plate1.png,EPER,stimuli/objects/085a.jpg,object,1,stimuli/objects/062a.jpg,stimuli/objects/007a.jpg,stimuli/objects/007b.jpg,stimuli/objects/062b.jpg,stimuli/objects/062a.jpg,dist1,dist2,lure,target,0,0,0,1,0,24,24,40,,,,,100.20294859120622,None,100.20294859120622,None,100.20294859120622,None,100.20294859120622,None,100.20294859120622,None,100.20294859120622,None,100.20294859120622,None,100.20294859120622,None,100.20294859120622,None,100.20294859120622,None,100.20294859120622,None,k,1.3640689738094807,100.20294859120622,None,target,101.59008647873998,None,,,,,,,,,,,pilot,2022_Jun_14_1615,Hippopolis_4AFCT,2021.1.2,59.999813475294616,
Hippopolis,stimuli/subj_files/pilot_cityA.csv,./stimuli/frankfurt.jpg,./stimuli/street_plate1.png,SZÁMOLÓGÉP,stimuli/scenes/038a.jpg,scene,0,stimuli/scenes/038a.jpg,stimuli/scenes/022a.jpg,stimuli/scenes/038b.jpg,stimuli/scenes/022b.jpg,stimuli/scenes/038a.jpg,dist1,lure,dist2,target,0,0,0,1,0,25,25,28,,,,,102.62438055267558,None,102.62438055267558,None,102.62438055267558,None,102.62438055267558,None,102.62438055267558,None,102.62438055267558,None,102.62438055267558,None,102.62438055267558,None,102.62438055267558,None,102.62438055267558,None,102.62438055267558,None,d,3.9185688346624374,102.62438055267558,None,dist1,106.58194432640448,None,,,,,,,,,,,pilot,2022_Jun_14_1615,Hippopolis_4AFCT,2021.1.2,59.999813475294616,
Hippopolis,stimuli/subj_files/pilot_cityA.csv,./stimuli/frankfurt.jpg,./stimuli/street_plate1.png,SZAXOFON,stimuli/objects/058a.jpg,object,0,stimuli/objects/058a.jpg,stimuli/objects/058b.jpg,stimuli/objects/058a.jpg,stimuli/scenes/038b.jpg,stimuli/scenes/038a.jpg,lure,target,dist2,dist1,0,0,0,1,0,26,26,52,,,,,107.63400745065883,None,107.63400745065883,None,107.63400745065883,None,107.63400745065883,None,107.63400745065883,None,107.63400745065883,None,107.63400745065883,None,107.63400745065883,None,107.63400745065883,None,107.63400745065883,None,107.63400745065883,None,f,1.6452945014461875,107.63400745065883,None,target,109.3174092778936,None,,,,,,,,,,,pilot,2022_Jun_14_1615,Hippopolis_4AFCT,2021.1.2,59.999813475294616,
Hippopolis,stimuli/subj_files/pilot_cityA.csv,./stimuli/frankfurt.jpg,./stimuli/street_plate1.png,KÓKUSZ,stimuli/objects/073a.jpg,object,0,stimuli/objects/073a.jpg,stimuli/scenes/044a.jpg,stimuli/objects/073a.jpg,stimuli/objects/073b.jpg,stimuli/scenes/044b.jpg,dist1,target,lure,dist2,0,0,0,1,0,27,27,27,,,,,110.35256701754406,None,110.35256701754406,None,110.35256701754406,None,110.35256701754406,None,110.35256701754406,None,110.35256701754406,None,110.35256701754406,None,110.35256701754406,None,110.35256701754406,None,110.35256701754406,None,110.35256701754406,None,f,2.0143370926380157,110.35256701754406,None,target,112.39220480667427,None,,,,,,,,,,,pilot,2022_Jun_14_1615,Hippopolis_4AFCT,2021.1.2,59.999813475294616,
Hippopolis,stimuli/subj_files/pilot_cityA.csv,./stimuli/frankfurt.jpg,./stimuli/street_plate1.png,BETON,stimuli/objects/056a.jpg,object,2,stimuli/scenes/056a.jpg,stimuli/scenes/056b.jpg,stimuli/scenes/084b.jpg,stimuli/scenes/084a.jpg,stimuli/scenes/056a.jpg,lure,dist2,dist1,target,0,0,0,1,0,28,28,59,,,,,113.43671202613041,None,113.43671202613041,None,113.43671202613041,None,113.43671202613041,None,113.43671202613041,None,113.43671202613041,None,113.43671202613041,None,113.43671202613041,None,113.43671202613041,None,113.43671202613041,None,113.43671202613041,None,k,2.0660888995043933,113.43671202613041,None,target,115.54534289427102,None,,,,,,,,,,,pilot,2022_Jun_14_1615,Hippopolis_4AFCT,2021.1.2,59.999813475294616,
Hippopolis,stimuli/subj_files/pilot_cityA.csv,./stimuli/frankfurt.jpg,./stimuli/street_plate1.png,FÉNYKÉP,stimuli/objects/079a.jpg,object,1,stimuli/objects/095a.jpg,stimuli/scenes/061a.jpg,stimuli/objects/095b.jpg,stimuli/objects/095a.jpg,stimuli/scenes/061b.jpg,dist1,lure,target,dist2,0,0,0,1,0,29,29,37,,,,,116.60462728049606,None,116.60462728049606,None,116.60462728049606,None,116.60462728049606,None,116.60462728049606,None,116.60462728049606,None,116.60462728049606,None,116.60462728049606,None,116.60462728049606,None,116.60462728049606,None,116.60462728049606,None,j,1.6982228462584317,116.60462728049606,None,target,118.3267911025323,None,,,,,,,,,,,pilot,2022_Jun_14_1615,Hippopolis_4AFCT,2021.1.2,59.999813475294616,
Hippopolis,stimuli/subj_files/pilot_cityA.csv,./stimuli/frankfurt.jpg,./stimuli/street_plate1.png,PULÓVER,stimuli/scenes/020a.jpg,scene,0,stimuli/scenes/020a.jpg,stimuli/objects/088b.jpg,stimuli/objects/088a.jpg,stimuli/scenes/020b.jpg,stimuli/scenes/020a.jpg,dist2,dist1,lure,target,0,0,0,1,0,30,30,39,,,,,119.36472146585584,None,119.36472146585584,None,119.36472146585584,None,119.36472146585584,None,119.36472146585584,None,119.36472146585584,None,119.36472146585584,None,119.36472146585584,None,119.36472146585584,None,119.36472146585584,None,119.36472146585584,None,k,2.202110117767006,119.36472146585584,None,target,121.59884629026055,None,,,,,,,,,,,pilot,2022_Jun_14_1615,Hippopolis_4AFCT,2021.1.2,59.999813475294616,
Hippopolis,stimuli/subj_files/pilot_cityA.csv,./stimuli/frankfurt.jpg,./stimuli/street_plate1.png,ZONGORA,stimuli/scenes/017a.jpg,scene,1,stimuli/scenes/053a.jpg,stimuli/scenes/053b.jpg,stimuli/objects/078b.jpg,stimuli/scenes/053a.jpg,stimuli/objects/078a.jpg,lure,dist2,target,dist1,0,0,0,1,0,31,31,25,,,,,122.65312067139894,None,122.65312067139894,None,122.65312067139894,None,122.65312067139894,None,122.65312067139894,None,122.65312067139894,None,122.65312067139894,None,122.65312067139894,None,122.65312067139894,None,122.65312067139894,None,122.65312067139894,None,j,3.489560130983591,122.65312067139894,None,target,126.16675675520673,None,,,,,,,,,,,pilot,2022_Jun_14_1615,Hippopolis_4AFCT,2021.1.2,59.999813475294616,
Hippopolis,stimuli/subj_files/pilot_cityA.csv,./stimuli/frankfurt.jpg,./stimuli/street_plate1.png,REPÜLŐ,stimuli/scenes/015a.jpg,scene,0,stimuli/scenes/015a.jpg,stimuli/scenes/015a.jpg,stimuli/objects/095b.jpg,stimuli/scenes/015b.jpg,stimuli/objects/095a.jpg,target,dist2,lure,dist1,0,0,0,1,0,32,32,35,,,,,127.19986060680822,None,127.19986060680822,None,127.19986060680822,None,127.19986060680822,None,127.19986060680822,None,127.19986060680822,None,127.19986060680822,None,127.19986060680822,None,127.19986060680822,None,127.19986060680822,None,127.19986060680822,None,d,2.4627970810979605,127.19986060680822,None,target,129.68594803847373,None,,,,,,,,,,,pilot,2022_Jun_14_1615,Hippopolis_4AFCT,2021.1.2,59.999813475294616,
Hippopolis,stimuli/subj_files/pilot_cityA.csv,./stimuli/frankfurt.jpg,./stimuli/street_plate1.png,LEPKE,stimuli/scenes/071a.jpg,scene,2,stimuli/objects/017a.jpg,stimuli/objects/017a.jpg,stimuli/scenes/027b.jpg,stimuli/objects/017b.jpg,stimuli/scenes/027a.jpg,target,dist2,lure,dist1,0,0,0,1,0,33,33,10,,,,,130.7267163367942,None,130.7267163367942,None,130.7267163367942,None,130.7267163367942,None,130.7267163367942,None,130.7267163367942,None,130.7267163367942,None,130.7267163367942,None,130.7267163367942,None,130.7267163367942,None,130.7267163367942,None,d,2.4399648439139128,130.7267163367942,None,target,133.1917629283853,None,,,,,,,,,,,pilot,2022_Jun_14_1615,Hippopolis_4AFCT,2021.1.2,59.999813475294616,
Hippopolis,stimuli/subj_files/pilot_cityA.csv,./stimuli/frankfurt.jpg,./stimuli/street_plate1.png,FOGÓ,stimuli/scenes/030a.jpg,scene,1,stimuli/scenes/089a.jpg,stimuli/scenes/089a.jpg,stimuli/scenes/050b.jpg,stimuli/scenes/050a.jpg,stimuli/scenes/089b.jpg,target,dist2,dist1,lure,0,0,0,1,0,34,34,36,,,,,134.22740552714095,None,134.22740552714095,None,134.22740552714095,None,134.22740552714095,None,134.22740552714095,None,134.22740552714095,None,134.22740552714095,None,134.22740552714095,None,134.22740552714095,None,134.22740552714095,None,134.22740552714095,None,d,3.6112591847777367,134.22740552714095,None,target,137.8690214427188,None,,,,,,,,,,,pilot,2022_Jun_14_1615,Hippopolis_4AFCT,2021.1.2,59.999813475294616,
Hippopolis,stimuli/subj_files/pilot_cityA.csv,./stimuli/frankfurt.jpg,./stimuli/street_plate1.png,SIRÁLY,stimuli/objects/042a.jpg,object,2,stimuli/scenes/028a.jpg,stimuli/objects/073a.jpg,stimuli/scenes/028a.jpg,stimuli/scenes/028b.jpg,stimuli/objects/073b.jpg,dist1,target,lure,dist2,0,0,0,1,0,35,35,30,,,,,138.92014283919707,None,138.92014283919707,None,138.92014283919707,None,138.92014283919707,None,138.92014283919707,None,138.92014283919707,None,138.92014283919707,None,138.92014283919707,None,138.92014283919707,None,138.92014283919707,None,138.92014283919707,None,f,3.0303352712653577,138.92014283919707,None,target,141.9932191236876,None,,,,,,,,,,,pilot,2022_Jun_14_1615,Hippopolis_4AFCT,2021.1.2,59.999813475294616,
Hippopolis,stimuli/subj_files/pilot_cityA.csv,./stimuli/frankfurt.jpg,./stimuli/street_plate1.png,EGÉR,stimuli/scenes/055a.jpg,scene,2,stimuli/objects/051a.jpg,stimuli/scenes/086b.jpg,stimuli/scenes/086a.jpg,stimuli/objects/051b.jpg,stimuli/objects/051a.jpg,dist2,dist1,lure,target,0,0,0,1,0,36,36,43,,,,,143.14359920471907,None,143.14359920471907,None,143.14359920471907,None,143.14359920471907,None,143.14359920471907,None,143.14359920471907,None,143.14359920471907,None,143.14359920471907,None,143.14359920471907,None,143.14359920471907,None,143.14359920471907,None,d,4.566885387059301,143.14359920471907,None,dist2,147.74073931248859,None,,,,,,,,,,,pilot,2022_Jun_14_1615,Hippopolis_4AFCT,2021.1.2,59.999813475294616,
Hippopolis,stimuli/subj_files/pilot_cityA.csv,./stimuli/frankfurt.jpg,./stimuli/street_plate1.png,KULACS,stimuli/scenes/035a.jpg,scene,2,stimuli/objects/009a.jpg,stimuli/objects/003a.jpg,stimuli/objects/009b.jpg,stimuli/objects/003b.jpg,stimuli/objects/009a.jpg,dist1,lure,dist2,target,0,0,0,1,0,37,37,24,,,,,148.79084744956344,None,148.79084744956344,None,148.79084744956344,None,148.79084744956344,None,148.79084744956344,None,148.79084744956344,None,148.79084744956344,None,148.79084744956344,None,148.79084744956344,None,148.79084744956344,None,148.79084744956344,None,f,3.639637602958828,148.79084744956344,None,lure,152.4561402965337,None,,,,,,,,,,,pilot,2022_Jun_14_1615,Hippopolis_4AFCT,2021.1.2,59.999813475294616,
Hippopolis,stimuli/subj_files/pilot_cityA.csv,./stimuli/frankfurt.jpg,./stimuli/street_plate1.png,DOMINÓ,stimuli/scenes/081a.jpg,scene,2,stimuli/objects/030a.jpg,stimuli/objects/030a.jpg,stimuli/scenes/066a.jpg,stimuli/objects/030b.jpg,stimuli/scenes/066b.jpg,target,dist1,lure,dist2,0,0,0,1,0,38,38,38,,,,,153.4956997120753,None,153.4956997120753,None,153.4956997120753,None,153.4956997120753,None,153.4956997120753,None,153.4956997120753,None,153.4956997120753,None,153.4956997120753,None,153.4956997120753,None,153.4956997120753,None,153.4956997120753,None,d,4.710687990300357,153.4956997120753,None,target,158.23880796181038,None,,,,,,,,,,,pilot,2022_Jun_14_1615,Hippopolis_4AFCT,2021.1.2,59.999813475294616,
Hippopolis,stimuli/subj_files/pilot_cityA.csv,./stimuli/frankfurt.jpg,./stimuli/street_plate1.png,GYŰRŰ,stimuli/scenes/057a.jpg,scene,1,stimuli/scenes/050a.jpg,stimuli/scenes/050b.jpg,stimuli/scenes/050a.jpg,stimuli/scenes/053a.jpg,stimuli/scenes/053b.jpg,lure,target,dist1,dist2,0,0,0,1,0,39,39,9,,,,,159.28174708597362,None,159.28174708597362,None,159.28174708597362,None,159.28174708597362,None,159.28174708597362,None,159.28174708597362,None,159.28174708597362,None,159.28174708597362,None,159.28174708597362,None,159.28174708597362,None,159.28174708597362,None,f,3.5325872697867453,159.28174708597362,None,target,162.84038955438882,None,,,,,,,,,,,pilot,2022_Jun_14_1615,Hippopolis_4AFCT,2021.1.2,59.999813475294616,
Hippopolis,stimuli/subj_files/pilot_cityA.csv,./stimuli/frankfurt.jpg,./stimuli/street_plate1.png,KESZTYŰ,stimuli/objects/038a.jpg,object,1,stimuli/objects/011a.jpg,stimuli/objects/031a.jpg,stimuli/objects/011a.jpg,stimuli/objects/031b.jpg,stimuli/objects/011b.jpg,dist1,target,dist2,lure,0,0,0,1,0,40,40,16,,,,,163.90277001122013,None,163.90277001122013,None,163.90277001122013,None,163.90277001122013,None,163.90277001122013,None,163.90277001122013,None,163.90277001122013,None,163.90277001122013,None,163.90277001122013,None,163.90277001122013,None,163.90277001122013,None,f,4.415742407087237,163.90277001122013,None,target,168.35271505638957,None,,,,,,,,,,,pilot,2022_Jun_14_1615,Hippopolis_4AFCT,2021.1.2,59.999813475294616,
Hippopolis,stimuli/subj_files/pilot_cityA.csv,./stimuli/frankfurt.jpg,./stimuli/street_plate1.png,SIVATAG,stimuli/scenes/033a.jpg,scene,2,stimuli/objects/037a.jpg,stimuli/objects/069a.jpg,stimuli/objects/037a.jpg,stimuli/objects/037b.jpg,stimuli/objects/069b.jpg,dist1,target,lure,dist2,0,0,0,1,0,41,41,49,,,,,169.38663187948987,None,169.38663187948987,None,169.38663187948987,None,169.38663187948987,None,169.38663187948987,None,169.38663187948987,None,169.38663187948987,None,169.38663187948987,None,169.38663187948987,None,169.38663187948987,None,169.38663187948987,None,f,1.331677948590368,169.38663187948987,None,target,170.7456877385266,None,,,,,,,,,,,pilot,2022_Jun_14_1615,Hippopolis_4AFCT,2021.1.2,59.999813475294616,
Hippopolis,stimuli/subj_files/pilot_cityA.csv,./stimuli/frankfurt.jpg,./stimuli/street_plate1.png,KOCSI,stimuli/scenes/087a.jpg,scene,1,stimuli/scenes/066a.jpg,stimuli/scenes/066b.jpg,stimuli/scenes/066a.jpg,stimuli/objects/001a.jpg,stimuli/objects/001b.jpg,lure,target,dist1,dist2,0,0,0,1,0,42,42,56,,,,,171.79489333415404,None,171.79489333415404,None,171.79489333415404,None,171.79489333415404,None,171.79489333415404,None,171.79489333415404,None,171.79489333415404,None,171.79489333415404,None,171.79489333415404,None,171.79489333415404,None,171.79489333415404,None,f,2.0111878397874534,171.79489333415404,None,target,173.84601379744709,None,,,,,,,,,,,pilot,2022_Jun_14_1615,Hippopolis_4AFCT,2021.1.2,59.999813475294616,
Hippopolis,stimuli/subj_files/pilot_cityA.csv,./stimuli/frankfurt.jpg,./stimuli/street_plate1.png,MUNKA,stimuli/scenes/077a.jpg,scene,0,stimuli/scenes/077a.jpg,stimuli/scenes/077b.jpg,stimuli/objects/096b.jpg,stimuli/objects/096a.jpg,stimuli/scenes/077a.jpg,lure,dist2,dist1,target,0,0,0,1,0,43,43,23,,,,,174.8961424608715,None,174.8961424608715,None,174.8961424608715,None,174.8961424608715,None,174.8961424608715,None,174.8961424608715,None,174.8961424608715,None,174.8961424608715,None,174.8961424608715,None,174.8961424608715,None,174.8961424608715,None,j,3.5820587766356766,174.8961424608715,None,dist1,178.5083847376518,None,,,,,,,,,,,pilot,2022_Jun_14_1615,Hippopolis_4AFCT,2021.1.2,59.999813475294616,
Hippopolis,stimuli/subj_files/pilot_cityA.csv,./stimuli/frankfurt.jpg,./stimuli/street_plate1.png,CSILLAG,stimuli/objects/041a.jpg,object,1,stimuli/objects/078a.jpg,stimuli/objects/078b.jpg,stimuli/objects/009b.jpg,stimuli/objects/078a.jpg,stimuli/objects/009a.jpg,lure,dist2,target,dist1,0,0,0,1,0,44,44,26,,,,,179.5687113068998,None,179.5687113068998,None,179.5687113068998,None,179.5687113068998,None,179.5687113068998,None,179.5687113068998,None,179.5687113068998,None,179.5687113068998,None,179.5687113068998,None,179.5687113068998,None,179.5687113068998,None,None,,179.5687113068998,None,invalid,184.5741187785752,None,,,,,,,,,,,pilot,2022_Jun_14_1615,Hippopolis_4AFCT,2021.1.2,59.999813475294616,
Hippopolis,stimuli/subj_files/pilot_cityA.csv,./stimuli/frankfurt.jpg,./stimuli/street_plate1.png,KULLANCS,stimuli/objects/019a.jpg,object,1,stimuli/objects/003a.jpg,stimuli/objects/003a.jpg,stimuli/objects/003b.jpg,stimuli/scenes/072a.jpg,stimuli/scenes/072b.jpg,target,lure,dist1,dist2,0,0,0,1,0,45,45,14,,,,,185.60736724874005,None,185.60736724874005,None,185.60736724874005,None,185.60736724874005,None,185.60736724874005,None,185.60736724874005,None,185.60736724874005,None,185.60736724874005,None,185.60736724874005,None,185.60736724874005,None,185.60736724874005,None,f,3.0626370371319354,185.60736724874005,None,lure,188.71387394191697,None,,,,,,,,,,,pilot,2022_Jun_14_1615,Hippopolis_4AFCT,2021.1.2,59.999813475294616,
Hippopolis,stimuli/subj_files/pilot_cityA.csv,./stimuli/frankfurt.jpg,./stimuli/street_plate1.png,SZILVA,stimuli/scenes/021a.jpg,scene,1,stimuli/scenes/061a.jpg,stimuli/objects/051b.jpg,stimuli/scenes/061b.jpg,stimuli/scenes/061a.jpg,stimuli/objects/051a.jpg,dist2,lure,target,dist1,0,0,0,1,0,46,46,8,,,,,189.76732757641003,None,189.76732757641003,None,189.76732757641003,None,189.76732757641003,None,189.76732757641003,None,189.76732757641003,None,189.76732757641003,None,189.76732757641003,None,189.76732757641003,None,189.76732757641003,None,189.76732757641003,None,j,2.502654130104929,189.76732757641003,None,target,192.3168018818833,None,,,,,,,,,,,pilot,2022_Jun_14_1615,Hippopolis_4AFCT,2021.1.2,59.999813475294616,
Hippopolis,stimuli/subj_files/pilot_cityA.csv,./stimuli/frankfurt.jpg,./stimuli/street_plate1.png,SALÁTA,stimuli/scenes/068a.jpg,scene,1,stimuli/scenes/065a.jpg,stimuli/scenes/089b.jpg,stimuli/scenes/089a.jpg,stimuli/scenes/065a.jpg,stimuli/scenes/065b.jpg,dist2,dist1,target,lure,0,0,0,1,0,47,47,1,,,,,193.36737963883206,None,193.36737963883206,None,193.36737963883206,None,193.36737963883206,None,193.36737963883206,None,193.36737963883206,None,193.36737963883206,None,193.36737963883206,None,193.36737963883206,None,193.36737963883206,None,193.36737963883206,None,j,2.454563492909074,193.36737963883206,None,target,195.84276440087706,None,,,,,,,,,,,pilot,2022_Jun_14_1615,Hippopolis_4AFCT,2021.1.2,59.999813475294616,
Hippopolis,stimuli/subj_files/pilot_cityA.csv,./stimuli/frankfurt.jpg,./stimuli/street_plate1.png,FOLYÓ,stimuli/objects/060a.jpg,object,2,stimuli/scenes/043a.jpg,stimuli/objects/066b.jpg,stimuli/scenes/043a.jpg,stimuli/objects/066a.jpg,stimuli/scenes/043b.jpg,dist2,target,dist1,lure,0,0,0,1,0,48,48,29,,,,,196.8882413385436,None,196.8882413385436,None,196.8882413385436,None,196.8882413385436,None,196.8882413385436,None,196.8882413385436,None,196.8882413385436,None,196.8882413385436,None,196.8882413385436,None,196.8882413385436,None,196.8882413385436,None,f,1.3336130320094526,196.8882413385436,None,target,198.27040902990848,None,,,,,,,,,,,pilot,2022_Jun_14_1615,Hippopolis_4AFCT,2021.1.2,59.999813475294616,
Hippopolis,stimuli/subj_files/pilot_cityA.csv,./stimuli/frankfurt.jpg,./stimuli/street_plate1.png,PETREZSELYEM,stimuli/objects/027a.jpg,object,2,stimuli/scenes/060a.jpg,stimuli/scenes/015b.jpg,stimuli/scenes/060b.jpg,stimuli/scenes/060a.jpg,stimuli/scenes/015a.jpg,dist2,lure,target,dist1,0,0,0,1,0,49,49,15,,,,,199.3151865140535,None,199.3151865140535,None,199.3151865140535,None,199.3151865140535,None,199.3151865140535,None,199.3151865140535,None,199.3151865140535,None,199.3151865140535,None,199.3151865140535,None,199.3151865140535,None,199.3151865140535,None,j,4.52273582527414,199.3151865140535,None,target,203.86770308576524,None,,,,,,,,,,,pilot,2022_Jun_14_1615,Hippopolis_4AFCT,2021.1.2,59.999813475294616,
Hippopolis,stimuli/subj_files/pilot_cityA.csv,./stimuli/frankfurt.jpg,./stimuli/street_plate1.png,BÚJÓCSKA,stimuli/objects/007a.jpg,object,0,stimuli/objects/007a.jpg,stimuli/objects/018b.jpg,stimuli/objects/007a.jpg,stimuli/objects/007b.jpg,stimuli/objects/018a.jpg,dist2,target,lure,dist1,0,0,0,1,0,50,50,48,,,,,204.9244014522992,None,204.9244014522992,None,204.9244014522992,None,204.9244014522992,None,204.9244014522992,None,204.9244014522992,None,204.9244014522992,None,204.9244014522992,None,204.9244014522992,None,204.9244014522992,None,204.9244014522992,None,f,2.689513106830418,204.9244014522992,None,target,207.64193936251104,None,,,,,,,,,,,pilot,2022_Jun_14_1615,Hippopolis_4AFCT,2021.1.2,59.999813475294616,
Hippopolis,stimuli/subj_files/pilot_cityA.csv,./stimuli/frankfurt.jpg,./stimuli/street_plate1.png,ELEFÁNT,stimuli/scenes/058a.jpg,scene,2,stimuli/objects/018a.jpg,stimuli/objects/018a.jpg,stimuli/scenes/018b.jpg,stimuli/objects/018b.jpg,stimuli/scenes/018a.jpg,target,dist2,lure,dist1,0,0,0,1,0,51,51,41,,,,,208.6775315781124,None,208.6775315781124,None,208.6775315781124,None,208.6775315781124,None,208.6775315781124,None,208.6775315781124,None,208.6775315781124,None,208.6775315781124,None,208.6775315781124,None,208.6775315781124,None,208.6775315781124,None,d,2.152224039193243,208.6775315781124,None,target,210.85604158276692,None,,,,,,,,,,,pilot,2022_Jun_14_1615,Hippopolis_4AFCT,2021.1.2,59.999813475294616,
Hippopolis,stimuli/subj_files/pilot_cityA.csv,./stimuli/frankfurt.jpg,./stimuli/street_plate1.png,MANDARIN,stimuli/objects/070a.jpg,object,2,stimuli/scenes/011a.jpg,stimuli/scenes/011b.jpg,stimuli/objects/030a.jpg,stimuli/objects/030b.jpg,stimuli/scenes/011a.jpg,lure,dist1,dist2,target,0,0,0,1,0,52,52,42,,,,,211.91266437480226,None,211.91266437480226,None,211.91266437480226,None,211.91266437480226,None,211.91266437480226,None,211.91266437480226,None,211.91266437480226,None,211.91266437480226,None,211.91266437480226,None,211.91266437480226,None,211.91266437480226,None,k,2.357018765527755,211.91266437480226,None,target,214.30850142752752,None,,,,,,,,,,,pilot,2022_Jun_14_1615,Hippopolis_4AFCT,2021.1.2,59.999813475294616,
Hippopolis,stimuli/subj_files/pilot_cityA.csv,./stimuli/frankfurt.jpg,./stimuli/street_plate1.png,MEDVE,stimuli/scenes/034a.jpg,scene,1,stimuli/scenes/022a.jpg,stimuli/scenes/022b.jpg,stimuli/scenes/012a.jpg,stimuli/scenes/012b.jpg,stimuli/scenes/022a.jpg,lure,dist1,dist2,target,0,0,0,1,0,53,53,0,,,,,215.35493253357708,None,215.35493253357708,None,215.35493253357708,None,215.35493253357708,None,215.35493253357708,None,215.35493253357708,None,215.35493253357708,None,215.35493253357708,None,215.35493253357708,None,215.35493253357708,None,215.35493253357708,None,k,3.6187908314168453,215.35493253357708,None,target,219.0001446180977,None,,,,,,,,,,,pilot,2022_Jun_14_1615,Hippopolis_4AFCT,2021.1.2,59.999813475294616,
Hippopolis,stimuli/subj_files/pilot_cityA.csv,./stimuli/frankfurt.jpg,./stimuli/street_plate1.png,FIÓK,stimuli/objects/023a.jpg,object,2,stimuli/scenes/067a.jpg,stimuli/scenes/067b.jpg,stimuli/scenes/067a.jpg,stimuli/objects/064a.jpg,stimuli/objects/064b.jpg,lure,target,dist1,dist2,0,0,0,1,0,54,54,54,,,,,220.04385348362848,None,220.04385348362848,None,220.04385348362848,None,220.04385348362848,None,220.04385348362848,None,220.04385348362848,None,220.04385348362848,None,220.04385348362848,None,220.04385348362848,None,220.04385348362848,None,220.04385348362848,None,f,3.8100847620517015,220.04385348362848,None,target,223.89334868872538,None,,,,,,,,,,,pilot,2022_Jun_14_1615,Hippopolis_4AFCT,2021.1.2,59.999813475294616,
Hippopolis,stimuli/subj_files/pilot_cityA.csv,./stimuli/frankfurt.jpg,./stimuli/street_plate1.png,ÁLOM,stimuli/scenes/062a.jpg,scene,2,stimuli/objects/096a.jpg,stimuli/objects/096b.jpg,stimuli/scenes/024a.jpg,stimuli/scenes/024b.jpg,stimuli/objects/096a.jpg,lure,dist1,dist2,target,0,0,0,1,0,55,55,51,,,,,224.93288197973743,None,224.93288197973743,None,224.93288197973743,None,224.93288197973743,None,224.93288197973743,None,224.93288197973743,None,224.93288197973743,None,224.93288197973743,None,224.93288197973743,None,224.93288197973743,None,224.93288197973743,None,None,,224.93288197973743,None,invalid,229.95075708348304,None,,,,,,,,,,,pilot,2022_Jun_14_1615,Hippopolis_4AFCT,2021.1.2,59.999813475294616,
Hippopolis,stimuli/subj_files/pilot_cityA.csv,./stimuli/frankfurt.jpg,./stimuli/street_plate1.png,KÁRÁSZ,stimuli/objects/020a.jpg,object,2,stimuli/scenes/084a.jpg,stimuli/objects/054a.jpg,stimuli/scenes/084b.jpg,stimuli/scenes/084a.jpg,stimuli/objects/054b.jpg,dist1,lure,target,dist2,0,0,0,1,0,56,56,58,,,,,230.98765645967796,None,230.98765645967796,None,230.98765645967796,None,230.98765645967796,None,230.98765645967796,None,230.98765645967796,None,230.98765645967796,None,230.98765645967796,None,230.98765645967796,None,230.98765645967796,None,230.98765645967796,None,j,2.145827255677432,230.98765645967796,None,target,233.17903436208144,None,,,,,,,,,,,pilot,2022_Jun_14_1615,Hippopolis_4AFCT,2021.1.2,59.999813475294616,
Hippopolis,stimuli/subj_files/pilot_cityA.csv,./stimuli/frankfurt.jpg,./stimuli/street_plate1.png,SÜTŐ,stimuli/scenes/080a.jpg,scene,1,stimuli/scenes/063a.jpg,stimuli/objects/057b.jpg,stimuli/objects/057a.jpg,stimuli/scenes/063a.jpg,stimuli/scenes/063b.jpg,dist2,dist1,target,lure,0,0,0,1,0,57,57,19,,,,,234.22770409332588,None,234.22770409332588,None,234.22770409332588,None,234.22770409332588,None,234.22770409332588,None,234.22770409332588,None,234.22770409332588,None,234.22770409332588,None,234.22770409332588,None,234.22770409332588,None,234.22770409332588,None,j,2.9697742029093206,234.22770409332588,None,target,237.2396778468974,None,,,,,,,,,,,pilot,2022_Jun_14_1615,Hippopolis_4AFCT,2021.1.2,59.999813475294616,
Hippopolis,stimuli/subj_files/pilot_cityA.csv,./stimuli/frankfurt.jpg,./stimuli/street_plate1.png,SZALVÉTA,stimuli/objects/074a.jpg,object,1,stimuli/objects/088a.jpg,stimuli/objects/088a.jpg,stimuli/objects/088b.jpg,stimuli/objects/010b.jpg,stimuli/objects/010a.jpg,target,lure,dist2,dist1,0,0,0,1,0,58,58,50,,,,,238.27718928456306,None,238.27718928456306,None,238.27718928456306,None,238.27718928456306,None,238.27718928456306,None,238.27718928456306,None,238.27718928456306,None,238.27718928456306,None,238.27718928456306,None,238.27718928456306,None,238.27718928456306,None,d,2.6162489745765924,238.27718928456306,None,target,240.92882738728076,None,,,,,,,,,,,pilot,2022_Jun_14_1615,Hippopolis_4AFCT,2021.1.2,59.999813475294616,
Hippopolis,stimuli/subj_files/pilot_cityA.csv,./stimuli/frankfurt.jpg,./stimuli/street_plate1.png,ÁLLOMÁS,stimuli/scenes/090a.jpg,scene,1,stimuli/scenes/086a.jpg,stimuli/scenes/086b.jpg,stimuli/scenes/056b.jpg,stimuli/scenes/056a.jpg,stimuli/scenes/086a.jpg,lure,dist2,dist1,target,0,0,0,1,0,59,59,34,,,,,241.9711438762024,None,241.9711438762024,None,241.9711438762024,None,241.9711438762024,None,241.9711438762024,None,241.9711438762024,None,241.9711438762024,None,241.9711438762024,None,241.9711438762024,None,241.9711438762024,None,241.9711438762024,None,k,2.682254212908447,241.9711438762024,None,target,244.6739854812622,None,,,,,,,,,,,pilot,2022_Jun_14_1615,Hippopolis_4AFCT,2021.1.2,59.999813475294616,
Camponello,stimuli/subj_files/pilot_cityB.csv,./stimuli/leipzig.jpg,./stimuli/street_plate2.png,TIGRIS,stimuli/scenes/003a.jpg,scene,2,stimuli/objects/084a.jpg,stimuli/objects/084b.jpg,stimuli/scenes/076b.jpg,stimuli/objects/084a.jpg,stimuli/scenes/076a.jpg,lure,dist2,target,dist1,0,1,1,0,0,0,0,45,279.29667757917196,None,279.29667757917196,None,282.36118221096694,None,282.36118221096694,None,282.36118221096694,None,282.36118221096694,None,282.36118221096694,None,282.36118221096694,None,282.36118221096694,None,282.36118221096694,None,282.36118221096694,None,282.36118221096694,None,282.36118221096694,None,j,2.035805255174637,282.36118221096694,None,target,284.4262217739597,None,49,4,4,1,245.68771393364295,None,space,33.541287990286946,245.68771393364295,None,pilot,2022_Jun_14_1615,Hippopolis_4AFCT,2021.1.2,59.999813475294616,
Camponello,stimuli/subj_files/pilot_cityB.csv,./stimuli/leipzig.jpg,./stimuli/street_plate2.png,KÖNYVTÁR,stimuli/objects/063a.jpg,object,1,stimuli/objects/045a.jpg,stimuli/objects/077a.jpg,stimuli/objects/045b.jpg,stimuli/objects/045a.jpg,stimuli/objects/077b.jpg,dist1,lure,target,dist2,0,1,1,0,0,1,1,19,,,,,285.47611811524257,None,285.47611811524257,None,285.47611811524257,None,285.47611811524257,None,285.47611811524257,None,285.47611811524257,None,285.47611811524257,None,285.47611811524257,None,285.47611811524257,None,285.47611811524257,None,285.47611811524257,None,j,3.592795656528324,285.47611811524257,None,target,289.11524038016796,None,,,,,,,,,,,pilot,2022_Jun_14_1615,Hippopolis_4AFCT,2021.1.2,59.999813475294616,
Camponello,stimuli/subj_files/pilot_cityB.csv,./stimuli/leipzig.jpg,./stimuli/street_plate2.png,KOKTÉL,stimuli/scenes/026a.jpg,scene,2,stimuli/objects/099a.jpg,stimuli/scenes/079b.jpg,stimuli/objects/099a.jpg,stimuli/scenes/079a.jpg,stimuli/objects/099b.jpg,dist2,target,dist1,lure,0,1,1,0,0,2,2,29,,,,,290.16530311014503,None,290.16530311014503,None,290.16530311014503,None,290.16530311014503,None,290.16530311014503,None,290.16530311014503,None,290.16530311014503,None,290.16530311014503,None,290.16530311014503,None,290.16530311014503,None,290.16530311014503,None,f,2.1995371603406966,290.16530311014503,None,target,292.399973439984,None,,,,,,,,,,,pilot,2022_Jun_14_1615,Hippopolis_4AFCT,2021.1.2,59.999813475294616,
Camponello,stimuli/subj_files/pilot_cityB.csv,./stimuli/leipzig.jpg,./stimuli/street_plate2.png,MOCSÁR,stimuli/objects/036a.jpg,object,2,stimuli/scenes/079a.jpg,stimuli/scenes/079a.jpg,stimuli/scenes/079b.jpg,stimuli/scenes/049a.jpg,stimuli/scenes/049b.jpg,target,lure,dist1,dist2,0,1,1,0,0,3,3,50,,,,,293.4359062081203,None,293.4359062081203,None,293.4359062081203,None,293.4359062081203,None,293.4359062081203,None,293.4359062081203,None,293.4359062081203,None,293.4359062081203,None,293.4359062081203,None,293.4359062081203,None,293.4359062081203,None,d,1.6968105654232204,293.4359062081203,None,target,295.17341478401795,None,,,,,,,,,,,pilot,2022_Jun_14_1615,Hippopolis_4AFCT,2021.1.2,59.999813475294616,
Camponello,stimuli/subj_files/pilot_cityB.csv,./stimuli/leipzig.jpg,./stimuli/street_plate2.png,PAPRIKA,stimuli/scenes/007a.jpg,scene,0,stimuli/scenes/007a.jpg,stimuli/scenes/007a.jpg,stimuli/objects/084b.jpg,stimuli/scenes/007b.jpg,stimuli/objects/084a.jpg,target,dist2,lure,dist1,0,1,1,0,0,4,4,52,,,,,296.21464710403234,None,296.21464710403234,None,296.21464710403234,None,296.21464710403234,None,296.21464710403234,None,296.21464710403234,None,296.21464710403234,None,296.21464710403234,None,296.21464710403234,None,296.21464710403234,None,296.21464710403234,None,d,1.8301347340457141,296.21464710403234,None,target,298.06808525091037,None,,,,,,,,,,,pilot,2022_Jun_14_1615,Hippopolis_4AFCT,2021.1.2,59.999813475294616,
Camponello,stimuli/subj_files/pilot_cityB.csv,./stimuli/leipzig.jpg,./stimuli/street_plate2.png,KIRAKÓ,stimuli/scenes/032a.jpg,scene,0,stimuli/scenes/032a.jpg,stimuli/scenes/032a.jpg,stimuli/scenes/064a.jpg,stimuli/scenes/032b.jpg,stimuli/scenes/064b.jpg,target,dist1,lure,dist2,0,1,1,0,0,5,5,46,,,,,299.1129009886645,None,299.1129009886645,None,299.1129009886645,None,299.1129009886645,None,299.1129009886645,None,299.1129009886645,None,299.1129009886645,None,299.1129009886645,None,299.1129009886645,None,299.1129009886645,None,299.1129009886645,None,d,1.5877980920486152,299.1129009886645,None,target,300.7398750251159,None,,,,,,,,,,,pilot,2022_Jun_14_1615,Hippopolis_4AFCT,2021.1.2,59.999813475294616,
Camponello,stimuli/subj_files/pilot_cityB.csv,./stimuli/leipzig.jpg,./stimuli/street_plate2.png,KABÁT,stimuli/objects/016a.jpg,object,0,stimuli/objects/016a.jpg,stimuli/objects/016a.jpg,stimuli/objects/016b.jpg,stimuli/scenes/029b.jpg,stimuli/scenes/029a.jpg,target,lure,dist2,dist1,0,1,1,0,0,6,6,28,,,,,301.79925800068304,None,301.79925800068304,None,301.79925800068304,None,301.79925800068304,None,301.79925800068304,None,301.79925800068304,None,301.79925800068304,None,301.79925800068304,None,301.79925800068304,None,301.79925800068304,None,301.79925800068304,None,d,1.3174780099652708,301.79925800068304,None,target,303.1566633475013,None,,,,,,,,,,,pilot,2022_Jun_14_1615,Hippopolis_4AFCT,2021.1.2,59.999813475294616,
Camponello,stimuli/subj_files/pilot_cityB.csv,./stimuli/leipzig.jpg,./stimuli/street_plate2.png,TELEFON,stimuli/objects/044a.jpg,object,0,stimuli/objects/044a.jpg,stimuli/scenes/039a.jpg,stimuli/objects/044a.jpg,stimuli/scenes/039b.jpg,stimuli/objects/044b.jpg,dist1,target,dist2,lure,0,1,1,0,0,7,7,35,,,,,304.2030098596588,None,304.2030098596588,None,304.2030098596588,None,304.2030098596588,None,304.2030098596588,None,304.2030098596588,None,304.2030098596588,None,304.2030098596588,None,304.2030098596588,None,304.2030098596588,None,304.2030098596588,None,f,2.4017405794002116,304.2030098596588,None,target,306.63434302667156,None,,,,,,,,,,,pilot,2022_Jun_14_1615,Hippopolis_4AFCT,2021.1.2,59.999813475294616,
Camponello,stimuli/subj_files/pilot_cityB.csv,./stimuli/leipzig.jpg,./stimuli/street_plate2.png,MENTA,stimuli/scenes/042a.jpg,scene,0,stimuli/scenes/042a.jpg,stimuli/objects/028a.jpg,stimuli/objects/028b.jpg,stimuli/scenes/042a.jpg,stimuli/scenes/042b.jpg,dist1,dist2,target,lure,0,1,1,0,0,8,8,54,,,,,307.67776172282174,None,307.67776172282174,None,307.67776172282174,None,307.67776172282174,None,307.67776172282174,None,307.67776172282174,None,307.67776172282174,None,307.67776172282174,None,307.67776172282174,None,307.67776172282174,None,307.67776172282174,None,j,2.2391230114735663,307.67776172282174,None,target,309.9545740671456,None,,,,,,,,,,,pilot,2022_Jun_14_1615,Hippopolis_4AFCT,2021.1.2,59.999813475294616,
Camponello,stimuli/subj_files/pilot_cityB.csv,./stimuli/leipzig.jpg,./stimuli/street_plate2.png,TENGER,stimuli/objects/061a.jpg,object,0,stimuli/objects/061a.jpg,stimuli/objects/016a.jpg,stimuli/objects/061a.jpg,stimuli/objects/016b.jpg,stimuli/objects/061b.jpg,dist1,target,dist2,lure,0,1,1,0,0,9,9,18,,,,,311.0169296436943,None,311.0169296436943,None,311.0169296436943,None,311.0169296436943,None,311.0169296436943,None,311.0169296436943,None,311.0169296436943,None,311.0169296436943,None,311.0169296436943,None,311.0169296436943,None,311.0169296436943,None,f,2.4036458055488765,311.0169296436943,None,target,313.4617440132424,None,,,,,,,,,,,pilot,2022_Jun_14_1615,Hippopolis_4AFCT,2021.1.2,59.999813475294616,
Camponello,stimuli/subj_files/pilot_cityB.csv,./stimuli/leipzig.jpg,./stimuli/street_plate2.png,TENISZ,stimuli/scenes/041a.jpg,scene,0,stimuli/scenes/041a.jpg,stimuli/scenes/037a.jpg,stimuli/scenes/037b.jpg,stimuli/scenes/041b.jpg,stimuli/scenes/041a.jpg,dist1,dist2,lure,target,0,1,1,0,0,10,10,10,,,,,314.50599154178053,None,314.50599154178053,None,314.50599154178053,None,314.50599154178053,None,314.50599154178053,None,314.50599154178053,None,314.50599154178053,None,314.50599154178053,None,314.50599154178053,None,314.50599154178053,None,314.50599154178053,None,k,1.842619160655886,314.50599154178053,None,target,316.37730945739895,None,,,,,,,,,,,pilot,2022_Jun_14_1615,Hippopolis_4AFCT,2021.1.2,59.999813475294616,
Camponello,stimuli/subj_files/pilot_cityB.csv,./stimuli/leipzig.jpg,./stimuli/street_plate2.png,SZIKLA,stimuli/objects/087a.jpg,object,0,stimuli/objects/087a.jpg,stimuli/scenes/031a.jpg,stimuli/objects/087a.jpg,stimuli/scenes/031b.jpg,stimuli/objects/087b.jpg,dist1,target,dist2,lure,0,1,1,0,0,11,11,31,,,,,317.4449835573323,None,317.4449835573323,None,317.4449835573323,None,317.4449835573323,None,317.4449835573323,None,317.4449835573323,None,317.4449835573323,None,317.4449835573323,None,317.4449835573323,None,317.4449835573323,None,317.4449835573323,None,f,2.455515173263848,317.4449835573323,None,target,319.9405196798034,None,,,,,,,,,,,pilot,2022_Jun_14_1615,Hippopolis_4AFCT,2021.1.2,59.999813475294616,
Camponello,stimuli/subj_files/pilot_cityB.csv,./stimuli/leipzig.jpg,./stimuli/street_plate2.png,PÁLMAFA,stimuli/scenes/046a.jpg,scene,2,stimuli/objects/052a.jpg,stimuli/scenes/075b.jpg,stimuli/objects/052a.jpg,stimuli/scenes/075a.jpg,stimuli/objects/052b.jpg,dist2,target,dist1,lure,0,1,1,0,0,12,12,12,,,,,320.9863396580331,None,320.9863396580331,None,320.9863396580331,None,320.9863396580331,None,320.9863396580331,None,320.9863396580331,None,320.9863396580331,None,320.9863396580331,None,320.9863396580331,None,320.9863396580331,None,320.9863396580331,None,f,3.570057965349406,320.9863396580331,None,target,324.5948221758008,None,,,,,,,,,,,pilot,2022_Jun_14_1615,Hippopolis_4AFCT,2021.1.2,59.999813475294616,
Camponello,stimuli/subj_files/pilot_cityB.csv,./stimuli/leipzig.jpg,./stimuli/street_plate2.png,PIZSAMA,stimuli/objects/071a.jpg,object,0,stimuli/objects/071a.jpg,stimuli/scenes/036b.jpg,stimuli/objects/071a.jpg,stimuli/scenes/036a.jpg,stimuli/objects/071b.jpg,dist2,target,dist1,lure,0,1,1,0,0,13,13,9,,,,,325.6465739826672,None,325.6465739826672,None,325.6465739826672,None,325.6465739826672,None,325.6465739826672,None,325.6465739826672,None,325.6465739826672,None,325.6465739826672,None,325.6465739826672,None,325.6465739826672,None,325.6465739826672,None,f,2.029946824070066,325.6465739826672,None,target,327.70565030537546,None,,,,,,,,,,,pilot,2022_Jun_14_1615,Hippopolis_4AFCT,2021.1.2,59.999813475294616,
Camponello,stimuli/subj_files/pilot_cityB.csv,./stimuli/leipzig.jpg,./stimuli/street_plate2.png,LIMONÁDÉ,stimuli/scenes/049a.jpg,scene,0,stimuli/scenes/049a.jpg,stimuli/objects/067a.jpg,stimuli/objects/067b.jpg,stimuli/scenes/049a.jpg,stimuli/scenes/049b.jpg,dist1,dist2,target,lure,0,1,1,0,0,14,14,34,,,,,328.7496148184873,None,328.7496148184873,None,328.7496148184873,None,328.7496148184873,None,328.7496148184873,None,328.7496148184873,None,328.7496148184873,None,328.7496148184873,None,328.7496148184873,None,328.7496148184873,None,328.7496148184873,None,j,2.7352055720984936,328.7496148184873,None,target,331.51837644632906,None,,,,,,,,,,,pilot,2022_Jun_14_1615,Hippopolis_4AFCT,2021.1.2,59.999813475294616,
Camponello,stimuli/subj_files/pilot_cityB.csv,./stimuli/leipzig.jpg,./stimuli/street_plate2.png,TISZTÁS,stimuli/objects/053a.jpg,object,1,stimuli/objects/025a.jpg,stimuli/scenes/025b.jpg,stimuli/objects/025b.jpg,stimuli/scenes/025a.jpg,stimuli/objects/025a.jpg,dist2,lure,dist1,target,0,1,1,0,0,15,15,11,,,,,332.5592312044464,None,332.5592312044464,None,332.5592312044464,None,332.5592312044464,None,332.5592312044464,None,332.5592312044464,None,332.5592312044464,None,332.5592312044464,None,332.5592312044464,None,332.5592312044464,None,332.5592312044464,None,k,1.709385183174163,332.5592312044464,None,target,334.29079862171784,None,,,,,,,,,,,pilot,2022_Jun_14_1615,Hippopolis_4AFCT,2021.1.2,59.999813475294616,
Camponello,stimuli/subj_files/pilot_cityB.csv,./stimuli/leipzig.jpg,./stimuli/street_plate2.png,KANÁL,stimuli/objects/028a.jpg,object,0,stimuli/objects/028a.jpg,stimuli/objects/028b.jpg,stimuli/objects/050b.jpg,stimuli/objects/028a.jpg,stimuli/objects/050a.jpg,lure,dist2,target,dist1,0,1,1,0,0,16,16,26,,,,,335.3247039373964,None,335.3247039373964,None,335.3247039373964,None,335.3247039373964,None,335.3247039373964,None,335.3247039373964,None,335.3247039373964,None,335.3247039373964,None,335.3247039373964,None,335.3247039373964,None,335.3247039373964,None,j,2.671628984156996,335.3247039373964,None,target,338.0220466349274,None,,,,,,,,,,,pilot,2022_Jun_14_1615,Hippopolis_4AFCT,2021.1.2,59.999813475294616,
Camponello,stimuli/subj_files/pilot_cityB.csv,./stimuli/leipzig.jpg,./stimuli/street_plate2.png,KÖTÉNY,stimuli/scenes/009a.jpg,scene,0,stimuli/scenes/009a.jpg,stimuli/scenes/009a.jpg,stimuli/scenes/009b.jpg,stimuli/objects/083a.jpg,stimuli/objects/083b.jpg,target,lure,dist1,dist2,0,1,1,0,0,17,17,20,,,,,339.05425603175536,None,339.05425603175536,None,339.05425603175536,None,339.05425603175536,None,339.05425603175536,None,339.05425603175536,None,339.05425603175536,None,339.05425603175536,None,339.05425603175536,None,339.05425603175536,None,339.05425603175536,None,d,3.0539248096756637,339.05425603175536,None,target,342.14519715635106,None,,,,,,,,,,,pilot,2022_Jun_14_1615,Hippopolis_4AFCT,2021.1.2,59.999813475294616,
Camponello,stimuli/subj_files/pilot_cityB.csv,./stimuli/leipzig.jpg,./stimuli/street_plate2.png,KECSKE,stimuli/scenes/054a.jpg,scene,1,stimuli/scenes/064a.jpg,stimuli/objects/047b.jpg,stimuli/objects/047a.jpg,stimuli/scenes/064a.jpg,stimuli/scenes/064b.jpg,dist2,dist1,target,lure,0,1,1,0,0,18,18,39,,,,,343.2225025082007,None,343.2225025082007,None,343.2225025082007,None,343.2225025082007,None,343.2225025082007,None,343.2225025082007,None,343.2225025082007,None,343.2225025082007,None,343.2225025082007,None,343.2225025082007,None,343.2225025082007,None,j,2.6457538581453264,343.2225025082007,None,target,345.912462531589,None,,,,,,,,,,,pilot,2022_Jun_14_1615,Hippopolis_4AFCT,2021.1.2,59.999813475294616,
Camponello,stimuli/subj_files/pilot_cityB.csv,./stimuli/leipzig.jpg,./stimuli/street_plate2.png,HEGESZTŐ,stimuli/scenes/082a.jpg,scene,2,stimuli/objects/094a.jpg,stimuli/objects/048b.jpg,stimuli/objects/094b.jpg,stimuli/objects/094a.jpg,stimuli/objects/048a.jpg,dist2,lure,target,dist1,0,1,1,0,0,19,19,59,,,,,346.9991923160851,None,346.9991923160851,None,346.9991923160851,None,346.9991923160851,None,346.9991923160851,None,346.9991923160851,None,346.9991923160851,None,346.9991923160851,None,346.9991923160851,None,346.9991923160851,None,346.9991923160851,None,j,4.212951807305217,346.9991923160851,None,target,351.2585478606634,None,,,,,,,,,,,pilot,2022_Jun_14_1615,Hippopolis_4AFCT,2021.1.2,59.999813475294616,
Camponello,stimuli/subj_files/pilot_cityB.csv,./stimuli/leipzig.jpg,./stimuli/street_plate2.png,BONBON,stimuli/objects/091a.jpg,object,0,stimuli/objects/091a.jpg,stimuli/objects/091a.jpg,stimuli/objects/091b.jpg,stimuli/scenes/069a.jpg,stimuli/scenes/069b.jpg,target,lure,dist1,dist2,0,1,1,0,0,20,20,24,,,,,352.31666472833604,None,352.31666472833604,None,352.31666472833604,None,352.31666472833604,None,352.31666472833604,None,352.31666472833604,None,352.31666472833604,None,352.31666472833604,None,352.31666472833604,None,352.31666472833604,None,352.31666472833604,None,d,3.2156012719497085,352.31666472833604,None,target,355.5636020908132,None,,,,,,,,,,,pilot,2022_Jun_14_1615,Hippopolis_4AFCT,2021.1.2,59.999813475294616,
Camponello,stimuli/subj_files/pilot_cityB.csv,./stimuli/leipzig.jpg,./stimuli/street_plate2.png,KENYÉR,stimuli/objects/089a.jpg,object,0,stimuli/objects/089a.jpg,stimuli/objects/089b.jpg,stimuli/objects/045b.jpg,stimuli/objects/089a.jpg,stimuli/objects/045a.jpg,lure,dist2,target,dist1,0,1,1,0,0,21,21,17,,,,,356.61455461056903,None,356.61455461056903,None,356.61455461056903,None,356.61455461056903,None,356.61455461056903,None,356.61455461056903,None,356.61455461056903,None,356.61455461056903,None,356.61455461056903,None,356.61455461056903,None,356.61455461056903,None,j,1.4934467803686857,356.61455461056903,None,target,358.1510114246048,None,,,,,,,,,,,pilot,2022_Jun_14_1615,Hippopolis_4AFCT,2021.1.2,59.999813475294616,
Camponello,stimuli/subj_files/pilot_cityB.csv,./stimuli/leipzig.jpg,./stimuli/street_plate2.png,PELIKÁN,stimuli/objects/055a.jpg,object,2,stimuli/scenes/036a.jpg,stimuli/scenes/036b.jpg,stimuli/scenes/036a.jpg,stimuli/scenes/010a.jpg,stimuli/scenes/010b.jpg,lure,target,dist1,dist2,0,1,1,0,0,22,22,5,,,,,359.1852383213118,None,359.1852383213118,None,359.1852383213118,None,359.1852383213118,None,359.1852383213118,None,359.1852383213118,None,359.1852383213118,None,359.1852383213118,None,359.1852383213118,None,359.1852383213118,None,359.1852383213118,None,f,2.8107220139354467,359.1852383213118,None,target,362.0340555324219,None,,,,,,,,,,,pilot,2022_Jun_14_1615,Hippopolis_4AFCT,2021.1.2,59.999813475294616,
Camponello,stimuli/subj_files/pilot_cityB.csv,./stimuli/leipzig.jpg,./stimuli/street_plate2.png,TÁNYÉR,stimuli/scenes/039a.jpg,scene,0,stimuli/scenes/039a.jpg,stimuli/scenes/041a.jpg,stimuli/scenes/041b.jpg,stimuli/scenes/039b.jpg,stimuli/scenes/039a.jpg,dist1,dist2,lure,target,0,1,1,0,0,23,23,15,,,,,363.0780240884051,None,363.0780240884051,None,363.0780240884051,None,363.0780240884051,None,363.0780240884051,None,363.0780240884051,None,363.0780240884051,None,363.0780240884051,None,363.0780240884051,None,363.0780240884051,None,363.0780240884051,None,k,3.398196970578283,363.0780240884051,None,target,366.51302215689793,None,,,,,,,,,,,pilot,2022_Jun_14_1615,Hippopolis_4AFCT,2021.1.2,59.999813475294616,
Camponello,stimuli/subj_files/pilot_cityB.csv,./stimuli/leipzig.jpg,./stimuli/street_plate2.png,ZSÁLYA,stimuli/scenes/069a.jpg,scene,0,stimuli/scenes/069a.jpg,stimuli/scenes/069a.jpg,stimuli/scenes/069b.jpg,stimuli/scenes/047a.jpg,stimuli/scenes/047b.jpg,target,lure,dist1,dist2,0,1,1,0,0,24,24,41,,,,,367.5525327445939,None,367.5525327445939,None,367.5525327445939,None,367.5525327445939,None,367.5525327445939,None,367.5525327445939,None,367.5525327445939,None,367.5525327445939,None,367.5525327445939,None,367.5525327445939,None,367.5525327445939,None,d,1.9477005107328296,367.5525327445939,None,target,369.533047249075,None,,,,,,,,,,,pilot,2022_Jun_14_1615,Hippopolis_4AFCT,2021.1.2,59.999813475294616,
Camponello,stimuli/subj_files/pilot_cityB.csv,./stimuli/leipzig.jpg,./stimuli/street_plate2.png,SÜTEMÉNY,stimuli/objects/046a.jpg,object,0,stimuli/objects/046a.jpg,stimuli/objects/068b.jpg,stimuli/objects/046a.jpg,stimuli/objects/068a.jpg,stimuli/objects/046b.jpg,dist2,target,dist1,lure,0,1,1,0,0,25,25,56,,,,,370.58319270657375,None,370.58319270657375,None,370.58319270657375,None,370.58319270657375,None,370.58319270657375,None,370.58319270657375,None,370.58319270657375,None,370.58319270657375,None,370.58319270657375,None,370.58319270657375,None,370.58319270657375,None,f,1.7646557185798883,370.58319270657375,None,target,372.37282598624006,None,,,,,,,,,,,pilot,2022_Jun_14_1615,Hippopolis_4AFCT,2021.1.2,59.999813475294616,
Camponello,stimuli/subj_files/pilot_cityB.csv,./stimuli/leipzig.jpg,./stimuli/street_plate2.png,SZÚNYOG,stimuli/scenes/051a.jpg,scene,1,stimuli/scenes/005a.jpg,stimuli/objects/071b.jpg,stimuli/scenes/005a.jpg,stimuli/scenes/005b.jpg,stimuli/objects/071a.jpg,dist2,target,lure,dist1,0,1,1,0,0,26,26,25,,,,,373.42542124306783,None,373.42542124306783,None,373.42542124306783,None,373.42542124306783,None,373.42542124306783,None,373.42542124306783,None,373.42542124306783,None,373.42542124306783,None,373.42542124306783,None,373.42542124306783,None,373.42542124306783,None,f,3.4505350249819458,373.42542124306783,None,target,376.90923552727327,None,,,,,,,,,,,pilot,2022_Jun_14_1615,Hippopolis_4AFCT,2021.1.2,59.999813475294616,
Camponello,stimuli/subj_files/pilot_cityB.csv,./stimuli/leipzig.jpg,./stimuli/street_plate2.png,BÖGRE,stimuli/scenes/002a.jpg,scene,1,stimuli/scenes/075a.jpg,stimuli/scenes/023a.jpg,stimuli/scenes/075a.jpg,stimuli/scenes/023b.jpg,stimuli/scenes/075b.jpg,dist1,target,dist2,lure,0,1,1,0,0,27,27,7,,,,,377.959451272618,None,377.959451272618,None,377.959451272618,None,377.959451272618,None,377.959451272618,None,377.959451272618,None,377.959451272618,None,377.959451272618,None,377.959451272618,None,377.959451272618,None,377.959451272618,None,f,1.844444458372891,377.959451272618,None,target,379.8373575513251,None,,,,,,,,,,,pilot,2022_Jun_14_1615,Hippopolis_4AFCT,2021.1.2,59.999813475294616,
Camponello,stimuli/subj_files/pilot_cityB.csv,./stimuli/leipzig.jpg,./stimuli/street_plate2.png,TRIATLON,stimuli/objects/039a.jpg,object,2,stimuli/scenes/045a.jpg,stimuli/scenes/006b.jpg,stimuli/scenes/045b.jpg,stimuli/scenes/045a.jpg,stimuli/scenes/006a.jpg,dist2,lure,target,dist1,0,1,1,0,0,28,28,43,,,,,380.86746018985286,None,380.86746018985286,None,380.86746018985286,None,380.86746018985286,None,380.86746018985286,None,380.86746018985286,None,380.86746018985286,None,380.86746018985286,None,380.86746018985286,None,380.86746018985286,None,380.86746018985286,None,j,2.3123271190561354,380.86746018985286,None,target,383.2206215406768,None,,,,,,,,,,,pilot,2022_Jun_14_1615,Hippopolis_4AFCT,2021.1.2,59.999813475294616,
Camponello,stimuli/subj_files/pilot_cityB.csv,./stimuli/leipzig.jpg,./stimuli/street_plate2.png,PETÁRDA,stimuli/scenes/023a.jpg,scene,0,stimuli/scenes/023a.jpg,stimuli/scenes/023a.jpg,stimuli/scenes/019b.jpg,stimuli/scenes/019a.jpg,stimuli/scenes/023b.jpg,target,dist2,dist1,lure,0,1,1,0,0,29,29,51,,,,,384.25373503379524,None,384.25373503379524,None,384.25373503379524,None,384.25373503379524,None,384.25373503379524,None,384.25373503379524,None,384.25373503379524,None,384.25373503379524,None,384.25373503379524,None,384.25373503379524,None,384.25373503379524,None,d,1.886282930150628,384.25373503379524,None,target,386.1750046494417,None,,,,,,,,,,,pilot,2022_Jun_14_1615,Hippopolis_4AFCT,2021.1.2,59.999813475294616,
Camponello,stimuli/subj_files/pilot_cityB.csv,./stimuli/leipzig.jpg,./stimuli/street_plate2.png,PISZTRÁNG,stimuli/objects/072a.jpg,object,0,stimuli/objects/072a.jpg,stimuli/objects/046b.jpg,stimuli/objects/072b.jpg,stimuli/objects/072a.jpg,stimuli/objects/046a.jpg,dist2,lure,target,dist1,0,1,1,0,0,30,30,49,,,,,387.2714272653684,None,387.2714272653684,None,387.2714272653684,None,387.2714272653684,None,387.2714272653684,None,387.2714272653684,None,387.2714272653684,None,387.2714272653684,None,387.2714272653684,None,387.2714272653684,None,387.2714272653684,None,j,1.3003132459707558,387.2714272653684,None,target,388.59303451003507,None,,,,,,,,,,,pilot,2022_Jun_14_1615,Hippopolis_4AFCT,2021.1.2,59.999813475294616,
Camponello,stimuli/subj_files/pilot_cityB.csv,./stimuli/leipzig.jpg,./stimuli/street_plate2.png,LOVAGLÁS,stimuli/objects/021a.jpg,object,0,stimuli/objects/021a.jpg,stimuli/objects/021b.jpg,stimuli/scenes/042b.jpg,stimuli/objects/021a.jpg,stimuli/scenes/042a.jpg,lure,dist2,target,dist1,0,1,1,0,0,31,31,38,,,,,389.6424180017784,None,389.6424180017784,None,389.6424180017784,None,389.6424180017784,None,389.6424180017784,None,389.6424180017784,None,389.6424180017784,None,389.6424180017784,None,389.6424180017784,None,389.6424180017784,None,389.6424180017784,None,j,3.2816379223950207,389.6424180017784,None,target,392.9632356008515,None,,,,,,,,,,,pilot,2022_Jun_14_1615,Hippopolis_4AFCT,2021.1.2,59.999813475294616,
Camponello,stimuli/subj_files/pilot_cityB.csv,./stimuli/leipzig.jpg,./stimuli/street_plate2.png,MAJORÁNNA,stimuli/scenes/031a.jpg,scene,0,stimuli/scenes/031a.jpg,stimuli/objects/044b.jpg,stimuli/objects/044a.jpg,stimuli/scenes/031b.jpg,stimuli/scenes/031a.jpg,dist2,dist1,lure,target,0,1,1,0,0,32,32,3,,,,,394.01457843370736,None,394.01457843370736,None,394.01457843370736,None,394.01457843370736,None,394.01457843370736,None,394.01457843370736,None,394.01457843370736,None,394.01457843370736,None,394.01457843370736,None,394.01457843370736,None,394.01457843370736,None,k,1.4211542326956987,394.01457843370736,None,target,395.4656179109588,None,,,,,,,,,,,pilot,2022_Jun_14_1615,Hippopolis_4AFCT,2021.1.2,59.999813475294616,
Camponello,stimuli/subj_files/pilot_cityB.csv,./stimuli/leipzig.jpg,./stimuli/street_plate2.png,RIBIZLI,stimuli/scenes/029a.jpg,scene,0,stimuli/scenes/029a.jpg,stimuli/scenes/029b.jpg,stimuli/objects/094a.jpg,stimuli/objects/094b.jpg,stimuli/scenes/029a.jpg,lure,dist1,dist2,target,0,1,1,0,0,33,33,48,,,,,396.5160127962008,None,396.5160127962008,None,396.5160127962008,None,396.5160127962008,None,396.5160127962008,None,396.5160127962008,None,396.5160127962008,None,396.5160127962008,None,396.5160127962008,None,396.5160127962008,None,396.5160127962008,None,k,3.143608534708619,396.5160127962008,None,target,399.6868770150468,None,,,,,,,,,,,pilot,2022_Jun_14_1615,Hippopolis_4AFCT,2021.1.2,59.999813475294616,
Camponello,stimuli/subj_files/pilot_cityB.csv,./stimuli/leipzig.jpg,./stimuli/street_plate2.png,HENTES,stimuli/objects/033a.jpg,object,1,stimuli/objects/015a.jpg,stimuli/objects/015b.jpg,stimuli/objects/091b.jpg,stimuli/objects/091a.jpg,stimuli/objects/015a.jpg,lure,dist2,dist1,target,0,1,1,0,0,34,34,42,,,,,400.72506395867094,None,400.72506395867094,None,400.72506395867094,None,400.72506395867094,None,400.72506395867094,None,400.72506395867094,None,400.72506395867094,None,400.72506395867094,None,400.72506395867094,None,400.72506395867094,None,400.72506395867094,None,k,2.3429469615221024,400.72506395867094,None,target,403.10165188042447,None,,,,,,,,,,,pilot,2022_Jun_14_1615,Hippopolis_4AFCT,2021.1.2,59.999813475294616,
Camponello,stimuli/subj_files/pilot_cityB.csv,./stimuli/leipzig.jpg,./stimuli/street_plate2.png,KÍGYÓ,stimuli/scenes/006a.jpg,scene,0,stimuli/scenes/006a.jpg,stimuli/scenes/006b.jpg,stimuli/scenes/006a.jpg,stimuli/objects/099b.jpg,stimuli/objects/099a.jpg,lure,target,dist2,dist1,0,1,1,0,0,35,35,6,,,,,404.1378611330874,None,404.1378611330874,None,404.1378611330874,None,404.1378611330874,None,404.1378611330874,None,404.1378611330874,None,404.1378611330874,None,404.1378611330874,None,404.1378611330874,None,404.1378611330874,None,404.1378611330874,None,f,2.7056898032315075,404.1378611330874,None,target,406.8705037003383,None,,,,,,,,,,,pilot,2022_Jun_14_1615,Hippopolis_4AFCT,2021.1.2,59.999813475294616,
Camponello,stimuli/subj_files/pilot_cityB.csv,./stimuli/leipzig.jpg,./stimuli/street_plate2.png,VITORLA,stimuli/objects/077a.jpg,object,0,stimuli/objects/077a.jpg,stimuli/scenes/040a.jpg,stimuli/scenes/040b.jpg,stimuli/objects/077a.jpg,stimuli/objects/077b.jpg,dist1,dist2,target,lure,0,1,1,0,0,36,36,16,,,,,407.9137357925065,None,407.9137357925065,None,407.9137357925065,None,407.9137357925065,None,407.9137357925065,None,407.9137357925065,None,407.9137357925065,None,407.9137357925065,None,407.9137357925065,None,407.9137357925065,None,407.9137357925065,None,j,4.498167859856039,407.9137357925065,None,target,412.44902539858595,None,,,,,,,,,,,pilot,2022_Jun_14_1615,Hippopolis_4AFCT,2021.1.2,59.999813475294616,
Camponello,stimuli/subj_files/pilot_cityB.csv,./stimuli/leipzig.jpg,./stimuli/street_plate2.png,FÉNYMÁSOLÓ,stimuli/objects/050a.jpg,object,0,stimuli/objects/050a.jpg,stimuli/objects/015b.jpg,stimuli/objects/015a.jpg,stimuli/objects/050b.jpg,stimuli/objects/050a.jpg,dist2,dist1,lure,target,0,1,1,0,0,37,37,14,,,,,413.4992392780259,None,413.4992392780259,None,413.4992392780259,None,413.4992392780259,None,413.4992392780259,None,413.4992392780259,None,413.4992392780259,None,413.4992392780259,None,413.4992392780259,None,413.4992392780259,None,413.4992392780259,None,k,2.208152353297919,413.4992392780259,None,target,415.7317537101917,None,,,,,,,,,,,pilot,2022_Jun_14_1615,Hippopolis_4AFCT,2021.1.2,59.999813475294616,
Camponello,stimuli/subj_files/pilot_cityB.csv,./stimuli/leipzig.jpg,./stimuli/street_plate2.png,ANANÁSZ,stimuli/scenes/088a.jpg,scene,1,stimuli/scenes/048a.jpg,stimuli/scenes/078a.jpg,stimuli/scenes/048a.jpg,stimuli/scenes/078b.jpg,stimuli/scenes/048b.jpg,dist1,target,dist2,lure,0,1,1,0,0,38,38,36,,,,,416.7905519930646,None,416.7905519930646,None,416.7905519930646,None,416.7905519930646,None,416.7905519930646,None,416.7905519930646,None,416.7905519930646,None,416.7905519930646,None,416.7905519930646,None,416.7905519930646,None,416.7905519930646,None,f,2.3892804118804634,416.7905519930646,None,target,419.2200800781138,None,,,,,,,,,,,pilot,2022_Jun_14_1615,Hippopolis_4AFCT,2021.1.2,59.999813475294616,
Camponello,stimuli/subj_files/pilot_cityB.csv,./stimuli/leipzig.jpg,./stimuli/street_plate2.png,FECSKE,stimuli/scenes/004a.jpg,scene,0,stimuli/scenes/004a.jpg,stimuli/scenes/083b.jpg,stimuli/scenes/083a.jpg,stimuli/scenes/004b.jpg,stimuli/scenes/004a.jpg,dist2,dist1,lure,target,0,1,1,0,0,39,39,40,,,,,420.2513723168522,None,420.2513723168522,None,420.2513723168522,None,420.2513723168522,None,420.2513723168522,None,420.2513723168522,None,420.2513723168522,None,420.2513723168522,None,420.2513723168522,None,420.2513723168522,None,420.2513723168522,None,k,1.9359304662793875,420.2513723168522,None,target,422.233058382757,None,,,,,,,,,,,pilot,2022_Jun_14_1615,Hippopolis_4AFCT,2021.1.2,59.999813475294616,
Camponello,stimuli/subj_files/pilot_cityB.csv,./stimuli/leipzig.jpg,./stimuli/street_plate2.png,LEGELŐ,stimuli/objects/022a.jpg,object,0,stimuli/objects/022a.jpg,stimuli/objects/022a.jpg,stimuli/objects/022b.jpg,stimuli/objects/025b.jpg,stimuli/objects/025a.jpg,target,lure,dist2,dist1,0,1,1,0,0,40,40,0,,,,,423.302850748878,None,423.302850748878,None,423.302850748878,None,423.302850748878,None,423.302850748878,None,423.302850748878,None,423.302850748878,None,423.302850748878,None,423.302850748878,None,423.302850748878,None,423.302850748878,None,d,1.3805271312594414,423.302850748878,None,target,424.71245326381177,None,,,,,,,,,,,pilot,2022_Jun_14_1615,Hippopolis_4AFCT,2021.1.2,59.999813475294616,
Camponello,stimuli/subj_files/pilot_cityB.csv,./stimuli/leipzig.jpg,./stimuli/street_plate2.png,SZŐLŐ,stimuli/objects/068a.jpg,object,0,stimuli/objects/068a.jpg,stimuli/objects/068a.jpg,stimuli/objects/068b.jpg,stimuli/scenes/005a.jpg,stimuli/scenes/005b.jpg,target,lure,dist1,dist2,0,1,1,0,0,41,41,2,,,,,425.75433963071555,None,425.75433963071555,None,425.75433963071555,None,425.75433963071555,None,425.75433963071555,None,425.75433963071555,None,425.75433963071555,None,425.75433963071555,None,425.75433963071555,None,425.75433963071555,None,425.75433963071555,None,f,2.0813375520519912,425.75433963071555,None,lure,427.86682604718953,None,,,,,,,,,,,pilot,2022_Jun_14_1615,Hippopolis_4AFCT,2021.1.2,59.999813475294616,
Camponello,stimuli/subj_files/pilot_cityB.csv,./stimuli/leipzig.jpg,./stimuli/street_plate2.png,LÁMPA,stimuli/scenes/008a.jpg,scene,1,stimuli/scenes/076a.jpg,stimuli/scenes/076b.jpg,stimuli/scenes/076a.jpg,stimuli/scenes/032b.jpg,stimuli/scenes/032a.jpg,lure,target,dist2,dist1,0,1,1,0,0,42,42,55,,,,,428.92506545130163,None,428.92506545130163,None,428.92506545130163,None,428.92506545130163,None,428.92506545130163,None,428.92506545130163,None,428.92506545130163,None,428.92506545130163,None,428.92506545130163,None,428.92506545130163,None,428.92506545130163,None,f,3.8223524168133736,428.92506545130163,None,target,432.77901271590963,None,,,,,,,,,,,pilot,2022_Jun_14_1615,Hippopolis_4AFCT,2021.1.2,59.999813475294616,
Camponello,stimuli/subj_files/pilot_cityB.csv,./stimuli/leipzig.jpg,./stimuli/street_plate2.png,ZEBRA,stimuli/scenes/052a.jpg,scene,0,stimuli/scenes/052a.jpg,stimuli/scenes/004b.jpg,stimuli/scenes/052b.jpg,stimuli/scenes/004a.jpg,stimuli/scenes/052a.jpg,dist2,lure,dist1,target,0,1,1,0,0,43,43,4,,,,,433.8135154754855,None,433.8135154754855,None,433.8135154754855,None,433.8135154754855,None,433.8135154754855,None,433.8135154754855,None,433.8135154754855,None,433.8135154754855,None,433.8135154754855,None,433.8135154754855,None,433.8135154754855,None,k,2.1339312535710633,433.8135154754855,None,target,435.97139019332826,None,,,,,,,,,,,pilot,2022_Jun_14_1615,Hippopolis_4AFCT,2021.1.2,59.999813475294616,
Camponello,stimuli/subj_files/pilot_cityB.csv,./stimuli/leipzig.jpg,./stimuli/street_plate2.png,DARU,stimuli/objects/002a.jpg,object,0,stimuli/objects/002a.jpg,stimuli/objects/002a.jpg,stimuli/objects/029a.jpg,stimuli/objects/002b.jpg,stimuli/objects/029b.jpg,target,dist1,lure,dist2,0,1,1,0,0,44,44,30,,,,,437.0491091841832,None,437.0491091841832,None,437.0491091841832,None,437.0491091841832,None,437.0491091841832,None,437.0491091841832,None,437.0491091841832,None,437.0491091841832,None,437.0491091841832,None,437.0491091841832,None,437.0491091841832,None,d,2.114090588875115,437.0491091841832,None,target,439.1847260934301,None,,,,,,,,,,,pilot,2022_Jun_14_1615,Hippopolis_4AFCT,2021.1.2,59.999813475294616,
Camponello,stimuli/subj_files/pilot_cityB.csv,./stimuli/leipzig.jpg,./stimuli/street_plate2.png,SZEKRÉNY,stimuli/objects/012a.jpg,object,0,stimuli/objects/012a.jpg,stimuli/objects/012a.jpg,stimuli/scenes/048a.jpg,stimuli/scenes/048b.jpg,stimuli/objects/012b.jpg,target,dist1,dist2,lure,0,1,1,0,0,45,45,53,,,,,440.218767630402,None,440.218767630402,None,440.218767630402,None,440.218767630402,None,440.218767630402,None,440.218767630402,None,440.218767630402,None,440.218767630402,None,440.218767630402,None,440.218767630402,None,440.218767630402,None,d,2.016277462709695,440.218767630402,None,target,442.27635827474296,None,,,,,,,,,,,pilot,2022_Jun_14_1615,Hippopolis_4AFCT,2021.1.2,59.999813475294616,
Camponello,stimuli/subj_files/pilot_cityB.csv,./stimuli/leipzig.jpg,./stimuli/street_plate2.png,LÁNDZSA,stimuli/scenes/047a.jpg,scene,0,stimuli/scenes/047a.jpg,stimuli/scenes/047b.jpg,stimuli/scenes/007a.jpg,stimuli/scenes/007b.jpg,stimuli/scenes/047a.jpg,lure,dist1,dist2,target,0,1,1,0,0,46,46,47,,,,,443.32279715593904,None,443.32279715593904,None,443.32279715593904,None,443.32279715593904,None,443.32279715593904,None,443.32279715593904,None,443.32279715593904,None,443.32279715593904,None,443.32279715593904,None,443.32279715593904,None,443.32279715593904,None,k,4.20823228219524,443.32279715593904,None,target,447.5534138260409,None,,,,,,,,,,,pilot,2022_Jun_14_1615,Hippopolis_4AFCT,2021.1.2,59.999813475294616,
Camponello,stimuli/subj_files/pilot_cityB.csv,./stimuli/leipzig.jpg,./stimuli/street_plate2.png,KARTON,stimuli/objects/047a.jpg,object,0,stimuli/objects/047a.jpg,stimuli/objects/047a.jpg,stimuli/objects/004b.jpg,stimuli/objects/047b.jpg,stimuli/objects/004a.jpg,target,dist2,lure,dist1,0,1,1,0,0,47,47,44,,,,,448.6153399022296,None,448.6153399022296,None,448.6153399022296,None,448.6153399022296,None,448.6153399022296,None,448.6153399022296,None,448.6153399022296,None,448.6153399022296,None,448.6153399022296,None,448.6153399022296,None,448.6153399022296,None,d,3.059715441428125,448.6153399022296,None,target,451.6993337618187,None,,,,,,,,,,,pilot,2022_Jun_14_1615,Hippopolis_4AFCT,2021.1.2,59.999813475294616,
Camponello,stimuli/subj_files/pilot_cityB.csv,./stimuli/leipzig.jpg,./stimuli/street_plate2.png,ORVOS,stimuli/objects/006a.jpg,object,2,stimuli/scenes/019a.jpg,stimuli/scenes/019b.jpg,stimuli/objects/061b.jpg,stimuli/objects/061a.jpg,stimuli/scenes/019a.jpg,lure,dist2,dist1,target,0,1,1,0,0,48,48,33,,,,,452.75040353136137,None,452.75040353136137,None,452.75040353136137,None,452.75040353136137,None,452.75040353136137,None,452.75040353136137,None,452.75040353136137,None,452.75040353136137,None,452.75040353136137,None,452.75040353136137,None,452.75040353136137,None,k,3.2925757132470608,452.75040353136137,None,target,456.08830285584554,None,,,,,,,,,,,pilot,2022_Jun_14_1615,Hippopolis_4AFCT,2021.1.2,59.999813475294616,
Camponello,stimuli/subj_files/pilot_cityB.csv,./stimuli/leipzig.jpg,./stimuli/street_plate2.png,BICIKLI,stimuli/scenes/010a.jpg,scene,0,stimuli/scenes/010a.jpg,stimuli/objects/052a.jpg,stimuli/objects/052b.jpg,stimuli/scenes/010a.jpg,stimuli/scenes/010b.jpg,dist1,dist2,target,lure,0,1,1,0,0,49,49,58,,,,,457.1388952299021,None,457.1388952299021,None,457.1388952299021,None,457.1388952299021,None,457.1388952299021,None,457.1388952299021,None,457.1388952299021,None,457.1388952299021,None,457.1388952299021,None,457.1388952299021,None,457.1388952299021,None,j,2.5360748977400362,457.1388952299021,None,target,459.7032686169259,None,,,,,,,,,,,pilot,2022_Jun_14_1615,Hippopolis_4AFCT,2021.1.2,59.999813475294616,
Camponello,stimuli/subj_files/pilot_cityB.csv,./stimuli/leipzig.jpg,./stimuli/street_plate2.png,MARTINI,stimuli/objects/067a.jpg,object,0,stimuli/objects/067a.jpg,stimuli/objects/067b.jpg,stimuli/scenes/009b.jpg,stimuli/objects/067a.jpg,stimuli/scenes/009a.jpg,lure,dist2,target,dist1,0,1,1,0,0,50,50,23,,,,,460.75098138162866,None,460.75098138162866,None,460.75098138162866,None,460.75098138162866,None,460.75098138162866,None,460.75098138162866,None,460.75098138162866,None,460.75098138162866,None,460.75098138162866,None,460.75098138162866,None,460.75098138162866,None,j,2.8281312296167016,460.75098138162866,None,target,463.61961935274303,None,,,,,,,,,,,pilot,2022_Jun_14_1615,Hippopolis_4AFCT,2021.1.2,59.999813475294616,
Camponello,stimuli/subj_files/pilot_cityB.csv,./stimuli/leipzig.jpg,./stimuli/street_plate2.png,KALAPÁCS,stimuli/objects/049a.jpg,object,1,stimuli/objects/048a.jpg,stimuli/objects/022a.jpg,stimuli/objects/048b.jpg,stimuli/objects/048a.jpg,stimuli/objects/022b.jpg,dist1,lure,target,dist2,0,1,1,0,0,51,51,32,,,,,464.6792228319682,None,464.6792228319682,None,464.6792228319682,None,464.6792228319682,None,464.6792228319682,None,464.6792228319682,None,464.6792228319682,None,464.6792228319682,None,464.6792228319682,None,464.6792228319682,None,464.6792228319682,None,j,1.6356952833011746,464.6792228319682,None,target,466.34778311429545,None,,,,,,,,,,,pilot,2022_Jun_14_1615,Hippopolis_4AFCT,2021.1.2,59.999813475294616,
Camponello,stimuli/subj_files/pilot_cityB.csv,./stimuli/leipzig.jpg,./stimuli/street_plate2.png,HERING,stimuli/objects/004a.jpg,object,0,stimuli/objects/004a.jpg,stimuli/objects/012a.jpg,stimuli/objects/012b.jpg,stimuli/objects/004b.jpg,stimuli/objects/004a.jpg,dist1,dist2,lure,target,0,1,1,0,0,52,52,21,,,,,467.3993620011024,None,467.3993620011024,None,467.3993620011024,None,467.3993620011024,None,467.3993620011024,None,467.3993620011024,None,467.3993620011024,None,467.3993620011024,None,467.3993620011024,None,467.3993620011024,None,467.3993620011024,None,k,1.8273963215760887,467.3993620011024,None,target,469.26835234323516,None,,,,,,,,,,,pilot,2022_Jun_14_1615,Hippopolis_4AFCT,2021.1.2,59.999813475294616,
Camponello,stimuli/subj_files/pilot_cityB.csv,./stimuli/leipzig.jpg,./stimuli/street_plate2.png,SAPKA,stimuli/objects/029a.jpg,object,0,stimuli/objects/029a.jpg,stimuli/objects/029b.jpg,stimuli/objects/029a.jpg,stimuli/scenes/045a.jpg,stimuli/scenes/045b.jpg,lure,target,dist1,dist2,0,1,1,0,0,53,53,13,,,,,470.30348582426086,None,470.30348582426086,None,470.30348582426086,None,470.30348582426086,None,470.30348582426086,None,470.30348582426086,None,470.30348582426086,None,470.30348582426086,None,470.30348582426086,None,470.30348582426086,None,470.30348582426086,None,f,2.0912316045723855,470.30348582426086,None,target,472.43626510957256,None,,,,,,,,,,,pilot,2022_Jun_14_1615,Hippopolis_4AFCT,2021.1.2,59.999813475294616,
Camponello,stimuli/subj_files/pilot_cityB.csv,./stimuli/leipzig.jpg,./stimuli/street_plate2.png,KAKAS,stimuli/scenes/083a.jpg,scene,0,stimuli/scenes/083a.jpg,stimuli/scenes/083b.jpg,stimuli/scenes/052a.jpg,stimuli/scenes/052b.jpg,stimuli/scenes/083a.jpg,lure,dist1,dist2,target,0,1,1,0,0,54,54,22,,,,,473.4709650473669,None,473.4709650473669,None,473.4709650473669,None,473.4709650473669,None,473.4709650473669,None,473.4709650473669,None,473.4709650473669,None,473.4709650473669,None,473.4709650473669,None,473.4709650473669,None,473.4709650473669,None,k,2.171851354185492,473.4709650473669,None,target,475.6734716980718,None,,,,,,,,,,,pilot,2022_Jun_14_1615,Hippopolis_4AFCT,2021.1.2,59.999813475294616,
Camponello,stimuli/subj_files/pilot_cityB.csv,./stimuli/leipzig.jpg,./stimuli/street_plate2.png,CSAVARHÚZÓ,stimuli/scenes/037a.jpg,scene,0,stimuli/scenes/037a.jpg,stimuli/objects/072a.jpg,stimuli/objects/072b.jpg,stimuli/scenes/037b.jpg,stimuli/scenes/037a.jpg,dist1,dist2,lure,target,0,1,1,0,0,55,55,57,,,,,476.72446713689715,None,476.72446713689715,None,476.72446713689715,None,476.72446713689715,None,476.72446713689715,None,476.72446713689715,None,476.72446713689715,None,476.72446713689715,None,476.72446713689715,None,476.72446713689715,None,476.72446713689715,None,k,1.7982733538374305,476.72446713689715,None,target,478.5526596349664,None,,,,,,,,,,,pilot,2022_Jun_14_1615,Hippopolis_4AFCT,2021.1.2,59.999813475294616,
Camponello,stimuli/subj_files/pilot_cityB.csv,./stimuli/leipzig.jpg,./stimuli/street_plate2.png,KÖRTE,stimuli/scenes/040a.jpg,scene,0,stimuli/scenes/040a.jpg,stimuli/scenes/040a.jpg,stimuli/scenes/040b.jpg,stimuli/objects/002a.jpg,stimuli/objects/002b.jpg,target,lure,dist1,dist2,0,1,1,0,0,56,56,37,,,,,479.60167831601575,None,479.60167831601575,None,479.60167831601575,None,479.60167831601575,None,479.60167831601575,None,479.60167831601575,None,479.60167831601575,None,479.60167831601575,None,479.60167831601575,None,479.60167831601575,None,479.60167831601575,None,d,3.912931840401143,479.60167831601575,None,target,483.5544600524008,None,,,,,,,,,,,pilot,2022_Jun_14_1615,Hippopolis_4AFCT,2021.1.2,59.999813475294616,
Camponello,stimuli/subj_files/pilot_cityB.csv,./stimuli/leipzig.jpg,./stimuli/street_plate2.png,TOLMÁCS,stimuli/scenes/025a.jpg,scene,0,stimuli/scenes/025a.jpg,stimuli/scenes/025a.jpg,stimuli/scenes/025b.jpg,stimuli/objects/021a.jpg,stimuli/objects/021b.jpg,target,lure,dist1,dist2,0,1,1,0,0,57,57,8,,,,,484.59929413953796,None,484.59929413953796,None,484.59929413953796,None,484.59929413953796,None,484.59929413953796,None,484.59929413953796,None,484.59929413953796,None,484.59929413953796,None,484.59929413953796,None,484.59929413953796,None,484.59929413953796,None,d,1.6352552091702819,484.59929413953796,None,target,486.2722287294455,None,,,,,,,,,,,pilot,2022_Jun_14_1615,Hippopolis_4AFCT,2021.1.2,59.999813475294616,
Camponello,stimuli/subj_files/pilot_cityB.csv,./stimuli/leipzig.jpg,./stimuli/street_plate2.png,KÖMÉNYMAG,stimuli/scenes/078a.jpg,scene,0,stimuli/scenes/078a.jpg,stimuli/scenes/078b.jpg,stimuli/objects/087a.jpg,stimuli/scenes/078a.jpg,stimuli/objects/087b.jpg,lure,dist1,target,dist2,0,1,1,0,0,58,58,1,,,,,487.3365448913537,None,487.3365448913537,None,487.3365448913537,None,487.3365448913537,None,487.3365448913537,None,487.3365448913537,None,487.3365448913537,None,487.3365448913537,None,487.3365448913537,None,487.3365448913537,None,487.3365448913537,None,j,3.1060855900868773,487.3365448913537,None,target,490.4783803774044,None,,,,,,,,,,,pilot,2022_Jun_14_1615,Hippopolis_4AFCT,2021.1.2,59.999813475294616,
Camponello,stimuli/subj_files/pilot_cityB.csv,./stimuli/leipzig.jpg,./stimuli/street_plate2.png,MÁLNA,stimuli/objects/082a.jpg,object,1,stimuli/objects/083a.jpg,stimuli/objects/083b.jpg,stimuli/objects/083a.jpg,stimuli/objects/089b.jpg,stimuli/objects/089a.jpg,lure,target,dist2,dist1,0,1,1,0,0,59,59,27,,,,,491.5370726073161,None,491.5370726073161,None,491.5370726073161,None,491.5370726073161,None,491.5370726073161,None,491.5370726073161,None,491.5370726073161,None,491.5370726073161,None,491.5370726073161,None,491.5370726073161,None,491.5370726073161,None,f,1.7216313784010708,491.5370726073161,None,target,493.2980438307859,None,,,,,,,,,,,pilot,2022_Jun_14_1615,Hippopolis_4AFCT,2021.1.2,59.999813475294616,
,,,,,,,,,,,,,,,,,,,,,,,,,,,,,,,,,,,,,,,,,,,,,,,,,,,,,,,,,,59,1,0,0,494.30334804812446,None,space,3.3713322216644883,494.30334804812446,None,,,,,,
