CityName,StimuliFile,CityImage,StreetSign,VideoFile,Cue,Image,Category,Novelty,UpdateImage,TestImage1,TestImage2,TestImage3,TestImage4,TestImage1Type,TestImage2Type,TestImage3Type,TestImage4Type,CityBlock.thisRepN,CityBlock.thisTrialN,CityBlock.thisN,CityBlock.thisIndex,LearningTrials.thisRepN,LearningTrials.thisTrialN,LearningTrials.thisN,LearningTrials.thisIndex,learning_instructions_text.started,intro_key.started,intro_key.keys,intro_key.rt,cityname_text.started,city_image.started,fx_cross.started,plate_updating.started,city_text_updating.started,street_text_updating.started,test_image1.started,test_image2.started,test_image3.started,test_image4.started,button_d.started,button_f.started,button_j.started,button_k.started,key_resp.started,clock0.started,key_resp.keys,key_resp.rt,test_resp,short_break_key.keys,fx_cross.stopped,short_break_text.started,short_break_key.started,short_break_key.rt,n_targets,n_lures,n_dist1s,n_dist2s,break_text.started,break_key_resp.started,break_key_resp.keys,break_key_resp.rt,end_text.started,participant,date,expName,psychopyVersion,frameRate,
,,,,,,,,,,,,,,,,,,,,,,,,,,54.89503441005945,54.89503441005945,space,4.651528464630246,,,,,,,,,,,,,,,,,,,,,,,,,,,,,,,,,,ST01_112822,2022-11-29_10h34.50.560,Hippopolis_4AFCT,2022.2.2,60.060034425918744,
Hippopolis,stimuli/subj_files/ST01_112822_cityA.csv,./stimuli/seattle.jpg,./stimuli/street_plate1.png,./stimuli/videos/hippopolis_part1.mp4,HEGESZTŐ UTCA,stimuli/objects/034a.jpg,object,1,stimuli/objects/116a.jpg,stimuli/objects/108b.jpg,stimuli/objects/116b.jpg,stimuli/objects/116a.jpg,stimuli/objects/108a.jpg,dist2,lure,target,dist1,0,0,0,1,0,0,0,26,,,,,59.626015124842525,59.626015124842525,62.60373276099563,63.664124604314566,63.664124604314566,63.664124604314566,63.664124604314566,63.664124604314566,63.664124604314566,63.664124604314566,63.664124604314566,63.664124604314566,63.664124604314566,63.664124604314566,63.664124604314566,67.06448095478117,f,3.4988019336014986,lure,None,,,,,,,,,,,,,,ST01_112822,2022-11-29_10h34.50.560,Hippopolis_4AFCT,2022.2.2,60.060034425918744,
Hippopolis,stimuli/subj_files/ST01_112822_cityA.csv,./stimuli/seattle.jpg,./stimuli/street_plate1.png,./stimuli/videos/hippopolis_part1.mp4,SZALVÉTA UTCA,stimuli/scenes/026a.jpg,scene,0,stimuli/scenes/026a.jpg,stimuli/scenes/026b.jpg,stimuli/objects/050b.jpg,stimuli/objects/050a.jpg,stimuli/scenes/026a.jpg,lure,dist2,dist1,target,0,0,0,1,0,1,1,4,,,,,,,67.19241498969495,68.28332433477044,68.28332433477044,68.28332433477044,68.28332433477044,68.28332433477044,68.28332433477044,68.28332433477044,68.28332433477044,68.28332433477044,68.28332433477044,68.28332433477044,68.28332433477044,,k,2.3672337885946035,target,None,,,,,,,,,,,,,,ST01_112822,2022-11-29_10h34.50.560,Hippopolis_4AFCT,2022.2.2,60.060034425918744,
Hippopolis,stimuli/subj_files/ST01_112822_cityA.csv,./stimuli/seattle.jpg,./stimuli/street_plate1.png,./stimuli/videos/hippopolis_part1.mp4,HENTES UTCA,stimuli/scenes/073a.jpg,scene,1,stimuli/scenes/093a.jpg,stimuli/scenes/093a.jpg,stimuli/scenes/020b.jpg,stimuli/scenes/093b.jpg,stimuli/scenes/020a.jpg,target,dist2,lure,dist1,0,0,0,1,0,2,2,67,,,,,,,70.67240981385112,71.71534735709429,71.71534735709429,71.71534735709429,71.71534735709429,71.71534735709429,71.71534735709429,71.71534735709429,71.71534735709429,71.71534735709429,71.71534735709429,71.71534735709429,71.71534735709429,75.18036318011582,d,3.8475492615252733,target,None,,,,,,,,,,,,,,ST01_112822,2022-11-29_10h34.50.560,Hippopolis_4AFCT,2022.2.2,60.060034425918744,
Hippopolis,stimuli/subj_files/ST01_112822_cityA.csv,./stimuli/seattle.jpg,./stimuli/street_plate1.png,./stimuli/videos/hippopolis_part1.mp4,MOSODA UTCA,stimuli/scenes/076a.jpg,scene,0,stimuli/scenes/076a.jpg,stimuli/scenes/076a.jpg,stimuli/scenes/026a.jpg,stimuli/scenes/026b.jpg,stimuli/scenes/076b.jpg,target,dist1,dist2,lure,0,0,0,1,0,3,3,75,,,,,,,75.5819644909352,76.63585940934718,76.63585940934718,76.63585940934718,76.63585940934718,76.63585940934718,76.63585940934718,76.63585940934718,76.63585940934718,76.63585940934718,76.63585940934718,76.63585940934718,76.63585940934718,,d,2.862406035885215,target,None,,,,,,,,,,,,,,ST01_112822,2022-11-29_10h34.50.560,Hippopolis_4AFCT,2022.2.2,60.060034425918744,
Hippopolis,stimuli/subj_files/ST01_112822_cityA.csv,./stimuli/seattle.jpg,./stimuli/street_plate1.png,./stimuli/videos/hippopolis_part1.mp4,LABDA UTCA,stimuli/scenes/005a.jpg,scene,0,stimuli/scenes/005a.jpg,stimuli/scenes/005a.jpg,stimuli/scenes/061a.jpg,stimuli/scenes/005b.jpg,stimuli/scenes/061b.jpg,target,dist1,lure,dist2,0,0,0,1,0,4,4,18,,,,,,,79.53030632808805,80.59081013314426,80.59081013314426,80.59081013314426,80.59081013314426,80.59081013314426,80.59081013314426,80.59081013314426,80.59081013314426,80.59081013314426,80.59081013314426,80.59081013314426,80.59081013314426,,d,2.411575213074684,target,None,,,,,,,,,,,,,,ST01_112822,2022-11-29_10h34.50.560,Hippopolis_4AFCT,2022.2.2,60.060034425918744,
Hippopolis,stimuli/subj_files/ST01_112822_cityA.csv,./stimuli/seattle.jpg,./stimuli/street_plate1.png,./stimuli/videos/hippopolis_part1.mp4,VASALÓ UTCA,stimuli/scenes/108a.jpg,scene,0,stimuli/scenes/108a.jpg,stimuli/scenes/108a.jpg,stimuli/scenes/116a.jpg,stimuli/scenes/108b.jpg,stimuli/scenes/116b.jpg,target,dist1,lure,dist2,0,0,0,1,0,5,5,65,,,,,,,83.03680014237761,84.1174910608679,84.1174910608679,84.1174910608679,84.1174910608679,84.1174910608679,84.1174910608679,84.1174910608679,84.1174910608679,84.1174910608679,84.1174910608679,84.1174910608679,84.1174910608679,,d,3.012555878609419,target,None,,,,,,,,,,,,,,ST01_112822,2022-11-29_10h34.50.560,Hippopolis_4AFCT,2022.2.2,60.060034425918744,
Hippopolis,stimuli/subj_files/ST01_112822_cityA.csv,./stimuli/seattle.jpg,./stimuli/street_plate1.png,./stimuli/videos/hippopolis_part1.mp4,TÉRKÉP UTCA,stimuli/objects/062a.jpg,object,2,stimuli/scenes/067a.jpg,stimuli/objects/091a.jpg,stimuli/objects/091b.jpg,stimuli/scenes/067b.jpg,stimuli/scenes/067a.jpg,dist1,dist2,lure,target,0,0,0,1,0,6,6,13,,,,,,,87.14634374715388,88.2162956148386,88.2162956148386,88.2162956148386,88.2162956148386,88.2162956148386,88.2162956148386,88.2162956148386,88.2162956148386,88.2162956148386,88.2162956148386,88.2162956148386,88.2162956148386,,k,2.3859952483326197,target,None,,,,,,,,,,,,,,ST01_112822,2022-11-29_10h34.50.560,Hippopolis_4AFCT,2022.2.2,60.060034425918744,
Hippopolis,stimuli/subj_files/ST01_112822_cityA.csv,./stimuli/seattle.jpg,./stimuli/street_plate1.png,./stimuli/videos/hippopolis_part1.mp4,PULÓVER UTCA,stimuli/scenes/071a.jpg,scene,2,stimuli/objects/040a.jpg,stimuli/objects/040b.jpg,stimuli/scenes/060b.jpg,stimuli/objects/040a.jpg,stimuli/scenes/060a.jpg,lure,dist2,target,dist1,0,0,0,1,0,7,7,41,,,,,,,90.62764230929315,91.70886380597949,91.70886380597949,91.70886380597949,91.70886380597949,91.70886380597949,91.70886380597949,91.70886380597949,91.70886380597949,91.70886380597949,91.70886380597949,91.70886380597949,91.70886380597949,,k,2.9419008251279593,dist1,None,,,,,,,,,,,,,,ST01_112822,2022-11-29_10h34.50.560,Hippopolis_4AFCT,2022.2.2,60.060034425918744,
Hippopolis,stimuli/subj_files/ST01_112822_cityA.csv,./stimuli/seattle.jpg,./stimuli/street_plate1.png,./stimuli/videos/hippopolis_part1.mp4,LAKAT UTCA,stimuli/objects/098a.jpg,object,1,stimuli/objects/017a.jpg,stimuli/objects/017b.jpg,stimuli/objects/101a.jpg,stimuli/objects/017a.jpg,stimuli/objects/101b.jpg,lure,dist1,target,dist2,0,0,0,1,0,8,8,7,,,,,,,94.68212627619505,95.76989259012043,95.76989259012043,95.76989259012043,95.76989259012043,95.76989259012043,95.76989259012043,95.76989259012043,95.76989259012043,95.76989259012043,95.76989259012043,95.76989259012043,95.76989259012043,99.18402714654803,None,,invalid,None,,,,,,,,,,,,,,ST01_112822,2022-11-29_10h34.50.560,Hippopolis_4AFCT,2022.2.2,60.060034425918744,
Hippopolis,stimuli/subj_files/ST01_112822_cityA.csv,./stimuli/seattle.jpg,./stimuli/street_plate1.png,./stimuli/videos/hippopolis_part1.mp4,KOKTÉL UTCA,stimuli/objects/013a.jpg,object,1,stimuli/objects/101a.jpg,stimuli/objects/021b.jpg,stimuli/objects/101b.jpg,stimuli/objects/101a.jpg,stimuli/objects/021a.jpg,dist2,lure,target,dist1,0,0,0,1,0,9,9,78,,,,,,,100.68315073102713,101.73918630741537,101.73918630741537,101.73918630741537,101.73918630741537,101.73918630741537,101.73918630741537,101.73918630741537,101.73918630741537,101.73918630741537,101.73918630741537,101.73918630741537,101.73918630741537,105.19003205746412,f,3.598806658759713,lure,None,,,,,,,,,,,,,,ST01_112822,2022-11-29_10h34.50.560,Hippopolis_4AFCT,2022.2.2,60.060034425918744,
Hippopolis,stimuli/subj_files/ST01_112822_cityA.csv,./stimuli/seattle.jpg,./stimuli/street_plate1.png,./stimuli/videos/hippopolis_part1.mp4,TRIATLON UTCA,stimuli/objects/024a.jpg,object,0,stimuli/objects/024a.jpg,stimuli/scenes/069b.jpg,stimuli/objects/024a.jpg,stimuli/objects/024b.jpg,stimuli/scenes/069a.jpg,dist2,target,lure,dist1,0,0,0,1,0,10,10,17,,,,,,,105.36182172596455,106.44022021628916,106.44022021628916,106.44022021628916,106.44022021628916,106.44022021628916,106.44022021628916,106.44022021628916,106.44022021628916,106.44022021628916,106.44022021628916,106.44022021628916,106.44022021628916,,f,2.3222513794898987,target,None,,,,,,,,,,,,,,ST01_112822,2022-11-29_10h34.50.560,Hippopolis_4AFCT,2022.2.2,60.060034425918744,
Hippopolis,stimuli/subj_files/ST01_112822_cityA.csv,./stimuli/seattle.jpg,./stimuli/street_plate1.png,./stimuli/videos/hippopolis_part1.mp4,KÖMÉNYMAG UTCA,stimuli/objects/055a.jpg,object,1,stimuli/objects/084a.jpg,stimuli/scenes/077b.jpg,stimuli/objects/084b.jpg,stimuli/objects/084a.jpg,stimuli/scenes/077a.jpg,dist2,lure,target,dist1,0,0,0,1,0,11,11,70,,,,,,,108.79222036153078,109.86675428785384,109.86675428785384,109.86675428785384,109.86675428785384,109.86675428785384,109.86675428785384,109.86675428785384,109.86675428785384,109.86675428785384,109.86675428785384,109.86675428785384,109.86675428785384,,j,2.3193428479135036,target,None,,,,,,,,,,,,,,ST01_112822,2022-11-29_10h34.50.560,Hippopolis_4AFCT,2022.2.2,60.060034425918744,
Hippopolis,stimuli/subj_files/ST01_112822_cityA.csv,./stimuli/seattle.jpg,./stimuli/street_plate1.png,./stimuli/videos/hippopolis_part1.mp4,HERNYÓ UTCA,stimuli/objects/020a.jpg,object,0,stimuli/objects/020a.jpg,stimuli/objects/020a.jpg,stimuli/objects/020b.jpg,stimuli/objects/090b.jpg,stimuli/objects/090a.jpg,target,lure,dist2,dist1,0,0,0,1,0,12,12,30,,,,,,,112.21262418478727,113.2826180383563,113.2826180383563,113.2826180383563,113.2826180383563,113.2826180383563,113.2826180383563,113.2826180383563,113.2826180383563,113.2826180383563,113.2826180383563,113.2826180383563,113.2826180383563,,d,1.9272965863347054,target,None,,,,,,,,,,,,,,ST01_112822,2022-11-29_10h34.50.560,Hippopolis_4AFCT,2022.2.2,60.060034425918744,
Hippopolis,stimuli/subj_files/ST01_112822_cityA.csv,./stimuli/seattle.jpg,./stimuli/street_plate1.png,./stimuli/videos/hippopolis_part1.mp4,BOLYGÓ UTCA,stimuli/objects/070a.jpg,object,1,stimuli/objects/071a.jpg,stimuli/objects/084a.jpg,stimuli/objects/071b.jpg,stimuli/objects/084b.jpg,stimuli/objects/071a.jpg,dist1,lure,dist2,target,0,0,0,1,0,13,13,11,,,,,,,115.23391599394381,116.30020545050502,116.30020545050502,116.30020545050502,116.30020545050502,116.30020545050502,116.30020545050502,116.30020545050502,116.30020545050502,116.30020545050502,116.30020545050502,116.30020545050502,116.30020545050502,119.73621090874076,f,3.4695129059255123,lure,None,,,,,,,,,,,,,,ST01_112822,2022-11-29_10h34.50.560,Hippopolis_4AFCT,2022.2.2,60.060034425918744,
Hippopolis,stimuli/subj_files/ST01_112822_cityA.csv,./stimuli/seattle.jpg,./stimuli/street_plate1.png,./stimuli/videos/hippopolis_part1.mp4,LÁNDZSA UTCA,stimuli/scenes/045a.jpg,scene,2,stimuli/objects/068a.jpg,stimuli/scenes/072a.jpg,stimuli/objects/068a.jpg,stimuli/objects/068b.jpg,stimuli/scenes/072b.jpg,dist1,target,lure,dist2,0,0,0,1,0,14,14,40,,,,,,,119.78983245417476,120.88190651871264,120.88190651871264,120.88190651871264,120.88190651871264,120.88190651871264,120.88190651871264,120.88190651871264,120.88190651871264,120.88190651871264,120.88190651871264,120.88190651871264,120.88190651871264,,f,2.2804972156882286,target,None,,,,,,,,,,,,,,ST01_112822,2022-11-29_10h34.50.560,Hippopolis_4AFCT,2022.2.2,60.060034425918744,
Hippopolis,stimuli/subj_files/ST01_112822_cityA.csv,./stimuli/seattle.jpg,./stimuli/street_plate1.png,./stimuli/videos/hippopolis_part1.mp4,KESELYŰ UTCA,stimuli/scenes/118a.jpg,scene,2,stimuli/objects/036a.jpg,stimuli/objects/036b.jpg,stimuli/objects/036a.jpg,stimuli/objects/040a.jpg,stimuli/objects/040b.jpg,lure,target,dist1,dist2,0,0,0,1,0,15,15,23,,,,,,,123.17900937050581,124.23271986283362,124.23271986283362,124.23271986283362,124.23271986283362,124.23271986283362,124.23271986283362,124.23271986283362,124.23271986283362,124.23271986283362,124.23271986283362,124.23271986283362,124.23271986283362,,f,2.9455486182123423,target,None,,,,,,,,,,,,,,ST01_112822,2022-11-29_10h34.50.560,Hippopolis_4AFCT,2022.2.2,60.060034425918744,
Hippopolis,stimuli/subj_files/ST01_112822_cityA.csv,./stimuli/seattle.jpg,./stimuli/street_plate1.png,./stimuli/videos/hippopolis_part1.mp4,LEMEZ UTCA,stimuli/scenes/117a.jpg,scene,1,stimuli/scenes/020a.jpg,stimuli/objects/092b.jpg,stimuli/scenes/020b.jpg,stimuli/scenes/020a.jpg,stimuli/objects/092a.jpg,dist2,lure,target,dist1,0,0,0,1,0,16,16,71,,,,,,,127.19757116399705,128.23185588605702,128.23185588605702,128.23185588605702,128.23185588605702,128.23185588605702,128.23185588605702,128.23185588605702,128.23185588605702,128.23185588605702,128.23185588605702,128.23185588605702,128.23185588605702,,j,2.801858689635992,target,None,128.23185588605702,,,,,,,,,,,,,ST01_112822,2022-11-29_10h34.50.560,Hippopolis_4AFCT,2022.2.2,60.060034425918744,
Hippopolis,stimuli/subj_files/ST01_112822_cityA.csv,./stimuli/seattle.jpg,./stimuli/street_plate1.png,./stimuli/videos/hippopolis_part1.mp4,KOCSI UTCA,stimuli/objects/117a.jpg,object,1,stimuli/objects/006a.jpg,stimuli/objects/006a.jpg,stimuli/objects/006b.jpg,stimuli/objects/017a.jpg,stimuli/objects/017b.jpg,target,lure,dist1,dist2,0,0,0,1,0,17,17,46,,,,,,,131.06362008862197,132.13475378230214,132.13475378230214,132.13475378230214,132.13475378230214,132.13475378230214,132.13475378230214,132.13475378230214,132.13475378230214,132.13475378230214,132.13475378230214,132.13475378230214,132.13475378230214,,d,1.5868058577179909,target,None,132.13475378230214,,,,,,,,,,,,,ST01_112822,2022-11-29_10h34.50.560,Hippopolis_4AFCT,2022.2.2,60.060034425918744,
Hippopolis,stimuli/subj_files/ST01_112822_cityA.csv,./stimuli/seattle.jpg,./stimuli/street_plate1.png,./stimuli/videos/hippopolis_part1.mp4,FOLYÓ UTCA,stimuli/objects/023a.jpg,object,0,stimuli/objects/023a.jpg,stimuli/objects/023a.jpg,stimuli/scenes/023b.jpg,stimuli/objects/023b.jpg,stimuli/scenes/023a.jpg,target,dist2,lure,dist1,0,0,0,1,0,18,18,27,,,,,,,133.75277293287218,134.83133283630013,134.83133283630013,134.83133283630013,134.83133283630013,134.83133283630013,134.83133283630013,134.83133283630013,134.83133283630013,134.83133283630013,134.83133283630013,134.83133283630013,134.83133283630013,,d,1.4179816339164972,target,None,,,,,,,,,,,,,,ST01_112822,2022-11-29_10h34.50.560,Hippopolis_4AFCT,2022.2.2,60.060034425918744,
Hippopolis,stimuli/subj_files/ST01_112822_cityA.csv,./stimuli/seattle.jpg,./stimuli/street_plate1.png,./stimuli/videos/hippopolis_part1.mp4,HÁRFA UTCA,stimuli/scenes/097a.jpg,scene,2,stimuli/objects/106a.jpg,stimuli/objects/106b.jpg,stimuli/objects/106a.jpg,stimuli/objects/002a.jpg,stimuli/objects/002b.jpg,lure,target,dist1,dist2,0,0,0,1,0,19,19,62,,,,,,,136.28755930811167,137.35049051977694,137.35049051977694,137.35049051977694,137.35049051977694,137.35049051977694,137.35049051977694,137.35049051977694,137.35049051977694,137.35049051977694,137.35049051977694,137.35049051977694,137.35049051977694,,f,2.6108538024127483,target,None,,,,,,,,,,,,,,ST01_112822,2022-11-29_10h34.50.560,Hippopolis_4AFCT,2022.2.2,60.060034425918744,
Hippopolis,stimuli/subj_files/ST01_112822_cityA.csv,./stimuli/seattle.jpg,./stimuli/street_plate1.png,./stimuli/videos/hippopolis_part1.mp4,FÜZET UTCA,stimuli/objects/033a.jpg,object,2,stimuli/scenes/105a.jpg,stimuli/objects/079b.jpg,stimuli/scenes/105b.jpg,stimuli/objects/079a.jpg,stimuli/scenes/105a.jpg,dist2,lure,dist1,target,0,0,0,1,0,20,20,66,,,,,,,139.98349022492766,141.05592921189964,141.05592921189964,141.05592921189964,141.05592921189964,141.05592921189964,141.05592921189964,141.05592921189964,141.05592921189964,141.05592921189964,141.05592921189964,141.05592921189964,141.05592921189964,,k,2.4900841116905212,target,None,,,,,,,,,,,,,,ST01_112822,2022-11-29_10h34.50.560,Hippopolis_4AFCT,2022.2.2,60.060034425918744,
Hippopolis,stimuli/subj_files/ST01_112822_cityA.csv,./stimuli/seattle.jpg,./stimuli/street_plate1.png,./stimuli/videos/hippopolis_part1.mp4,MAJOM UTCA,stimuli/objects/018a.jpg,object,2,stimuli/scenes/010a.jpg,stimuli/objects/119a.jpg,stimuli/objects/119b.jpg,stimuli/scenes/010b.jpg,stimuli/scenes/010a.jpg,dist1,dist2,lure,target,0,0,0,1,0,21,21,73,,,,,,,143.56211264058948,144.6306615602225,144.6306615602225,144.6306615602225,144.6306615602225,144.6306615602225,144.6306615602225,144.6306615602225,144.6306615602225,144.6306615602225,144.6306615602225,144.6306615602225,144.6306615602225,,k,2.9309900999069214,target,None,144.6306615602225,,,,,,,,,,,,,ST01_112822,2022-11-29_10h34.50.560,Hippopolis_4AFCT,2022.2.2,60.060034425918744,
Hippopolis,stimuli/subj_files/ST01_112822_cityA.csv,./stimuli/seattle.jpg,./stimuli/street_plate1.png,./stimuli/videos/hippopolis_part1.mp4,RIBIZLI UTCA,stimuli/objects/120a.jpg,object,2,stimuli/scenes/035a.jpg,stimuli/scenes/035b.jpg,stimuli/objects/036b.jpg,stimuli/scenes/035a.jpg,stimuli/objects/036a.jpg,lure,dist2,target,dist1,0,0,0,1,0,22,22,76,,,,,,,147.57866222411394,148.63215718977153,148.63215718977153,148.63215718977153,148.63215718977153,148.63215718977153,148.63215718977153,148.63215718977153,148.63215718977153,148.63215718977153,148.63215718977153,148.63215718977153,148.63215718977153,,j,2.704951275140047,target,None,,,,,,,,,,,,,,ST01_112822,2022-11-29_10h34.50.560,Hippopolis_4AFCT,2022.2.2,60.060034425918744,
Hippopolis,stimuli/subj_files/ST01_112822_cityA.csv,./stimuli/seattle.jpg,./stimuli/street_plate1.png,./stimuli/videos/hippopolis_part1.mp4,ORVOS UTCA,stimuli/objects/004a.jpg,object,2,stimuli/scenes/038a.jpg,stimuli/objects/068b.jpg,stimuli/objects/068a.jpg,stimuli/scenes/038a.jpg,stimuli/scenes/038b.jpg,dist2,dist1,target,lure,0,0,0,1,0,23,23,6,,,,,,,151.3752537816763,152.42595062218606,152.42595062218606,152.42595062218606,152.42595062218606,152.42595062218606,152.42595062218606,152.42595062218606,152.42595062218606,152.42595062218606,152.42595062218606,152.42595062218606,152.42595062218606,155.86944356001914,j,3.4077709820121527,target,None,,,,,,,,,,,,,,ST01_112822,2022-11-29_10h34.50.560,Hippopolis_4AFCT,2022.2.2,60.060034425918744,
Hippopolis,stimuli/subj_files/ST01_112822_cityA.csv,./stimuli/seattle.jpg,./stimuli/street_plate1.png,./stimuli/videos/hippopolis_part1.mp4,MANDARIN UTCA,stimuli/objects/014a.jpg,object,1,stimuli/objects/115a.jpg,stimuli/scenes/114b.jpg,stimuli/objects/115b.jpg,stimuli/objects/115a.jpg,stimuli/scenes/114a.jpg,dist2,lure,target,dist1,0,0,0,1,0,24,24,29,,,,,,,155.86944356001914,156.93656216003,156.93656216003,156.93656216003,156.93656216003,156.93656216003,156.93656216003,156.93656216003,156.93656216003,156.93656216003,156.93656216003,156.93656216003,156.93656216003,,j,1.9849963579326868,target,None,,,,,,,,,,,,,,ST01_112822,2022-11-29_10h34.50.560,Hippopolis_4AFCT,2022.2.2,60.060034425918744,
Hippopolis,stimuli/subj_files/ST01_112822_cityA.csv,./stimuli/seattle.jpg,./stimuli/street_plate1.png,./stimuli/videos/hippopolis_part1.mp4,MÁRVÁNY UTCA,stimuli/objects/072a.jpg,object,2,stimuli/scenes/110a.jpg,stimuli/scenes/110a.jpg,stimuli/scenes/110b.jpg,stimuli/scenes/095b.jpg,stimuli/scenes/095a.jpg,target,lure,dist2,dist1,0,0,0,1,0,25,25,42,,,,,,,158.9456006269902,159.99695773608983,159.99695773608983,159.99695773608983,159.99695773608983,159.99695773608983,159.99695773608983,159.99695773608983,159.99695773608983,159.99695773608983,159.99695773608983,159.99695773608983,159.99695773608983,,d,1.756310248747468,target,None,,,,,,,,,,,,,,ST01_112822,2022-11-29_10h34.50.560,Hippopolis_4AFCT,2022.2.2,60.060034425918744,
Hippopolis,stimuli/subj_files/ST01_112822_cityA.csv,./stimuli/seattle.jpg,./stimuli/street_plate1.png,./stimuli/videos/hippopolis_part1.mp4,ÁLLOMÁS UTCA,stimuli/objects/073a.jpg,object,2,stimuli/scenes/068a.jpg,stimuli/scenes/068a.jpg,stimuli/objects/104a.jpg,stimuli/scenes/068b.jpg,stimuli/objects/104b.jpg,target,dist1,lure,dist2,0,0,0,1,0,26,26,35,,,,,,,161.7824258375913,162.8386893812567,162.8386893812567,162.8386893812567,162.8386893812567,162.8386893812567,162.8386893812567,162.8386893812567,162.8386893812567,162.8386893812567,162.8386893812567,162.8386893812567,162.8386893812567,,d,3.1065074894577265,target,None,,,,,,,,,,,,,,ST01_112822,2022-11-29_10h34.50.560,Hippopolis_4AFCT,2022.2.2,60.060034425918744,
Hippopolis,stimuli/subj_files/ST01_112822_cityA.csv,./stimuli/seattle.jpg,./stimuli/street_plate1.png,./stimuli/videos/hippopolis_part1.mp4,DOMINÓ UTCA,stimuli/scenes/046a.jpg,scene,1,stimuli/scenes/114a.jpg,stimuli/scenes/114a.jpg,stimuli/scenes/093b.jpg,stimuli/scenes/114b.jpg,stimuli/scenes/093a.jpg,target,dist2,lure,dist1,0,0,0,1,0,27,27,68,,,,,,,165.9732677564025,167.03820588998497,167.03820588998497,167.03820588998497,167.03820588998497,167.03820588998497,167.03820588998497,167.03820588998497,167.03820588998497,167.03820588998497,167.03820588998497,167.03820588998497,167.03820588998497,,j,2.3949329517781734,lure,None,,,,,,,,,,,,,,ST01_112822,2022-11-29_10h34.50.560,Hippopolis_4AFCT,2022.2.2,60.060034425918744,
Hippopolis,stimuli/subj_files/ST01_112822_cityA.csv,./stimuli/seattle.jpg,./stimuli/street_plate1.png,./stimuli/videos/hippopolis_part1.mp4,ZONGORA UTCA,stimuli/objects/085a.jpg,object,2,stimuli/scenes/042a.jpg,stimuli/objects/087a.jpg,stimuli/objects/087b.jpg,stimuli/scenes/042a.jpg,stimuli/scenes/042b.jpg,dist1,dist2,target,lure,0,0,0,1,0,28,28,16,,,,,,,169.4758500419557,170.55474489927292,170.55474489927292,170.55474489927292,170.55474489927292,170.55474489927292,170.55474489927292,170.55474489927292,170.55474489927292,170.55474489927292,170.55474489927292,170.55474489927292,170.55474489927292,,j,2.814637631177902,target,None,,,,,,,,,,,,,,ST01_112822,2022-11-29_10h34.50.560,Hippopolis_4AFCT,2022.2.2,60.060034425918744,
Hippopolis,stimuli/subj_files/ST01_112822_cityA.csv,./stimuli/seattle.jpg,./stimuli/street_plate1.png,./stimuli/videos/hippopolis_part1.mp4,VIHAR UTCA,stimuli/objects/056a.jpg,object,0,stimuli/objects/056a.jpg,stimuli/objects/056a.jpg,stimuli/objects/056b.jpg,stimuli/objects/027b.jpg,stimuli/objects/027a.jpg,target,lure,dist2,dist1,0,0,0,1,0,29,29,44,,,,,,,173.3998385258019,174.50527031347156,174.50527031347156,174.50527031347156,174.50527031347156,174.50527031347156,174.50527031347156,174.50527031347156,174.50527031347156,174.50527031347156,174.50527031347156,174.50527031347156,174.50527031347156,,d,1.6797734424471855,target,None,,,,,,,,,,,,,,ST01_112822,2022-11-29_10h34.50.560,Hippopolis_4AFCT,2022.2.2,60.060034425918744,
Hippopolis,stimuli/subj_files/ST01_112822_cityA.csv,./stimuli/seattle.jpg,./stimuli/street_plate1.png,./stimuli/videos/hippopolis_part1.mp4,ÁRNYÉK UTCA,stimuli/objects/097a.jpg,object,2,stimuli/scenes/072a.jpg,stimuli/objects/083a.jpg,stimuli/objects/083b.jpg,stimuli/scenes/072b.jpg,stimuli/scenes/072a.jpg,dist1,dist2,lure,target,0,0,0,1,0,30,30,10,,,,,,,176.20949048362672,177.2659785747528,177.2659785747528,177.2659785747528,177.2659785747528,177.2659785747528,177.2659785747528,177.2659785747528,177.2659785747528,177.2659785747528,177.2659785747528,177.2659785747528,177.2659785747528,,k,2.502736473456025,target,None,,,,,,,,,,,,,,ST01_112822,2022-11-29_10h34.50.560,Hippopolis_4AFCT,2022.2.2,60.060034425918744,
Hippopolis,stimuli/subj_files/ST01_112822_cityA.csv,./stimuli/seattle.jpg,./stimuli/street_plate1.png,./stimuli/videos/hippopolis_part1.mp4,SUGÁR UTCA,stimuli/scenes/069a.jpg,scene,0,stimuli/scenes/069a.jpg,stimuli/scenes/069b.jpg,stimuli/objects/089a.jpg,stimuli/scenes/069a.jpg,stimuli/objects/089b.jpg,lure,dist1,target,dist2,0,0,0,1,0,31,31,72,,,,,,,179.80793831311166,180.8812316339463,180.8812316339463,180.8812316339463,180.8812316339463,180.8812316339463,180.8812316339463,180.8812316339463,180.8812316339463,180.8812316339463,180.8812316339463,180.8812316339463,180.8812316339463,,j,3.031802510842681,target,None,,,,,,,,,,,,,,ST01_112822,2022-11-29_10h34.50.560,Hippopolis_4AFCT,2022.2.2,60.060034425918744,
Hippopolis,stimuli/subj_files/ST01_112822_cityA.csv,./stimuli/seattle.jpg,./stimuli/street_plate1.png,./stimuli/videos/hippopolis_part1.mp4,EGÉR UTCA,stimuli/objects/096a.jpg,object,2,stimuli/scenes/095a.jpg,stimuli/scenes/095a.jpg,stimuli/scenes/105a.jpg,stimuli/scenes/095b.jpg,stimuli/scenes/105b.jpg,target,dist1,lure,dist2,0,0,0,1,0,32,32,74,,,,,,,183.94518356770277,185.00274618528783,185.00274618528783,185.00274618528783,185.00274618528783,185.00274618528783,185.00274618528783,185.00274618528783,185.00274618528783,185.00274618528783,185.00274618528783,185.00274618528783,185.00274618528783,,d,1.5185284446924925,target,None,,,,,,,,,,,,,,ST01_112822,2022-11-29_10h34.50.560,Hippopolis_4AFCT,2022.2.2,60.060034425918744,
Hippopolis,stimuli/subj_files/ST01_112822_cityA.csv,./stimuli/seattle.jpg,./stimuli/street_plate1.png,./stimuli/videos/hippopolis_part1.mp4,VÖDÖR UTCA,stimuli/objects/009a.jpg,object,1,stimuli/objects/048a.jpg,stimuli/objects/071b.jpg,stimuli/objects/048a.jpg,stimuli/objects/071a.jpg,stimuli/objects/048b.jpg,dist2,target,dist1,lure,0,0,0,1,0,33,33,58,,,,,,,186.54407053813338,187.6234692260623,187.6234692260623,187.6234692260623,187.6234692260623,187.6234692260623,187.6234692260623,187.6234692260623,187.6234692260623,187.6234692260623,187.6234692260623,187.6234692260623,187.6234692260623,,f,3.217798015102744,target,None,,,,,,,,,,,,,,ST01_112822,2022-11-29_10h34.50.560,Hippopolis_4AFCT,2022.2.2,60.060034425918744,
Hippopolis,stimuli/subj_files/ST01_112822_cityA.csv,./stimuli/seattle.jpg,./stimuli/street_plate1.png,./stimuli/videos/hippopolis_part1.mp4,SZAPPAN UTCA,stimuli/objects/080a.jpg,object,1,stimuli/objects/022a.jpg,stimuli/scenes/052b.jpg,stimuli/objects/022a.jpg,stimuli/scenes/052a.jpg,stimuli/objects/022b.jpg,dist2,target,dist1,lure,0,0,0,1,0,34,34,69,,,,,,,190.86998626589775,191.94162285514176,191.94162285514176,191.94162285514176,191.94162285514176,191.94162285514176,191.94162285514176,191.94162285514176,191.94162285514176,191.94162285514176,191.94162285514176,191.94162285514176,191.94162285514176,,f,2.3875546362251043,target,None,191.94162285514176,,,,,,,,,,,,,ST01_112822,2022-11-29_10h34.50.560,Hippopolis_4AFCT,2022.2.2,60.060034425918744,
Hippopolis,stimuli/subj_files/ST01_112822_cityA.csv,./stimuli/seattle.jpg,./stimuli/street_plate1.png,./stimuli/videos/hippopolis_part1.mp4,KANÁL UTCA,stimuli/objects/118a.jpg,object,1,stimuli/objects/021a.jpg,stimuli/scenes/091b.jpg,stimuli/objects/021b.jpg,stimuli/objects/021a.jpg,stimuli/scenes/091a.jpg,dist2,lure,target,dist1,0,0,0,1,0,35,35,0,,,,,,,194.36161304078996,195.4500228278339,195.4500228278339,195.4500228278339,195.4500228278339,195.4500228278339,195.4500228278339,195.4500228278339,195.4500228278339,195.4500228278339,195.4500228278339,195.4500228278339,195.4500228278339,198.8624882120639,f,3.6310465149581432,lure,None,,,,,,,,,,,,,,ST01_112822,2022-11-29_10h34.50.560,Hippopolis_4AFCT,2022.2.2,60.060034425918744,
Hippopolis,stimuli/subj_files/ST01_112822_cityA.csv,./stimuli/seattle.jpg,./stimuli/street_plate1.png,./stimuli/videos/hippopolis_part1.mp4,SZŐNYEG UTCA,stimuli/scenes/061a.jpg,scene,0,stimuli/scenes/061a.jpg,stimuli/scenes/047b.jpg,stimuli/scenes/061a.jpg,stimuli/scenes/047a.jpg,stimuli/scenes/061b.jpg,dist2,target,dist1,lure,0,0,0,1,0,36,36,59,,,,,,,199.1129562780261,200.18633450381458,200.18633450381458,200.18633450381458,200.18633450381458,200.18633450381458,200.18633450381458,200.18633450381458,200.18633450381458,200.18633450381458,200.18633450381458,200.18633450381458,200.18633450381458,,f,3.2942719999700785,target,None,200.18633450381458,,,,,,,,,,,,,ST01_112822,2022-11-29_10h34.50.560,Hippopolis_4AFCT,2022.2.2,60.060034425918744,
Hippopolis,stimuli/subj_files/ST01_112822_cityA.csv,./stimuli/seattle.jpg,./stimuli/street_plate1.png,./stimuli/videos/hippopolis_part1.mp4,FÉSZEK UTCA,stimuli/objects/077a.jpg,object,2,stimuli/scenes/074a.jpg,stimuli/scenes/074a.jpg,stimuli/scenes/074b.jpg,stimuli/scenes/038a.jpg,stimuli/scenes/038b.jpg,target,lure,dist1,dist2,0,0,0,1,0,37,37,54,,,,,,,203.51152247563004,204.55191629752517,204.55191629752517,204.55191629752517,204.55191629752517,204.55191629752517,204.55191629752517,204.55191629752517,204.55191629752517,204.55191629752517,204.55191629752517,204.55191629752517,204.55191629752517,208.01205709576607,f,3.7289205379784107,lure,None,,,,,,,,,,,,,,ST01_112822,2022-11-29_10h34.50.560,Hippopolis_4AFCT,2022.2.2,60.060034425918744,
Hippopolis,stimuli/subj_files/ST01_112822_cityA.csv,./stimuli/seattle.jpg,./stimuli/street_plate1.png,./stimuli/videos/hippopolis_part1.mp4,TOBOZ UTCA,stimuli/scenes/096a.jpg,scene,2,stimuli/objects/076a.jpg,stimuli/objects/076a.jpg,stimuli/objects/076b.jpg,stimuli/scenes/074a.jpg,stimuli/scenes/074b.jpg,target,lure,dist1,dist2,0,0,0,1,0,38,38,5,,,,,,,208.3109550755471,209.36465188488364,209.36465188488364,209.36465188488364,209.36465188488364,209.36465188488364,209.36465188488364,209.36465188488364,209.36465188488364,209.36465188488364,209.36465188488364,209.36465188488364,209.36465188488364,,d,2.403796009719372,target,None,,,,,,,,,,,,,,ST01_112822,2022-11-29_10h34.50.560,Hippopolis_4AFCT,2022.2.2,60.060034425918744,
Hippopolis,stimuli/subj_files/ST01_112822_cityA.csv,./stimuli/seattle.jpg,./stimuli/street_plate1.png,./stimuli/videos/hippopolis_part1.mp4,KÁRTYA UTCA,stimuli/scenes/030a.jpg,scene,2,stimuli/objects/093a.jpg,stimuli/objects/093b.jpg,stimuli/objects/093a.jpg,stimuli/objects/076b.jpg,stimuli/objects/076a.jpg,lure,target,dist2,dist1,0,0,0,1,0,39,39,9,,,,,,,211.79570487700403,212.87306180782616,212.87306180782616,212.87306180782616,212.87306180782616,212.87306180782616,212.87306180782616,212.87306180782616,212.87306180782616,212.87306180782616,212.87306180782616,212.87306180782616,212.87306180782616,,f,2.95965058170259,target,None,212.87306180782616,,,,,,,,,,,,,ST01_112822,2022-11-29_10h34.50.560,Hippopolis_4AFCT,2022.2.2,60.060034425918744,
Hippopolis,stimuli/subj_files/ST01_112822_cityA.csv,./stimuli/seattle.jpg,./stimuli/street_plate1.png,./stimuli/videos/hippopolis_part1.mp4,LEVÉL UTCA,stimuli/scenes/008a.jpg,scene,1,stimuli/scenes/013a.jpg,stimuli/scenes/013b.jpg,stimuli/scenes/102a.jpg,stimuli/scenes/102b.jpg,stimuli/scenes/013a.jpg,lure,dist1,dist2,target,0,0,0,1,0,40,40,25,,,,,,,215.85530116595328,216.92983104847372,216.92983104847372,216.92983104847372,216.92983104847372,216.92983104847372,216.92983104847372,216.92983104847372,216.92983104847372,216.92983104847372,216.92983104847372,216.92983104847372,216.92983104847372,220.34816263616085,k,4.135195652022958,target,None,,,,,,,,,,,,,,ST01_112822,2022-11-29_10h34.50.560,Hippopolis_4AFCT,2022.2.2,60.060034425918744,
Hippopolis,stimuli/subj_files/ST01_112822_cityA.csv,./stimuli/seattle.jpg,./stimuli/street_plate1.png,./stimuli/videos/hippopolis_part1.mp4,VITORLA UTCA,stimuli/objects/044a.jpg,object,0,stimuli/objects/044a.jpg,stimuli/scenes/031a.jpg,stimuli/objects/044b.jpg,stimuli/objects/044a.jpg,stimuli/scenes/031b.jpg,dist1,lure,target,dist2,0,0,0,1,0,41,41,47,,,,,,,221.09471886232495,222.1693818550557,222.1693818550557,222.1693818550557,222.1693818550557,222.1693818550557,222.1693818550557,222.1693818550557,222.1693818550557,222.1693818550557,222.1693818550557,222.1693818550557,222.1693818550557,,j,2.0150072313845158,target,None,222.1693818550557,,,,,,,,,,,,,ST01_112822,2022-11-29_10h34.50.560,Hippopolis_4AFCT,2022.2.2,60.060034425918744,
Hippopolis,stimuli/subj_files/ST01_112822_cityA.csv,./stimuli/seattle.jpg,./stimuli/street_plate1.png,./stimuli/videos/hippopolis_part1.mp4,TELEFON UTCA,stimuli/scenes/047a.jpg,scene,0,stimuli/scenes/047a.jpg,stimuli/scenes/047b.jpg,stimuli/scenes/047a.jpg,stimuli/objects/056a.jpg,stimuli/objects/056b.jpg,lure,target,dist1,dist2,0,0,0,1,0,42,42,56,,,,,,,224.21895254217088,225.28116657212377,225.28116657212377,225.28116657212377,225.28116657212377,225.28116657212377,225.28116657212377,225.28116657212377,225.28116657212377,225.28116657212377,225.28116657212377,225.28116657212377,225.28116657212377,,f,2.4396283011883497,target,None,,,,,,,,,,,,,,ST01_112822,2022-11-29_10h34.50.560,Hippopolis_4AFCT,2022.2.2,60.060034425918744,
Hippopolis,stimuli/subj_files/ST01_112822_cityA.csv,./stimuli/seattle.jpg,./stimuli/street_plate1.png,./stimuli/videos/hippopolis_part1.mp4,AJÁNDÉK UTCA,stimuli/scenes/094a.jpg,scene,2,stimuli/objects/091a.jpg,stimuli/scenes/110b.jpg,stimuli/objects/091b.jpg,stimuli/scenes/110a.jpg,stimuli/objects/091a.jpg,dist2,lure,dist1,target,0,0,0,1,0,43,43,2,,,,,,,227.74353417754173,228.8022835943848,228.8022835943848,228.8022835943848,228.8022835943848,228.8022835943848,228.8022835943848,228.8022835943848,228.8022835943848,228.8022835943848,228.8022835943848,228.8022835943848,228.8022835943848,,k,1.5738779418170452,target,None,,,,,,,,,,,,,,ST01_112822,2022-11-29_10h34.50.560,Hippopolis_4AFCT,2022.2.2,60.060034425918744,
Hippopolis,stimuli/subj_files/ST01_112822_cityA.csv,./stimuli/seattle.jpg,./stimuli/street_plate1.png,./stimuli/videos/hippopolis_part1.mp4,ZEBRA UTCA,stimuli/scenes/023a.jpg,scene,0,stimuli/scenes/023a.jpg,stimuli/scenes/023b.jpg,stimuli/scenes/076b.jpg,stimuli/scenes/076a.jpg,stimuli/scenes/023a.jpg,lure,dist2,dist1,target,0,0,0,1,0,44,44,53,,,,,,,230.39774825051427,231.4513738397509,231.4513738397509,231.4513738397509,231.4513738397509,231.4513738397509,231.4513738397509,231.4513738397509,231.4513738397509,231.4513738397509,231.4513738397509,231.4513738397509,231.4513738397509,,k,1.8532263729721308,target,space,,233.32959244400263,233.32959244400263,2.342813255265355,,,,,,,,,,ST01_112822,2022-11-29_10h34.50.560,Hippopolis_4AFCT,2022.2.2,60.060034425918744,
Hippopolis,stimuli/subj_files/ST01_112822_cityA.csv,./stimuli/seattle.jpg,./stimuli/street_plate1.png,./stimuli/videos/hippopolis_part1.mp4,SÜTEMÉNY UTCA,stimuli/objects/075a.jpg,object,0,stimuli/objects/075a.jpg,stimuli/scenes/108b.jpg,stimuli/scenes/108a.jpg,stimuli/objects/075a.jpg,stimuli/objects/075b.jpg,dist2,dist1,target,lure,0,0,0,1,0,45,45,60,,,,,,,235.70681396313012,236.7814850434661,236.7814850434661,236.7814850434661,236.7814850434661,236.7814850434661,236.7814850434661,236.7814850434661,236.7814850434661,236.7814850434661,236.7814850434661,236.7814850434661,236.7814850434661,,j,1.851506194099784,target,None,,,,,,,,,,,,,,ST01_112822,2022-11-29_10h34.50.560,Hippopolis_4AFCT,2022.2.2,60.060034425918744,
Hippopolis,stimuli/subj_files/ST01_112822_cityA.csv,./stimuli/seattle.jpg,./stimuli/street_plate1.png,./stimuli/videos/hippopolis_part1.mp4,PAPRIKA UTCA,stimuli/objects/039a.jpg,object,0,stimuli/objects/039a.jpg,stimuli/objects/039b.jpg,stimuli/objects/039a.jpg,stimuli/scenes/056a.jpg,stimuli/scenes/056b.jpg,lure,target,dist1,dist2,0,0,0,1,0,46,46,8,,,,,,,238.6557871438563,239.73833570443094,239.73833570443094,239.73833570443094,239.73833570443094,239.73833570443094,239.73833570443094,239.73833570443094,239.73833570443094,239.73833570443094,239.73833570443094,239.73833570443094,239.73833570443094,,f,1.9980297051370144,target,None,,,,,,,,,,,,,,ST01_112822,2022-11-29_10h34.50.560,Hippopolis_4AFCT,2022.2.2,60.060034425918744,
Hippopolis,stimuli/subj_files/ST01_112822_cityA.csv,./stimuli/seattle.jpg,./stimuli/street_plate1.png,./stimuli/videos/hippopolis_part1.mp4,FIÓK UTCA,stimuli/scenes/112a.jpg,scene,2,stimuli/objects/087a.jpg,stimuli/objects/087b.jpg,stimuli/scenes/010b.jpg,stimuli/objects/087a.jpg,stimuli/scenes/010a.jpg,lure,dist2,target,dist1,0,0,0,1,0,47,47,55,,,,,,,241.76166522689164,242.81394415721297,242.81394415721297,242.81394415721297,242.81394415721297,242.81394415721297,242.81394415721297,242.81394415721297,242.81394415721297,242.81394415721297,242.81394415721297,242.81394415721297,242.81394415721297,,j,2.634785123169422,target,None,242.81394415721297,,,,,,,,,,,,,ST01_112822,2022-11-29_10h34.50.560,Hippopolis_4AFCT,2022.2.2,60.060034425918744,
Hippopolis,stimuli/subj_files/ST01_112822_cityA.csv,./stimuli/seattle.jpg,./stimuli/street_plate1.png,./stimuli/videos/hippopolis_part1.mp4,SZÖCSKE UTCA,stimuli/objects/090a.jpg,object,0,stimuli/objects/090a.jpg,stimuli/objects/023b.jpg,stimuli/objects/023a.jpg,stimuli/objects/090b.jpg,stimuli/objects/090a.jpg,dist2,dist1,lure,target,0,0,0,1,0,48,48,28,,,,,,,245.48555001989007,246.54177344590425,246.54177344590425,246.54177344590425,246.54177344590425,246.54177344590425,246.54177344590425,246.54177344590425,246.54177344590425,246.54177344590425,246.54177344590425,246.54177344590425,246.54177344590425,,k,1.6906686183065176,target,None,,,,,,,,,,,,,,ST01_112822,2022-11-29_10h34.50.560,Hippopolis_4AFCT,2022.2.2,60.060034425918744,
Hippopolis,stimuli/subj_files/ST01_112822_cityA.csv,./stimuli/seattle.jpg,./stimuli/street_plate1.png,./stimuli/videos/hippopolis_part1.mp4,MUSTÁR UTCA,stimuli/objects/050a.jpg,object,0,stimuli/objects/050a.jpg,stimuli/objects/050b.jpg,stimuli/objects/050a.jpg,stimuli/objects/029a.jpg,stimuli/objects/029b.jpg,lure,target,dist1,dist2,0,0,0,1,0,49,49,43,,,,,,,248.2604299094528,249.32291451469064,249.32291451469064,249.32291451469064,249.32291451469064,249.32291451469064,249.32291451469064,249.32291451469064,249.32291451469064,249.32291451469064,249.32291451469064,249.32291451469064,249.32291451469064,,f,1.517670378088951,target,None,,,,,,,,,,,,,,ST01_112822,2022-11-29_10h34.50.560,Hippopolis_4AFCT,2022.2.2,60.060034425918744,
Hippopolis,stimuli/subj_files/ST01_112822_cityA.csv,./stimuli/seattle.jpg,./stimuli/street_plate1.png,./stimuli/videos/hippopolis_part1.mp4,SAJTÓ UTCA,stimuli/scenes/056a.jpg,scene,0,stimuli/scenes/056a.jpg,stimuli/scenes/057b.jpg,stimuli/scenes/057a.jpg,stimuli/scenes/056a.jpg,stimuli/scenes/056b.jpg,dist2,dist1,target,lure,0,0,0,1,0,50,50,37,,,,,,,250.8609876073897,251.93714094348252,251.93714094348252,251.93714094348252,251.93714094348252,251.93714094348252,251.93714094348252,251.93714094348252,251.93714094348252,251.93714094348252,251.93714094348252,251.93714094348252,251.93714094348252,,j,2.2152036018669605,target,None,,,,,,,,,,,,,,ST01_112822,2022-11-29_10h34.50.560,Hippopolis_4AFCT,2022.2.2,60.060034425918744,
Hippopolis,stimuli/subj_files/ST01_112822_cityA.csv,./stimuli/seattle.jpg,./stimuli/street_plate1.png,./stimuli/videos/hippopolis_part1.mp4,TERASZ UTCA,stimuli/scenes/048a.jpg,scene,2,stimuli/objects/083a.jpg,stimuli/objects/083b.jpg,stimuli/objects/083a.jpg,stimuli/objects/093a.jpg,stimuli/objects/093b.jpg,lure,target,dist1,dist2,0,0,0,1,0,51,51,20,,,,,,,254.17868467979133,255.23114057257771,255.23114057257771,255.23114057257771,255.23114057257771,255.23114057257771,255.23114057257771,255.23114057257771,255.23114057257771,255.23114057257771,255.23114057257771,255.23114057257771,255.23114057257771,,f,2.5528368037194014,target,None,,,,,,,,,,,,,,ST01_112822,2022-11-29_10h34.50.560,Hippopolis_4AFCT,2022.2.2,60.060034425918744,
Hippopolis,stimuli/subj_files/ST01_112822_cityA.csv,./stimuli/seattle.jpg,./stimuli/street_plate1.png,./stimuli/videos/hippopolis_part1.mp4,MOGYORÓ UTCA,stimuli/objects/053a.jpg,object,1,stimuli/objects/032a.jpg,stimuli/objects/032a.jpg,stimuli/objects/032b.jpg,stimuli/objects/022b.jpg,stimuli/objects/022a.jpg,target,lure,dist2,dist1,0,0,0,1,0,52,52,45,,,,,,,257.812189148739,258.85647303797305,258.85647303797305,258.85647303797305,258.85647303797305,258.85647303797305,258.85647303797305,258.85647303797305,258.85647303797305,258.85647303797305,258.85647303797305,258.85647303797305,258.85647303797305,,d,2.2554045990109444,target,None,258.85647303797305,,,,,,,,,,,,,ST01_112822,2022-11-29_10h34.50.560,Hippopolis_4AFCT,2022.2.2,60.060034425918744,
Hippopolis,stimuli/subj_files/ST01_112822_cityA.csv,./stimuli/seattle.jpg,./stimuli/street_plate1.png,./stimuli/videos/hippopolis_part1.mp4,CUKOR UTCA,stimuli/scenes/049a.jpg,scene,1,stimuli/scenes/081a.jpg,stimuli/objects/006b.jpg,stimuli/scenes/081b.jpg,stimuli/objects/006a.jpg,stimuli/scenes/081a.jpg,dist2,lure,dist1,target,0,0,0,1,0,53,53,38,,,,,,,261.15141128376126,262.1994829196483,262.1994829196483,262.1994829196483,262.1994829196483,262.1994829196483,262.1994829196483,262.1994829196483,262.1994829196483,262.1994829196483,262.1994829196483,262.1994829196483,262.1994829196483,,k,2.416555980220437,target,None,,,,,,,,,,,,,,ST01_112822,2022-11-29_10h34.50.560,Hippopolis_4AFCT,2022.2.2,60.060034425918744,
Hippopolis,stimuli/subj_files/ST01_112822_cityA.csv,./stimuli/seattle.jpg,./stimuli/street_plate1.png,./stimuli/videos/hippopolis_part1.mp4,KULLANCS UTCA,stimuli/scenes/098a.jpg,scene,2,stimuli/objects/104a.jpg,stimuli/objects/104a.jpg,stimuli/objects/104b.jpg,stimuli/scenes/068a.jpg,stimuli/scenes/068b.jpg,target,lure,dist1,dist2,0,0,0,1,0,54,54,32,,,,,,,264.65626827068627,265.71840455010533,265.71840455010533,265.71840455010533,265.71840455010533,265.71840455010533,265.71840455010533,265.71840455010533,265.71840455010533,265.71840455010533,265.71840455010533,265.71840455010533,265.71840455010533,269.1516706645489,j,3.8255010843276978,dist1,None,,,,,,,,,,,,,,ST01_112822,2022-11-29_10h34.50.560,Hippopolis_4AFCT,2022.2.2,60.060034425918744,
Hippopolis,stimuli/subj_files/ST01_112822_cityA.csv,./stimuli/seattle.jpg,./stimuli/street_plate1.png,./stimuli/videos/hippopolis_part1.mp4,KARTON UTCA,stimuli/scenes/064a.jpg,scene,1,stimuli/scenes/091a.jpg,stimuli/objects/048b.jpg,stimuli/scenes/091b.jpg,stimuli/scenes/091a.jpg,stimuli/objects/048a.jpg,dist2,lure,target,dist1,0,0,0,1,0,55,55,31,,,,,,,269.5697450488806,270.63814219646156,270.63814219646156,270.63814219646156,270.63814219646156,270.63814219646156,270.63814219646156,270.63814219646156,270.63814219646156,270.63814219646156,270.63814219646156,270.63814219646156,270.63814219646156,,j,3.0981081407517195,target,None,,,,,,,,,,,,,,ST01_112822,2022-11-29_10h34.50.560,Hippopolis_4AFCT,2022.2.2,60.060034425918744,
Hippopolis,stimuli/subj_files/ST01_112822_cityA.csv,./stimuli/seattle.jpg,./stimuli/street_plate1.png,./stimuli/videos/hippopolis_part1.mp4,OLDAL UTCA,stimuli/objects/081a.jpg,object,2,stimuli/scenes/060a.jpg,stimuli/scenes/060a.jpg,stimuli/scenes/067b.jpg,stimuli/scenes/067a.jpg,stimuli/scenes/060b.jpg,target,dist2,dist1,lure,0,0,0,1,0,56,56,48,,,,,,,273.77103336155415,274.83627223968506,274.83627223968506,274.83627223968506,274.83627223968506,274.83627223968506,274.83627223968506,274.83627223968506,274.83627223968506,274.83627223968506,274.83627223968506,274.83627223968506,274.83627223968506,278.2778602633625,None,,invalid,None,,,,,,,,,,,,,,ST01_112822,2022-11-29_10h34.50.560,Hippopolis_4AFCT,2022.2.2,60.060034425918744,
Hippopolis,stimuli/subj_files/ST01_112822_cityA.csv,./stimuli/seattle.jpg,./stimuli/street_plate1.png,./stimuli/videos/hippopolis_part1.mp4,FÉNYKÉP UTCA,stimuli/scenes/107a.jpg,scene,1,stimuli/scenes/055a.jpg,stimuli/scenes/055a.jpg,stimuli/scenes/059a.jpg,stimuli/scenes/059b.jpg,stimuli/scenes/055b.jpg,target,dist1,dist2,lure,0,0,0,1,0,57,57,33,,,,,,,279.7774351183325,280.8149340916425,280.8149340916425,280.8149340916425,280.8149340916425,280.8149340916425,280.8149340916425,280.8149340916425,280.8149340916425,280.8149340916425,280.8149340916425,280.8149340916425,280.8149340916425,284.28495836257935,j,4.47361414693296,dist2,None,,,,,,,,,,,,,,ST01_112822,2022-11-29_10h34.50.560,Hippopolis_4AFCT,2022.2.2,60.060034425918744,
Hippopolis,stimuli/subj_files/ST01_112822_cityA.csv,./stimuli/seattle.jpg,./stimuli/street_plate1.png,./stimuli/videos/hippopolis_part1.mp4,LÉTRA UTCA,stimuli/objects/069a.jpg,object,1,stimuli/objects/092a.jpg,stimuli/objects/092b.jpg,stimuli/objects/092a.jpg,stimuli/scenes/055a.jpg,stimuli/scenes/055b.jpg,lure,target,dist1,dist2,0,0,0,1,0,58,58,52,,,,,,,285.31071124598384,286.3517258372158,286.3517258372158,286.3517258372158,286.3517258372158,286.3517258372158,286.3517258372158,286.3517258372158,286.3517258372158,286.3517258372158,286.3517258372158,286.3517258372158,286.3517258372158,289.80993497371674,f,3.5120918564498425,target,None,,,,,,,,,,,,,,ST01_112822,2022-11-29_10h34.50.560,Hippopolis_4AFCT,2022.2.2,60.060034425918744,
Hippopolis,stimuli/subj_files/ST01_112822_cityA.csv,./stimuli/seattle.jpg,./stimuli/street_plate1.png,./stimuli/videos/hippopolis_part1.mp4,KIRAKÓ UTCA,stimuli/objects/064a.jpg,object,2,stimuli/scenes/103a.jpg,stimuli/scenes/042a.jpg,stimuli/scenes/103b.jpg,stimuli/scenes/042b.jpg,stimuli/scenes/103a.jpg,dist1,lure,dist2,target,0,0,0,1,0,59,59,64,,,,,,,289.8865498434752,290.9490739479661,290.9490739479661,290.9490739479661,290.9490739479661,290.9490739479661,290.9490739479661,290.9490739479661,290.9490739479661,290.9490739479661,290.9490739479661,290.9490739479661,290.9490739479661,,k,2.7389977667480707,target,None,,,,,,,,,,,,,,ST01_112822,2022-11-29_10h34.50.560,Hippopolis_4AFCT,2022.2.2,60.060034425918744,
Hippopolis,stimuli/subj_files/ST01_112822_cityA.csv,./stimuli/seattle.jpg,./stimuli/street_plate1.png,./stimuli/videos/hippopolis_part1.mp4,VÁSÁR UTCA,stimuli/objects/043a.jpg,object,1,stimuli/objects/108a.jpg,stimuli/objects/108b.jpg,stimuli/objects/108a.jpg,stimuli/scenes/081a.jpg,stimuli/scenes/081b.jpg,lure,target,dist1,dist2,0,0,0,1,0,60,60,50,,,,,,,293.72745359130204,294.7638746164739,294.7638746164739,294.7638746164739,294.7638746164739,294.7638746164739,294.7638746164739,294.7638746164739,294.7638746164739,294.7638746164739,294.7638746164739,294.7638746164739,294.7638746164739,298.2205318324268,f,4.508565979078412,target,None,,,,,,,,,,,,,,ST01_112822,2022-11-29_10h34.50.560,Hippopolis_4AFCT,2022.2.2,60.060034425918744,
Hippopolis,stimuli/subj_files/ST01_112822_cityA.csv,./stimuli/seattle.jpg,./stimuli/street_plate1.png,./stimuli/videos/hippopolis_part1.mp4,PALACK UTCA,stimuli/scenes/057a.jpg,scene,0,stimuli/scenes/057a.jpg,stimuli/scenes/057b.jpg,stimuli/objects/044a.jpg,stimuli/objects/044b.jpg,stimuli/scenes/057a.jpg,lure,dist1,dist2,target,0,0,0,1,0,61,61,61,,,,,,,299.29463936947286,300.3373875077814,300.3373875077814,300.3373875077814,300.3373875077814,300.3373875077814,300.3373875077814,300.3373875077814,300.3373875077814,300.3373875077814,300.3373875077814,300.3373875077814,300.3373875077814,,k,2.2142472565174103,target,None,,,,,,,,,,,,,,ST01_112822,2022-11-29_10h34.50.560,Hippopolis_4AFCT,2022.2.2,60.060034425918744,
Hippopolis,stimuli/subj_files/ST01_112822_cityA.csv,./stimuli/seattle.jpg,./stimuli/street_plate1.png,./stimuli/videos/hippopolis_part1.mp4,KOSÁR UTCA,stimuli/scenes/018a.jpg,scene,2,stimuli/objects/002a.jpg,stimuli/objects/106b.jpg,stimuli/objects/002a.jpg,stimuli/objects/002b.jpg,stimuli/objects/106a.jpg,dist2,target,lure,dist1,0,0,0,1,0,62,62,12,,,,,,,302.5855444855988,303.6427755691111,303.6427755691111,303.6427755691111,303.6427755691111,303.6427755691111,303.6427755691111,303.6427755691111,303.6427755691111,303.6427755691111,303.6427755691111,303.6427755691111,303.6427755691111,307.08311054855585,f,3.4211308863013983,target,None,303.6427755691111,,,,,,,,,,,,,ST01_112822,2022-11-29_10h34.50.560,Hippopolis_4AFCT,2022.2.2,60.060034425918744,
Hippopolis,stimuli/subj_files/ST01_112822_cityA.csv,./stimuli/seattle.jpg,./stimuli/street_plate1.png,./stimuli/videos/hippopolis_part1.mp4,PAPUCS UTCA,stimuli/scenes/070a.jpg,scene,1,stimuli/scenes/062a.jpg,stimuli/scenes/062a.jpg,stimuli/scenes/084b.jpg,stimuli/scenes/084a.jpg,stimuli/scenes/062b.jpg,target,dist2,dist1,lure,0,0,0,1,0,63,63,34,,,,,,,307.1022421065718,308.17707024514675,308.17707024514675,308.17707024514675,308.17707024514675,308.17707024514675,308.17707024514675,308.17707024514675,308.17707024514675,308.17707024514675,308.17707024514675,308.17707024514675,308.17707024514675,,d,3.0948649663478136,target,None,,,,,,,,,,,,,,ST01_112822,2022-11-29_10h34.50.560,Hippopolis_4AFCT,2022.2.2,60.060034425918744,
Hippopolis,stimuli/subj_files/ST01_112822_cityA.csv,./stimuli/seattle.jpg,./stimuli/street_plate1.png,./stimuli/videos/hippopolis_part1.mp4,HARMONIKA UTCA,stimuli/objects/029a.jpg,object,0,stimuli/objects/029a.jpg,stimuli/objects/029b.jpg,stimuli/objects/029a.jpg,stimuli/scenes/005b.jpg,stimuli/scenes/005a.jpg,lure,target,dist2,dist1,0,0,0,1,0,64,64,63,,,,,,,311.3086977917701,312.365507774055,312.365507774055,312.365507774055,312.365507774055,312.365507774055,312.365507774055,312.365507774055,312.365507774055,312.365507774055,312.365507774055,312.365507774055,312.365507774055,,f,1.6584262736141682,target,None,,,,,,,,,,,,,,ST01_112822,2022-11-29_10h34.50.560,Hippopolis_4AFCT,2022.2.2,60.060034425918744,
Hippopolis,stimuli/subj_files/ST01_112822_cityA.csv,./stimuli/seattle.jpg,./stimuli/street_plate1.png,./stimuli/videos/hippopolis_part1.mp4,SZOMSZÉD UTCA,stimuli/scenes/075a.jpg,scene,1,stimuli/scenes/059a.jpg,stimuli/scenes/027b.jpg,stimuli/scenes/027a.jpg,stimuli/scenes/059b.jpg,stimuli/scenes/059a.jpg,dist2,dist1,lure,target,0,0,0,1,0,65,65,39,,,,,,,314.04439087584615,315.11473585665226,315.11473585665226,315.11473585665226,315.11473585665226,315.11473585665226,315.11473585665226,315.11473585665226,315.11473585665226,315.11473585665226,315.11473585665226,315.11473585665226,315.11473585665226,,k,2.428829848766327,target,None,,,,,,,,,,,,,,ST01_112822,2022-11-29_10h34.50.560,Hippopolis_4AFCT,2022.2.2,60.060034425918744,
Hippopolis,stimuli/subj_files/ST01_112822_cityA.csv,./stimuli/seattle.jpg,./stimuli/street_plate1.png,./stimuli/videos/hippopolis_part1.mp4,SZAXOFON UTCA,stimuli/scenes/044a.jpg,scene,1,stimuli/scenes/102a.jpg,stimuli/scenes/102b.jpg,stimuli/objects/116a.jpg,stimuli/objects/116b.jpg,stimuli/scenes/102a.jpg,lure,dist1,dist2,target,0,0,0,1,0,66,66,21,,,,,,,317.5623060874641,318.6073264386505,318.6073264386505,318.6073264386505,318.6073264386505,318.6073264386505,318.6073264386505,318.6073264386505,318.6073264386505,318.6073264386505,318.6073264386505,318.6073264386505,318.6073264386505,,k,2.377132188528776,target,None,,,,,,,,,,,,,,ST01_112822,2022-11-29_10h34.50.560,Hippopolis_4AFCT,2022.2.2,60.060034425918744,
Hippopolis,stimuli/subj_files/ST01_112822_cityA.csv,./stimuli/seattle.jpg,./stimuli/street_plate1.png,./stimuli/videos/hippopolis_part1.mp4,KÖTÉL UTCA,stimuli/scenes/088a.jpg,scene,1,stimuli/scenes/052a.jpg,stimuli/objects/032a.jpg,stimuli/scenes/052b.jpg,stimuli/scenes/052a.jpg,stimuli/objects/032b.jpg,dist1,lure,target,dist2,0,0,0,1,0,67,67,14,,,,,,,321.0180082023144,322.06724113598466,322.06724113598466,322.06724113598466,322.06724113598466,322.06724113598466,322.06724113598466,322.06724113598466,322.06724113598466,322.06724113598466,322.06724113598466,322.06724113598466,322.06724113598466,,j,2.6605467163026333,target,None,,,,,,,,,,,,,,ST01_112822,2022-11-29_10h34.50.560,Hippopolis_4AFCT,2022.2.2,60.060034425918744,
Hippopolis,stimuli/subj_files/ST01_112822_cityA.csv,./stimuli/seattle.jpg,./stimuli/street_plate1.png,./stimuli/videos/hippopolis_part1.mp4,KÓKUSZ UTCA,stimuli/objects/089a.jpg,object,0,stimuli/objects/089a.jpg,stimuli/objects/089a.jpg,stimuli/objects/075a.jpg,stimuli/objects/089b.jpg,stimuli/objects/075b.jpg,target,dist1,lure,dist2,0,0,0,1,0,68,68,3,,,,,,,324.77000890672207,325.81344965845346,325.81344965845346,325.81344965845346,325.81344965845346,325.81344965845346,325.81344965845346,325.81344965845346,325.81344965845346,325.81344965845346,325.81344965845346,325.81344965845346,325.81344965845346,329.2696528043598,None,,invalid,None,,,,,,,,,,,,,,ST01_112822,2022-11-29_10h34.50.560,Hippopolis_4AFCT,2022.2.2,60.060034425918744,
Hippopolis,stimuli/subj_files/ST01_112822_cityA.csv,./stimuli/seattle.jpg,./stimuli/street_plate1.png,./stimuli/videos/hippopolis_part1.mp4,ÜVEG UTCA,stimuli/scenes/111a.jpg,scene,1,stimuli/scenes/077a.jpg,stimuli/scenes/077b.jpg,stimuli/objects/115b.jpg,stimuli/scenes/077a.jpg,stimuli/objects/115a.jpg,lure,dist2,target,dist1,0,0,0,1,0,69,69,49,,,,,,,330.7724627479911,331.8170971404761,331.8170971404761,331.8170971404761,331.8170971404761,331.8170971404761,331.8170971404761,331.8170971404761,331.8170971404761,331.8170971404761,331.8170971404761,331.8170971404761,331.8170971404761,,j,3.390524746850133,target,None,,,,,,,,,,,,,,ST01_112822,2022-11-29_10h34.50.560,Hippopolis_4AFCT,2022.2.2,60.060034425918744,
Hippopolis,stimuli/subj_files/ST01_112822_cityA.csv,./stimuli/seattle.jpg,./stimuli/street_plate1.png,./stimuli/videos/hippopolis_part1.mp4,HARCSA UTCA,stimuli/objects/107a.jpg,object,2,stimuli/scenes/007a.jpg,stimuli/objects/031b.jpg,stimuli/objects/031a.jpg,stimuli/scenes/007a.jpg,stimuli/scenes/007b.jpg,dist2,dist1,target,lure,0,0,0,1,0,70,70,22,,,,,,,335.2297967132181,336.30062095448375,336.30062095448375,336.30062095448375,336.30062095448375,336.30062095448375,336.30062095448375,336.30062095448375,336.30062095448375,336.30062095448375,336.30062095448375,336.30062095448375,336.30062095448375,,j,2.9543230421841145,target,None,,,,,,,,,,,,,,ST01_112822,2022-11-29_10h34.50.560,Hippopolis_4AFCT,2022.2.2,60.060034425918744,
Hippopolis,stimuli/subj_files/ST01_112822_cityA.csv,./stimuli/seattle.jpg,./stimuli/street_plate1.png,./stimuli/videos/hippopolis_part1.mp4,BETON UTCA,stimuli/scenes/086a.jpg,scene,2,stimuli/objects/031a.jpg,stimuli/objects/031a.jpg,stimuli/scenes/007b.jpg,stimuli/scenes/007a.jpg,stimuli/objects/031b.jpg,target,dist2,dist1,lure,0,0,0,1,0,71,71,51,,,,,,,339.28694569319487,340.33260671794415,340.33260671794415,340.33260671794415,340.33260671794415,340.33260671794415,340.33260671794415,340.33260671794415,340.33260671794415,340.33260671794415,340.33260671794415,340.33260671794415,340.33260671794415,343.77721896767616,k,3.7722144927829504,lure,None,,,,,,,,,,,,,,ST01_112822,2022-11-29_10h34.50.560,Hippopolis_4AFCT,2022.2.2,60.060034425918744,
Hippopolis,stimuli/subj_files/ST01_112822_cityA.csv,./stimuli/seattle.jpg,./stimuli/street_plate1.png,./stimuli/videos/hippopolis_part1.mp4,SZIKLA UTCA,stimuli/scenes/116a.jpg,scene,0,stimuli/scenes/116a.jpg,stimuli/scenes/116a.jpg,stimuli/objects/024a.jpg,stimuli/scenes/116b.jpg,stimuli/objects/024b.jpg,target,dist1,lure,dist2,0,0,0,1,0,72,72,79,,,,,,,344.12714407779276,345.1611722204834,345.1611722204834,345.1611722204834,345.1611722204834,345.1611722204834,345.1611722204834,345.1611722204834,345.1611722204834,345.1611722204834,345.1611722204834,345.1611722204834,345.1611722204834,,d,2.11034001968801,target,None,345.1611722204834,,,,,,,,,,,,,ST01_112822,2022-11-29_10h34.50.560,Hippopolis_4AFCT,2022.2.2,60.060034425918744,
Hippopolis,stimuli/subj_files/ST01_112822_cityA.csv,./stimuli/seattle.jpg,./stimuli/street_plate1.png,./stimuli/videos/hippopolis_part1.mp4,AKÁC UTCA,stimuli/scenes/031a.jpg,scene,0,stimuli/scenes/031a.jpg,stimuli/scenes/031a.jpg,stimuli/objects/020b.jpg,stimuli/objects/020a.jpg,stimuli/scenes/031b.jpg,target,dist2,dist1,lure,0,0,0,1,0,73,73,15,,,,,,,347.3126195818186,348.36960901506245,348.36960901506245,348.36960901506245,348.36960901506245,348.36960901506245,348.36960901506245,348.36960901506245,348.36960901506245,348.36960901506245,348.36960901506245,348.36960901506245,348.36960901506245,,d,2.245980793610215,target,None,,,,,,,,,,,,,,ST01_112822,2022-11-29_10h34.50.560,Hippopolis_4AFCT,2022.2.2,60.060034425918744,
Hippopolis,stimuli/subj_files/ST01_112822_cityA.csv,./stimuli/seattle.jpg,./stimuli/street_plate1.png,./stimuli/videos/hippopolis_part1.mp4,KERÉK UTCA,stimuli/scenes/083a.jpg,scene,2,stimuli/objects/079a.jpg,stimuli/objects/079b.jpg,stimuli/scenes/035b.jpg,stimuli/objects/079a.jpg,stimuli/scenes/035a.jpg,lure,dist2,target,dist1,0,0,0,1,0,74,74,24,,,,,,,350.6472553052008,351.7002392876893,351.7002392876893,351.7002392876893,351.7002392876893,351.7002392876893,351.7002392876893,351.7002392876893,351.7002392876893,351.7002392876893,351.7002392876893,351.7002392876893,351.7002392876893,355.13697685673833,j,4.306578833609819,target,None,,,,,,,,,,,,,,ST01_112822,2022-11-29_10h34.50.560,Hippopolis_4AFCT,2022.2.2,60.060034425918744,
Hippopolis,stimuli/subj_files/ST01_112822_cityA.csv,./stimuli/seattle.jpg,./stimuli/street_plate1.png,./stimuli/videos/hippopolis_part1.mp4,KOCKA UTCA,stimuli/scenes/090a.jpg,scene,2,stimuli/objects/119a.jpg,stimuli/objects/119b.jpg,stimuli/scenes/103b.jpg,stimuli/scenes/103a.jpg,stimuli/objects/119a.jpg,lure,dist2,dist1,target,0,0,0,1,0,75,75,36,,,,,,,356.0440123807639,357.0831646639854,357.0831646639854,357.0831646639854,357.0831646639854,357.0831646639854,357.0831646639854,357.0831646639854,357.0831646639854,357.0831646639854,357.0831646639854,357.0831646639854,357.0831646639854,,k,2.987954029813409,target,None,,,,,,,,,,,,,,ST01_112822,2022-11-29_10h34.50.560,Hippopolis_4AFCT,2022.2.2,60.060034425918744,
Hippopolis,stimuli/subj_files/ST01_112822_cityA.csv,./stimuli/seattle.jpg,./stimuli/street_plate1.png,./stimuli/videos/hippopolis_part1.mp4,RÓZSA UTCA,stimuli/scenes/033a.jpg,scene,1,stimuli/scenes/084a.jpg,stimuli/objects/109a.jpg,stimuli/scenes/084b.jpg,stimuli/objects/109b.jpg,stimuli/scenes/084a.jpg,dist1,lure,dist2,target,0,0,0,1,0,76,76,77,,,,,,,360.0929594989866,361.1630858425051,361.1630858425051,361.1630858425051,361.1630858425051,361.1630858425051,361.1630858425051,361.1630858425051,361.1630858425051,361.1630858425051,361.1630858425051,361.1630858425051,361.1630858425051,364.5916993021965,k,4.859798246994615,target,None,,,,,,,,,,,,,,ST01_112822,2022-11-29_10h34.50.560,Hippopolis_4AFCT,2022.2.2,60.060034425918744,
Hippopolis,stimuli/subj_files/ST01_112822_cityA.csv,./stimuli/seattle.jpg,./stimuli/street_plate1.png,./stimuli/videos/hippopolis_part1.mp4,PÉKSÉG UTCA,stimuli/objects/027a.jpg,object,0,stimuli/objects/027a.jpg,stimuli/objects/027b.jpg,stimuli/objects/027a.jpg,stimuli/objects/039b.jpg,stimuli/objects/039a.jpg,lure,target,dist2,dist1,0,0,0,1,0,77,77,1,,,,,,,366.0597741845995,367.11870554089546,367.11870554089546,367.11870554089546,367.11870554089546,367.11870554089546,367.11870554089546,367.11870554089546,367.11870554089546,367.11870554089546,367.11870554089546,367.11870554089546,367.11870554089546,,f,1.56076155975461,target,None,,,,,,,,,,,,,,ST01_112822,2022-11-29_10h34.50.560,Hippopolis_4AFCT,2022.2.2,60.060034425918744,
Hippopolis,stimuli/subj_files/ST01_112822_cityA.csv,./stimuli/seattle.jpg,./stimuli/street_plate1.png,./stimuli/videos/hippopolis_part1.mp4,FEJSZE UTCA,stimuli/objects/102a.jpg,object,1,stimuli/objects/109a.jpg,stimuli/objects/109b.jpg,stimuli/scenes/013b.jpg,stimuli/objects/109a.jpg,stimuli/scenes/013a.jpg,lure,dist2,target,dist1,0,0,0,1,0,78,78,19,,,,,,,368.7060681693256,369.76361150480807,369.76361150480807,369.76361150480807,369.76361150480807,369.76361150480807,369.76361150480807,369.76361150480807,369.76361150480807,369.76361150480807,369.76361150480807,369.76361150480807,369.76361150480807,373.1975627671927,d,4.755999552085996,lure,None,,,,,,,,,,,,,,ST01_112822,2022-11-29_10h34.50.560,Hippopolis_4AFCT,2022.2.2,60.060034425918744,
Hippopolis,stimuli/subj_files/ST01_112822_cityA.csv,./stimuli/seattle.jpg,./stimuli/street_plate1.png,./stimuli/videos/hippopolis_part1.mp4,FÓKA UTCA,stimuli/scenes/032a.jpg,scene,1,stimuli/scenes/027a.jpg,stimuli/scenes/027a.jpg,stimuli/scenes/062b.jpg,stimuli/scenes/027b.jpg,stimuli/scenes/062a.jpg,target,dist2,lure,dist1,0,0,0,1,0,79,79,57,,,,,,,374.5450212843716,375.5612648371607,375.5612648371607,375.5612648371607,375.5612648371607,375.5612648371607,375.5612648371607,375.5612648371607,375.5612648371607,375.5612648371607,375.5612648371607,375.5612648371607,375.5612648371607,,d,1.950075939297676,target,None,375.5612648371607,,,,,,,,,,,,,ST01_112822,2022-11-29_10h34.50.560,Hippopolis_4AFCT,2022.2.2,60.060034425918744,
Camponello,stimuli/subj_files/ST01_112822_cityB.csv,./stimuli/arnedillo.png,./stimuli/street_plate2.png,./stimuli/videos/camponello_part1.mp4,CITROM UTCA,stimuli/objects/038a.jpg,object,0,stimuli/objects/038a.jpg,stimuli/objects/059b.jpg,stimuli/objects/059a.jpg,stimuli/objects/038b.jpg,stimuli/objects/038a.jpg,dist2,dist1,lure,target,0,1,1,0,0,0,0,23,,,,,380.6589133813977,380.6589133813977,383.63688915222883,384.6787179559469,384.6787179559469,384.6787179559469,384.6787179559469,384.6787179559469,384.6787179559469,384.6787179559469,384.6787179559469,384.6787179559469,384.6787179559469,384.6787179559469,384.6787179559469,,k,2.0801151767373085,target,None,,,,,66,8,2,1,377.5340732373297,377.5340732373297,space,3.032807994633913,,ST01_112822,2022-11-29_10h34.50.560,Hippopolis_4AFCT,2022.2.2,60.060034425918744,
Camponello,stimuli/subj_files/ST01_112822_cityB.csv,./stimuli/arnedillo.png,./stimuli/street_plate2.png,./stimuli/videos/camponello_part1.mp4,SZŐLŐ UTCA,stimuli/objects/028a.jpg,object,0,stimuli/objects/028a.jpg,stimuli/scenes/101a.jpg,stimuli/objects/028a.jpg,stimuli/objects/028b.jpg,stimuli/scenes/101b.jpg,dist1,target,lure,dist2,0,1,1,0,0,1,1,43,,,,,,,386.783107874915,387.86523719877005,387.86523719877005,387.86523719877005,387.86523719877005,387.86523719877005,387.86523719877005,387.86523719877005,387.86523719877005,387.86523719877005,387.86523719877005,387.86523719877005,387.86523719877005,,j,3.277913374826312,lure,None,,,,,,,,,,,,,,ST01_112822,2022-11-29_10h34.50.560,Hippopolis_4AFCT,2022.2.2,60.060034425918744,
Camponello,stimuli/subj_files/ST01_112822_cityB.csv,./stimuli/arnedillo.png,./stimuli/street_plate2.png,./stimuli/videos/camponello_part1.mp4,RÁDIÓ UTCA,stimuli/scenes/115a.jpg,scene,0,stimuli/scenes/115a.jpg,stimuli/scenes/037a.jpg,stimuli/scenes/037b.jpg,stimuli/scenes/115a.jpg,stimuli/scenes/115b.jpg,dist1,dist2,target,lure,0,1,1,0,0,2,2,6,,,,,,,391.18044062145054,392.24596655741334,392.24596655741334,392.24596655741334,392.24596655741334,392.24596655741334,392.24596655741334,392.24596655741334,392.24596655741334,392.24596655741334,392.24596655741334,392.24596655741334,392.24596655741334,395.67634808830917,None,,invalid,None,,,,,,,,,,,,,,ST01_112822,2022-11-29_10h34.50.560,Hippopolis_4AFCT,2022.2.2,60.060034425918744,
Camponello,stimuli/subj_files/ST01_112822_cityB.csv,./stimuli/arnedillo.png,./stimuli/street_plate2.png,./stimuli/videos/camponello_part1.mp4,KALAPÁCS UTCA,stimuli/objects/095a.jpg,object,2,stimuli/scenes/087a.jpg,stimuli/objects/066b.jpg,stimuli/scenes/087a.jpg,stimuli/scenes/087b.jpg,stimuli/objects/066a.jpg,dist2,target,lure,dist1,0,1,1,0,0,3,3,30,,,,,,,397.1884459257126,398.26282776892185,398.26282776892185,398.26282776892185,398.26282776892185,398.26282776892185,398.26282776892185,398.26282776892185,398.26282776892185,398.26282776892185,398.26282776892185,398.26282776892185,398.26282776892185,,k,2.5276826079934835,dist1,None,,,,,,,,,,,,,,ST01_112822,2022-11-29_10h34.50.560,Hippopolis_4AFCT,2022.2.2,60.060034425918744,
Camponello,stimuli/subj_files/ST01_112822_cityB.csv,./stimuli/arnedillo.png,./stimuli/street_plate2.png,./stimuli/videos/camponello_part1.mp4,KAKAÓ UTCA,stimuli/scenes/029a.jpg,scene,2,stimuli/objects/061a.jpg,stimuli/objects/037b.jpg,stimuli/objects/061a.jpg,stimuli/objects/037a.jpg,stimuli/objects/061b.jpg,dist2,target,dist1,lure,0,1,1,0,0,4,4,8,,,,,,,400.81153043732047,401.8650795184076,401.8650795184076,401.8650795184076,401.8650795184076,401.8650795184076,401.8650795184076,401.8650795184076,401.8650795184076,401.8650795184076,401.8650795184076,401.8650795184076,401.8650795184076,405.30928123928607,f,3.725533988326788,target,None,,,,,,,,,,,,,,ST01_112822,2022-11-29_10h34.50.560,Hippopolis_4AFCT,2022.2.2,60.060034425918744,
Camponello,stimuli/subj_files/ST01_112822_cityB.csv,./stimuli/arnedillo.png,./stimuli/street_plate2.png,./stimuli/videos/camponello_part1.mp4,TÁNYÉR UTCA,stimuli/objects/005a.jpg,object,1,stimuli/objects/035a.jpg,stimuli/objects/035a.jpg,stimuli/scenes/058a.jpg,stimuli/scenes/058b.jpg,stimuli/objects/035b.jpg,target,dist1,dist2,lure,0,1,1,0,0,5,5,32,,,,,,,405.6089013759047,406.6688562557101,406.6688562557101,406.6688562557101,406.6688562557101,406.6688562557101,406.6688562557101,406.6688562557101,406.6688562557101,406.6688562557101,406.6688562557101,406.6688562557101,406.6688562557101,,d,1.834042252972722,target,None,,,,,,,,,,,,,,ST01_112822,2022-11-29_10h34.50.560,Hippopolis_4AFCT,2022.2.2,60.060034425918744,
Camponello,stimuli/subj_files/ST01_112822_cityB.csv,./stimuli/arnedillo.png,./stimuli/street_plate2.png,./stimuli/videos/camponello_part1.mp4,TOJÁS UTCA,stimuli/objects/012a.jpg,object,0,stimuli/objects/012a.jpg,stimuli/objects/011a.jpg,stimuli/objects/012a.jpg,stimuli/objects/012b.jpg,stimuli/objects/011b.jpg,dist1,target,lure,dist2,0,1,1,0,0,6,6,27,,,,,,,408.53528025373816,409.635108018294,409.635108018294,409.635108018294,409.635108018294,409.635108018294,409.635108018294,409.635108018294,409.635108018294,409.635108018294,409.635108018294,409.635108018294,409.635108018294,,f,2.4356586150825024,target,None,,,,,,,,,,,,,,ST01_112822,2022-11-29_10h34.50.560,Hippopolis_4AFCT,2022.2.2,60.060034425918744,
Camponello,stimuli/subj_files/ST01_112822_cityB.csv,./stimuli/arnedillo.png,./stimuli/street_plate2.png,./stimuli/videos/camponello_part1.mp4,ZSEMLE UTCA,stimuli/objects/011a.jpg,object,0,stimuli/objects/011a.jpg,stimuli/scenes/014b.jpg,stimuli/scenes/014a.jpg,stimuli/objects/011b.jpg,stimuli/objects/011a.jpg,dist2,dist1,lure,target,0,1,1,0,0,7,7,12,,,,,,,412.0920976996422,413.14561972394586,413.14561972394586,413.14561972394586,413.14561972394586,413.14561972394586,413.14561972394586,413.14561972394586,413.14561972394586,413.14561972394586,413.14561972394586,413.14561972394586,413.14561972394586,,k,1.6123960837721825,target,None,,,,,,,,,,,,,,ST01_112822,2022-11-29_10h34.50.560,Hippopolis_4AFCT,2022.2.2,60.060034425918744,
Camponello,stimuli/subj_files/ST01_112822_cityB.csv,./stimuli/arnedillo.png,./stimuli/street_plate2.png,./stimuli/videos/camponello_part1.mp4,TELEP UTCA,stimuli/scenes/009a.jpg,scene,0,stimuli/scenes/009a.jpg,stimuli/scenes/009b.jpg,stimuli/scenes/009a.jpg,stimuli/objects/003b.jpg,stimuli/objects/003a.jpg,lure,target,dist2,dist1,0,1,1,0,0,8,8,13,,,,,,,414.7838434036821,415.8611586596817,415.8611586596817,415.8611586596817,415.8611586596817,415.8611586596817,415.8611586596817,415.8611586596817,415.8611586596817,415.8611586596817,415.8611586596817,415.8611586596817,415.8611586596817,,f,2.3850625418126583,target,None,,,,,,,,,,,,,,ST01_112822,2022-11-29_10h34.50.560,Hippopolis_4AFCT,2022.2.2,60.060034425918744,
Camponello,stimuli/subj_files/ST01_112822_cityB.csv,./stimuli/arnedillo.png,./stimuli/street_plate2.png,./stimuli/videos/camponello_part1.mp4,BÖGRE UTCA,stimuli/objects/074a.jpg,object,0,stimuli/objects/074a.jpg,stimuli/objects/074a.jpg,stimuli/objects/042b.jpg,stimuli/objects/074b.jpg,stimuli/objects/042a.jpg,target,dist2,lure,dist1,0,1,1,0,0,9,9,64,,,,,,,418.2755224276334,419.3649432975799,419.3649432975799,419.3649432975799,419.3649432975799,419.3649432975799,419.3649432975799,419.3649432975799,419.3649432975799,419.3649432975799,419.3649432975799,419.3649432975799,419.3649432975799,,d,1.7931296732276678,target,None,,,,,,,,,,,,,,ST01_112822,2022-11-29_10h34.50.560,Hippopolis_4AFCT,2022.2.2,60.060034425918744,
Camponello,stimuli/subj_files/ST01_112822_cityB.csv,./stimuli/arnedillo.png,./stimuli/street_plate2.png,./stimuli/videos/camponello_part1.mp4,BÚJÓCSKA UTCA,stimuli/scenes/092a.jpg,scene,0,stimuli/scenes/092a.jpg,stimuli/scenes/092b.jpg,stimuli/scenes/106a.jpg,stimuli/scenes/092a.jpg,stimuli/scenes/106b.jpg,lure,dist1,target,dist2,0,1,1,0,0,10,10,61,,,,,,,421.1800801642239,422.2389664258808,422.2389664258808,422.2389664258808,422.2389664258808,422.2389664258808,422.2389664258808,422.2389664258808,422.2389664258808,422.2389664258808,422.2389664258808,422.2389664258808,422.2389664258808,,j,2.2629931550472975,target,None,,,,,,,,,,,,,,ST01_112822,2022-11-29_10h34.50.560,Hippopolis_4AFCT,2022.2.2,60.060034425918744,
Camponello,stimuli/subj_files/ST01_112822_cityB.csv,./stimuli/arnedillo.png,./stimuli/street_plate2.png,./stimuli/videos/camponello_part1.mp4,SALÁTA UTCA,stimuli/objects/058a.jpg,object,1,stimuli/objects/001a.jpg,stimuli/objects/001a.jpg,stimuli/objects/007b.jpg,stimuli/objects/001b.jpg,stimuli/objects/007a.jpg,target,dist2,lure,dist1,0,1,1,0,0,11,11,5,,,,,,,424.5184401907027,425.6157093066722,425.6157093066722,425.6157093066722,425.6157093066722,425.6157093066722,425.6157093066722,425.6157093066722,425.6157093066722,425.6157093066722,425.6157093066722,425.6157093066722,425.6157093066722,,d,1.878923585638404,target,None,,,,,,,,,,,,,,ST01_112822,2022-11-29_10h34.50.560,Hippopolis_4AFCT,2022.2.2,60.060034425918744,
Camponello,stimuli/subj_files/ST01_112822_cityB.csv,./stimuli/arnedillo.png,./stimuli/street_plate2.png,./stimuli/videos/camponello_part1.mp4,SIRÁLY UTCA,stimuli/objects/112a.jpg,object,0,stimuli/objects/112a.jpg,stimuli/objects/112b.jpg,stimuli/scenes/078a.jpg,stimuli/objects/112a.jpg,stimuli/scenes/078b.jpg,lure,dist1,target,dist2,0,1,1,0,0,12,12,34,,,,,,,427.5221486315131,428.6123597677797,428.6123597677797,428.6123597677797,428.6123597677797,428.6123597677797,428.6123597677797,428.6123597677797,428.6123597677797,428.6123597677797,428.6123597677797,428.6123597677797,428.6123597677797,,j,1.5541834626346827,target,None,,,,,,,,,,,,,,ST01_112822,2022-11-29_10h34.50.560,Hippopolis_4AFCT,2022.2.2,60.060034425918744,
Camponello,stimuli/subj_files/ST01_112822_cityB.csv,./stimuli/arnedillo.png,./stimuli/street_plate2.png,./stimuli/videos/camponello_part1.mp4,TULIPÁN UTCA,stimuli/scenes/101a.jpg,scene,0,stimuli/scenes/101a.jpg,stimuli/objects/057b.jpg,stimuli/scenes/101b.jpg,stimuli/objects/057a.jpg,stimuli/scenes/101a.jpg,dist2,lure,dist1,target,0,1,1,0,0,13,13,79,,,,,,,430.19225917570293,431.275327116251,431.275327116251,431.275327116251,431.275327116251,431.275327116251,431.275327116251,431.275327116251,431.275327116251,431.275327116251,431.275327116251,431.275327116251,431.275327116251,,k,2.2667131014168262,target,None,431.275327116251,,,,,,,,,,,,,ST01_112822,2022-11-29_10h34.50.560,Hippopolis_4AFCT,2022.2.2,60.060034425918744,
Camponello,stimuli/subj_files/ST01_112822_cityB.csv,./stimuli/arnedillo.png,./stimuli/street_plate2.png,./stimuli/videos/camponello_part1.mp4,MÁLNA UTCA,stimuli/objects/067a.jpg,object,0,stimuli/objects/067a.jpg,stimuli/objects/008b.jpg,stimuli/objects/008a.jpg,stimuli/objects/067a.jpg,stimuli/objects/067b.jpg,dist2,dist1,target,lure,0,1,1,0,0,14,14,39,,,,,,,433.57083948142827,434.6605875287205,434.6605875287205,434.6605875287205,434.6605875287205,434.6605875287205,434.6605875287205,434.6605875287205,434.6605875287205,434.6605875287205,434.6605875287205,434.6605875287205,434.6605875287205,438.0806850101799,j,3.5852595325559378,target,None,,,,,,,,,,,,,,ST01_112822,2022-11-29_10h34.50.560,Hippopolis_4AFCT,2022.2.2,60.060034425918744,
Camponello,stimuli/subj_files/ST01_112822_cityB.csv,./stimuli/arnedillo.png,./stimuli/street_plate2.png,./stimuli/videos/camponello_part1.mp4,HEGEDŰ UTCA,stimuli/objects/054a.jpg,object,0,stimuli/objects/054a.jpg,stimuli/objects/054b.jpg,stimuli/objects/012a.jpg,stimuli/objects/012b.jpg,stimuli/objects/054a.jpg,lure,dist1,dist2,target,0,1,1,0,0,15,15,62,,,,,,,438.2793300803751,439.36278833448887,439.36278833448887,439.36278833448887,439.36278833448887,439.36278833448887,439.36278833448887,439.36278833448887,439.36278833448887,439.36278833448887,439.36278833448887,439.36278833448887,439.36278833448887,,d,1.5870307143777609,lure,None,439.36278833448887,,,,,,,,,,,,,ST01_112822,2022-11-29_10h34.50.560,Hippopolis_4AFCT,2022.2.2,60.060034425918744,
Camponello,stimuli/subj_files/ST01_112822_cityB.csv,./stimuli/arnedillo.png,./stimuli/street_plate2.png,./stimuli/videos/camponello_part1.mp4,KATONA UTCA,stimuli/scenes/034a.jpg,scene,0,stimuli/scenes/034a.jpg,stimuli/scenes/092b.jpg,stimuli/scenes/034b.jpg,stimuli/scenes/034a.jpg,stimuli/scenes/092a.jpg,dist2,lure,target,dist1,0,1,1,0,0,16,16,51,,,,,,,440.9692619945854,442.04734481312335,442.04734481312335,442.04734481312335,442.04734481312335,442.04734481312335,442.04734481312335,442.04734481312335,442.04734481312335,442.04734481312335,442.04734481312335,442.04734481312335,442.04734481312335,,j,2.72725354321301,target,None,,,,,,,,,,,,,,ST01_112822,2022-11-29_10h34.50.560,Hippopolis_4AFCT,2022.2.2,60.060034425918744,
Camponello,stimuli/subj_files/ST01_112822_cityB.csv,./stimuli/arnedillo.png,./stimuli/street_plate2.png,./stimuli/videos/camponello_part1.mp4,HAJÓ UTCA,stimuli/scenes/037a.jpg,scene,0,stimuli/scenes/037a.jpg,stimuli/objects/028a.jpg,stimuli/scenes/037b.jpg,stimuli/scenes/037a.jpg,stimuli/objects/028b.jpg,dist1,lure,target,dist2,0,1,1,0,0,17,17,17,,,,,,,444.7917233724147,445.84100637957454,445.84100637957454,445.84100637957454,445.84100637957454,445.84100637957454,445.84100637957454,445.84100637957454,445.84100637957454,445.84100637957454,445.84100637957454,445.84100637957454,445.84100637957454,,j,1.7488168608397245,target,None,445.84100637957454,,,,,,,,,,,,,ST01_112822,2022-11-29_10h34.50.560,Hippopolis_4AFCT,2022.2.2,60.060034425918744,
Camponello,stimuli/subj_files/ST01_112822_cityB.csv,./stimuli/arnedillo.png,./stimuli/street_plate2.png,./stimuli/videos/camponello_part1.mp4,TISZTÁS UTCA,stimuli/scenes/054a.jpg,scene,0,stimuli/scenes/054a.jpg,stimuli/objects/019b.jpg,stimuli/scenes/054a.jpg,stimuli/scenes/054b.jpg,stimuli/objects/019a.jpg,dist2,target,lure,dist1,0,1,1,0,0,18,18,15,,,,,,,447.60852008126676,448.6650408282876,448.6650408282876,448.6650408282876,448.6650408282876,448.6650408282876,448.6650408282876,448.6650408282876,448.6650408282876,448.6650408282876,448.6650408282876,448.6650408282876,448.6650408282876,,f,2.95677906088531,target,None,,,,,,,,,,,,,,ST01_112822,2022-11-29_10h34.50.560,Hippopolis_4AFCT,2022.2.2,60.060034425918744,
Camponello,stimuli/subj_files/ST01_112822_cityB.csv,./stimuli/arnedillo.png,./stimuli/street_plate2.png,./stimuli/videos/camponello_part1.mp4,KUTYA UTCA,stimuli/objects/051a.jpg,object,1,stimuli/objects/007a.jpg,stimuli/objects/007b.jpg,stimuli/objects/007a.jpg,stimuli/objects/035b.jpg,stimuli/objects/035a.jpg,lure,target,dist2,dist1,0,1,1,0,0,19,19,40,,,,,,,451.6459686718881,452.70695516094565,452.70695516094565,452.70695516094565,452.70695516094565,452.70695516094565,452.70695516094565,452.70695516094565,452.70695516094565,452.70695516094565,452.70695516094565,452.70695516094565,452.70695516094565,,f,1.6831553243100643,target,None,,,,,,,,,,,,,,ST01_112822,2022-11-29_10h34.50.560,Hippopolis_4AFCT,2022.2.2,60.060034425918744,
Camponello,stimuli/subj_files/ST01_112822_cityB.csv,./stimuli/arnedillo.png,./stimuli/street_plate2.png,./stimuli/videos/camponello_part1.mp4,TÁSKA UTCA,stimuli/scenes/100a.jpg,scene,0,stimuli/scenes/100a.jpg,stimuli/objects/038b.jpg,stimuli/scenes/100a.jpg,stimuli/objects/038a.jpg,stimuli/scenes/100b.jpg,dist2,target,dist1,lure,0,1,1,0,0,20,20,56,,,,,,,454.4076363891363,455.4816098809242,455.4816098809242,455.4816098809242,455.4816098809242,455.4816098809242,455.4816098809242,455.4816098809242,455.4816098809242,455.4816098809242,455.4816098809242,455.4816098809242,455.4816098809242,,f,2.6363752987235785,target,None,,,,,,,,,,,,,,ST01_112822,2022-11-29_10h34.50.560,Hippopolis_4AFCT,2022.2.2,60.060034425918744,
Camponello,stimuli/subj_files/ST01_112822_cityB.csv,./stimuli/arnedillo.png,./stimuli/street_plate2.png,./stimuli/videos/camponello_part1.mp4,ÁLOM UTCA,stimuli/scenes/017a.jpg,scene,0,stimuli/scenes/017a.jpg,stimuli/scenes/017a.jpg,stimuli/objects/078b.jpg,stimuli/objects/078a.jpg,stimuli/scenes/017b.jpg,target,dist2,dist1,lure,0,1,1,0,0,21,21,3,,,,,,,458.1616340652108,459.2184670623392,459.2184670623392,459.2184670623392,459.2184670623392,459.2184670623392,459.2184670623392,459.2184670623392,459.2184670623392,459.2184670623392,459.2184670623392,459.2184670623392,459.2184670623392,,d,1.923094579949975,target,None,,,,,,,,,,,,,,ST01_112822,2022-11-29_10h34.50.560,Hippopolis_4AFCT,2022.2.2,60.060034425918744,
Camponello,stimuli/subj_files/ST01_112822_cityB.csv,./stimuli/arnedillo.png,./stimuli/street_plate2.png,./stimuli/videos/camponello_part1.mp4,PETÁRDA UTCA,stimuli/scenes/065a.jpg,scene,0,stimuli/scenes/065a.jpg,stimuli/scenes/065a.jpg,stimuli/objects/105a.jpg,stimuli/scenes/065b.jpg,stimuli/objects/105b.jpg,target,dist1,lure,dist2,0,1,1,0,0,22,22,49,,,,,,,461.16660176962614,462.21877495758235,462.21877495758235,462.21877495758235,462.21877495758235,462.21877495758235,462.21877495758235,462.21877495758235,462.21877495758235,462.21877495758235,462.21877495758235,462.21877495758235,462.21877495758235,,d,1.963392922654748,target,None,,,,,,,,,,,,,,ST01_112822,2022-11-29_10h34.50.560,Hippopolis_4AFCT,2022.2.2,60.060034425918744,
Camponello,stimuli/subj_files/ST01_112822_cityB.csv,./stimuli/arnedillo.png,./stimuli/street_plate2.png,./stimuli/videos/camponello_part1.mp4,KECSKE UTCA,stimuli/scenes/025a.jpg,scene,0,stimuli/scenes/025a.jpg,stimuli/scenes/004b.jpg,stimuli/scenes/025a.jpg,stimuli/scenes/025b.jpg,stimuli/scenes/004a.jpg,dist2,target,lure,dist1,0,1,1,0,0,23,23,9,,,,,,,464.214735917747,465.2767344210297,465.2767344210297,465.2767344210297,465.2767344210297,465.2767344210297,465.2767344210297,465.2767344210297,465.2767344210297,465.2767344210297,465.2767344210297,465.2767344210297,465.2767344210297,,f,1.8971351869404316,target,None,,,,,,,,,,,,,,ST01_112822,2022-11-29_10h34.50.560,Hippopolis_4AFCT,2022.2.2,60.060034425918744,
Camponello,stimuli/subj_files/ST01_112822_cityB.csv,./stimuli/arnedillo.png,./stimuli/street_plate2.png,./stimuli/videos/camponello_part1.mp4,KÖTÉNY UTCA,stimuli/scenes/078a.jpg,scene,0,stimuli/scenes/078a.jpg,stimuli/scenes/078b.jpg,stimuli/objects/041b.jpg,stimuli/scenes/078a.jpg,stimuli/objects/041a.jpg,lure,dist2,target,dist1,0,1,1,0,0,24,24,35,,,,,,,467.2128645926714,468.3108182325959,468.3108182325959,468.3108182325959,468.3108182325959,468.3108182325959,468.3108182325959,468.3108182325959,468.3108182325959,468.3108182325959,468.3108182325959,468.3108182325959,468.3108182325959,,j,1.9993191361427307,target,None,,,,,,,,,,,,,,ST01_112822,2022-11-29_10h34.50.560,Hippopolis_4AFCT,2022.2.2,60.060034425918744,
Camponello,stimuli/subj_files/ST01_112822_cityB.csv,./stimuli/arnedillo.png,./stimuli/street_plate2.png,./stimuli/videos/camponello_part1.mp4,BOHÓC UTCA,stimuli/objects/052a.jpg,object,2,stimuli/scenes/063a.jpg,stimuli/scenes/019a.jpg,stimuli/scenes/019b.jpg,stimuli/scenes/063b.jpg,stimuli/scenes/063a.jpg,dist1,dist2,lure,target,0,1,1,0,0,25,25,76,,,,,,,470.3285608366132,471.3820365201682,471.3820365201682,471.3820365201682,471.3820365201682,471.3820365201682,471.3820365201682,471.3820365201682,471.3820365201682,471.3820365201682,471.3820365201682,471.3820365201682,471.3820365201682,,k,2.5760472118854523,target,None,,,,,,,,,,,,,,ST01_112822,2022-11-29_10h34.50.560,Hippopolis_4AFCT,2022.2.2,60.060034425918744,
Camponello,stimuli/subj_files/ST01_112822_cityB.csv,./stimuli/arnedillo.png,./stimuli/street_plate2.png,./stimuli/videos/camponello_part1.mp4,PAPAGÁJ UTCA,stimuli/scenes/002a.jpg,scene,0,stimuli/scenes/002a.jpg,stimuli/objects/045a.jpg,stimuli/objects/045b.jpg,stimuli/scenes/002b.jpg,stimuli/scenes/002a.jpg,dist1,dist2,lure,target,0,1,1,0,0,26,26,19,,,,,,,473.9894702564925,475.04280536435544,475.04280536435544,475.04280536435544,475.04280536435544,475.04280536435544,475.04280536435544,475.04280536435544,475.04280536435544,475.04280536435544,475.04280536435544,475.04280536435544,475.04280536435544,,k,1.9865958653390408,target,None,,,,,,,,,,,,,,ST01_112822,2022-11-29_10h34.50.560,Hippopolis_4AFCT,2022.2.2,60.060034425918744,
Camponello,stimuli/subj_files/ST01_112822_cityB.csv,./stimuli/arnedillo.png,./stimuli/street_plate2.png,./stimuli/videos/camponello_part1.mp4,KERET UTCA,stimuli/scenes/012a.jpg,scene,0,stimuli/scenes/012a.jpg,stimuli/scenes/012a.jpg,stimuli/scenes/011b.jpg,stimuli/scenes/011a.jpg,stimuli/scenes/012b.jpg,target,dist2,dist1,lure,0,1,1,0,0,27,27,2,,,,,,,477.058267980814,478.0888427067548,478.0888427067548,478.0888427067548,478.0888427067548,478.0888427067548,478.0888427067548,478.0888427067548,478.0888427067548,478.0888427067548,478.0888427067548,478.0888427067548,478.0888427067548,,d,1.980747388675809,target,None,,,,,,,,,,,,,,ST01_112822,2022-11-29_10h34.50.560,Hippopolis_4AFCT,2022.2.2,60.060034425918744,
Camponello,stimuli/subj_files/ST01_112822_cityB.csv,./stimuli/arnedillo.png,./stimuli/street_plate2.png,./stimuli/videos/camponello_part1.mp4,TOLLTARTÓ UTCA,stimuli/objects/003a.jpg,object,0,stimuli/objects/003a.jpg,stimuli/scenes/080a.jpg,stimuli/scenes/080b.jpg,stimuli/objects/003b.jpg,stimuli/objects/003a.jpg,dist1,dist2,lure,target,0,1,1,0,0,28,28,65,,,,,,,480.09305404499173,481.1643730979413,481.1643730979413,481.1643730979413,481.1643730979413,481.1643730979413,481.1643730979413,481.1643730979413,481.1643730979413,481.1643730979413,481.1643730979413,481.1643730979413,481.1643730979413,,k,3.000894695520401,target,None,,,,,,,,,,,,,,ST01_112822,2022-11-29_10h34.50.560,Hippopolis_4AFCT,2022.2.2,60.060034425918744,
Camponello,stimuli/subj_files/ST01_112822_cityB.csv,./stimuli/arnedillo.png,./stimuli/street_plate2.png,./stimuli/videos/camponello_part1.mp4,TIGRIS UTCA,stimuli/objects/016a.jpg,object,1,stimuli/objects/113a.jpg,stimuli/objects/113a.jpg,stimuli/objects/113b.jpg,stimuli/objects/063a.jpg,stimuli/objects/063b.jpg,target,lure,dist1,dist2,0,1,1,0,0,29,29,18,,,,,,,484.19231266900897,485.2610385492444,485.2610385492444,485.2610385492444,485.2610385492444,485.2610385492444,485.2610385492444,485.2610385492444,485.2610385492444,485.2610385492444,485.2610385492444,485.2610385492444,485.2610385492444,,d,1.6723167542368174,target,None,,,,,,,,,,,,,,ST01_112822,2022-11-29_10h34.50.560,Hippopolis_4AFCT,2022.2.2,60.060034425918744,
Camponello,stimuli/subj_files/ST01_112822_cityB.csv,./stimuli/arnedillo.png,./stimuli/street_plate2.png,./stimuli/videos/camponello_part1.mp4,FOGAS UTCA,stimuli/scenes/113a.jpg,scene,0,stimuli/scenes/113a.jpg,stimuli/objects/010a.jpg,stimuli/objects/010b.jpg,stimuli/scenes/113b.jpg,stimuli/scenes/113a.jpg,dist1,dist2,lure,target,0,1,1,0,0,30,30,69,,,,,,,486.9582613874227,488.0293409638107,488.0293409638107,488.0293409638107,488.0293409638107,488.0293409638107,488.0293409638107,488.0293409638107,488.0293409638107,488.0293409638107,488.0293409638107,488.0293409638107,488.0293409638107,,k,1.6240199487656355,target,None,,,,,,,,,,,,,,ST01_112822,2022-11-29_10h34.50.560,Hippopolis_4AFCT,2022.2.2,60.060034425918744,
Camponello,stimuli/subj_files/ST01_112822_cityB.csv,./stimuli/arnedillo.png,./stimuli/street_plate2.png,./stimuli/videos/camponello_part1.mp4,BANÁN UTCA,stimuli/scenes/040a.jpg,scene,0,stimuli/scenes/040a.jpg,stimuli/scenes/039b.jpg,stimuli/scenes/040a.jpg,stimuli/scenes/040b.jpg,stimuli/scenes/039a.jpg,dist2,target,lure,dist1,0,1,1,0,0,31,31,29,,,,,,,489.68187964707613,490.73881278932095,490.73881278932095,490.73881278932095,490.73881278932095,490.73881278932095,490.73881278932095,490.73881278932095,490.73881278932095,490.73881278932095,490.73881278932095,490.73881278932095,490.73881278932095,,f,2.418455298990011,target,None,,,,,,,,,,,,,,ST01_112822,2022-11-29_10h34.50.560,Hippopolis_4AFCT,2022.2.2,60.060034425918744,
Camponello,stimuli/subj_files/ST01_112822_cityB.csv,./stimuli/arnedillo.png,./stimuli/street_plate2.png,./stimuli/videos/camponello_part1.mp4,TERÍTŐ UTCA,stimuli/scenes/021a.jpg,scene,1,stimuli/scenes/051a.jpg,stimuli/scenes/003b.jpg,stimuli/scenes/051b.jpg,stimuli/scenes/003a.jpg,stimuli/scenes/051a.jpg,dist2,lure,dist1,target,0,1,1,0,0,32,32,42,,,,,,,493.1876341998577,494.24462829716504,494.24462829716504,494.24462829716504,494.24462829716504,494.24462829716504,494.24462829716504,494.24462829716504,494.24462829716504,494.24462829716504,494.24462829716504,494.24462829716504,494.24462829716504,497.6765368692577,k,3.5209835302084684,target,None,,,,,,,,,,,,,,ST01_112822,2022-11-29_10h34.50.560,Hippopolis_4AFCT,2022.2.2,60.060034425918744,
Camponello,stimuli/subj_files/ST01_112822_cityB.csv,./stimuli/arnedillo.png,./stimuli/street_plate2.png,./stimuli/videos/camponello_part1.mp4,SIVATAG UTCA,stimuli/scenes/014a.jpg,scene,0,stimuli/scenes/014a.jpg,stimuli/scenes/014b.jpg,stimuli/objects/114a.jpg,stimuli/objects/114b.jpg,stimuli/scenes/014a.jpg,lure,dist1,dist2,target,0,1,1,0,0,33,33,31,,,,,,,497.79179428331554,498.83089058473706,498.83089058473706,498.83089058473706,498.83089058473706,498.83089058473706,498.83089058473706,498.83089058473706,498.83089058473706,498.83089058473706,498.83089058473706,498.83089058473706,498.83089058473706,,k,1.926506008952856,target,None,,,,,,,,,,,,,,ST01_112822,2022-11-29_10h34.50.560,Hippopolis_4AFCT,2022.2.2,60.060034425918744,
Camponello,stimuli/subj_files/ST01_112822_cityB.csv,./stimuli/arnedillo.png,./stimuli/street_plate2.png,./stimuli/videos/camponello_part1.mp4,NARANCS UTCA,stimuli/objects/042a.jpg,object,0,stimuli/objects/042a.jpg,stimuli/scenes/085b.jpg,stimuli/scenes/085a.jpg,stimuli/objects/042b.jpg,stimuli/objects/042a.jpg,dist2,dist1,lure,target,0,1,1,0,0,34,34,26,,,,,,,500.79562028311193,501.8766268733889,501.8766268733889,501.8766268733889,501.8766268733889,501.8766268733889,501.8766268733889,501.8766268733889,501.8766268733889,501.8766268733889,501.8766268733889,501.8766268733889,501.8766268733889,,k,1.9043166358023882,target,None,,,,,,,,,,,,,,ST01_112822,2022-11-29_10h34.50.560,Hippopolis_4AFCT,2022.2.2,60.060034425918744,
Camponello,stimuli/subj_files/ST01_112822_cityB.csv,./stimuli/arnedillo.png,./stimuli/street_plate2.png,./stimuli/videos/camponello_part1.mp4,KESZTYŰ UTCA,stimuli/objects/103a.jpg,object,2,stimuli/scenes/041a.jpg,stimuli/scenes/041a.jpg,stimuli/scenes/063b.jpg,stimuli/scenes/063a.jpg,stimuli/scenes/041b.jpg,target,dist2,dist1,lure,0,1,1,0,0,35,35,7,,,,,,,503.81051842309535,504.85097102448344,504.85097102448344,504.85097102448344,504.85097102448344,504.85097102448344,504.85097102448344,504.85097102448344,504.85097102448344,504.85097102448344,504.85097102448344,504.85097102448344,504.85097102448344,508.3157831393182,d,4.450639171525836,target,None,,,,,,,,,,,,,,ST01_112822,2022-11-29_10h34.50.560,Hippopolis_4AFCT,2022.2.2,60.060034425918744,
Camponello,stimuli/subj_files/ST01_112822_cityB.csv,./stimuli/arnedillo.png,./stimuli/street_plate2.png,./stimuli/videos/camponello_part1.mp4,FÜGE UTCA,stimuli/objects/045a.jpg,object,0,stimuli/objects/045a.jpg,stimuli/objects/054b.jpg,stimuli/objects/045b.jpg,stimuli/objects/045a.jpg,stimuli/objects/054a.jpg,dist2,lure,target,dist1,0,1,1,0,0,36,36,74,,,,,,,509.3270300626755,510.36894812621176,510.36894812621176,510.36894812621176,510.36894812621176,510.36894812621176,510.36894812621176,510.36894812621176,510.36894812621176,510.36894812621176,510.36894812621176,510.36894812621176,510.36894812621176,,j,1.8443169724196196,target,None,,,,,,,,,,,,,,ST01_112822,2022-11-29_10h34.50.560,Hippopolis_4AFCT,2022.2.2,60.060034425918744,
Camponello,stimuli/subj_files/ST01_112822_cityB.csv,./stimuli/arnedillo.png,./stimuli/street_plate2.png,./stimuli/videos/camponello_part1.mp4,OROSZLÁN UTCA,stimuli/objects/078a.jpg,object,0,stimuli/objects/078a.jpg,stimuli/scenes/104b.jpg,stimuli/scenes/104a.jpg,stimuli/objects/078a.jpg,stimuli/objects/078b.jpg,dist2,dist1,target,lure,0,1,1,0,0,37,37,0,,,,,,,512.2497176062316,513.2842716593295,513.2842716593295,513.2842716593295,513.2842716593295,513.2842716593295,513.2842716593295,513.2842716593295,513.2842716593295,513.2842716593295,513.2842716593295,513.2842716593295,513.2842716593295,,k,2.5931989029049873,lure,None,,,,,,,,,,,,,,ST01_112822,2022-11-29_10h34.50.560,Hippopolis_4AFCT,2022.2.2,60.060034425918744,
Camponello,stimuli/subj_files/ST01_112822_cityB.csv,./stimuli/arnedillo.png,./stimuli/street_plate2.png,./stimuli/videos/camponello_part1.mp4,TOLMÁCS UTCA,stimuli/objects/111a.jpg,object,1,stimuli/objects/110a.jpg,stimuli/scenes/119a.jpg,stimuli/scenes/119b.jpg,stimuli/objects/110a.jpg,stimuli/objects/110b.jpg,dist1,dist2,target,lure,0,1,1,0,0,38,38,28,,,,,,,515.9173811525106,516.9987432230264,516.9987432230264,516.9987432230264,516.9987432230264,516.9987432230264,516.9987432230264,516.9987432230264,516.9987432230264,516.9987432230264,516.9987432230264,516.9987432230264,516.9987432230264,,j,2.702321093529463,target,None,,,,,,,,,,,,,,ST01_112822,2022-11-29_10h34.50.560,Hippopolis_4AFCT,2022.2.2,60.060034425918744,
Camponello,stimuli/subj_files/ST01_112822_cityB.csv,./stimuli/arnedillo.png,./stimuli/street_plate2.png,./stimuli/videos/camponello_part1.mp4,FÉSŰ UTCA,stimuli/scenes/001a.jpg,scene,2,stimuli/objects/015a.jpg,stimuli/scenes/041a.jpg,stimuli/scenes/041b.jpg,stimuli/objects/015a.jpg,stimuli/objects/015b.jpg,dist1,dist2,target,lure,0,1,1,0,0,39,39,57,,,,,,,519.7345980294049,520.8002309538424,520.8002309538424,520.8002309538424,520.8002309538424,520.8002309538424,520.8002309538424,520.8002309538424,520.8002309538424,520.8002309538424,520.8002309538424,520.8002309538424,520.8002309538424,,j,2.4685167521238327,target,None,,,,,,,,,,,,,,ST01_112822,2022-11-29_10h34.50.560,Hippopolis_4AFCT,2022.2.2,60.060034425918744,
Camponello,stimuli/subj_files/ST01_112822_cityB.csv,./stimuli/arnedillo.png,./stimuli/street_plate2.png,./stimuli/videos/camponello_part1.mp4,MENTA UTCA,stimuli/scenes/106a.jpg,scene,0,stimuli/scenes/106a.jpg,stimuli/scenes/106a.jpg,stimuli/scenes/009a.jpg,stimuli/scenes/106b.jpg,stimuli/scenes/009b.jpg,target,dist1,lure,dist2,0,1,1,0,0,40,40,48,,,,,,,523.2910295184702,524.3337378483266,524.3337378483266,524.3337378483266,524.3337378483266,524.3337378483266,524.3337378483266,524.3337378483266,524.3337378483266,524.3337378483266,524.3337378483266,524.3337378483266,524.3337378483266,,d,2.4550237394869328,target,None,,,,,,,,,,,,,,ST01_112822,2022-11-29_10h34.50.560,Hippopolis_4AFCT,2022.2.2,60.060034425918744,
Camponello,stimuli/subj_files/ST01_112822_cityB.csv,./stimuli/arnedillo.png,./stimuli/street_plate2.png,./stimuli/videos/camponello_part1.mp4,HORDÓ UTCA,stimuli/objects/065a.jpg,object,2,stimuli/scenes/016a.jpg,stimuli/scenes/016a.jpg,stimuli/objects/015a.jpg,stimuli/objects/015b.jpg,stimuli/scenes/016b.jpg,target,dist1,dist2,lure,0,1,1,0,0,41,41,44,,,,,,,526.8199783042073,527.8822333868593,527.8822333868593,527.8822333868593,527.8822333868593,527.8822333868593,527.8822333868593,527.8822333868593,527.8822333868593,527.8822333868593,527.8822333868593,527.8822333868593,527.8822333868593,,d,2.7786028757691383,target,None,,,,,,,,,,,,,,ST01_112822,2022-11-29_10h34.50.560,Hippopolis_4AFCT,2022.2.2,60.060034425918744,
Camponello,stimuli/subj_files/ST01_112822_cityB.csv,./stimuli/arnedillo.png,./stimuli/street_plate2.png,./stimuli/videos/camponello_part1.mp4,PÁLMAFA UTCA,stimuli/scenes/015a.jpg,scene,1,stimuli/scenes/089a.jpg,stimuli/scenes/051b.jpg,stimuli/scenes/051a.jpg,stimuli/scenes/089b.jpg,stimuli/scenes/089a.jpg,dist2,dist1,lure,target,0,1,1,0,0,42,42,46,,,,,,,530.6936702113599,531.7823107652366,531.7823107652366,531.7823107652366,531.7823107652366,531.7823107652366,531.7823107652366,531.7823107652366,531.7823107652366,531.7823107652366,531.7823107652366,531.7823107652366,531.7823107652366,,k,1.9683494307100773,target,None,,,,,,,,,,,,,,ST01_112822,2022-11-29_10h34.50.560,Hippopolis_4AFCT,2022.2.2,60.060034425918744,
Camponello,stimuli/subj_files/ST01_112822_cityB.csv,./stimuli/arnedillo.png,./stimuli/street_plate2.png,./stimuli/videos/camponello_part1.mp4,SZOBOR UTCA,stimuli/objects/114a.jpg,object,0,stimuli/objects/114a.jpg,stimuli/objects/099b.jpg,stimuli/objects/099a.jpg,stimuli/objects/114a.jpg,stimuli/objects/114b.jpg,dist2,dist1,target,lure,0,1,1,0,0,43,43,10,,,,,,,533.774220244959,534.8477119877934,534.8477119877934,534.8477119877934,534.8477119877934,534.8477119877934,534.8477119877934,534.8477119877934,534.8477119877934,534.8477119877934,534.8477119877934,534.8477119877934,534.8477119877934,,j,2.181595938280225,target,None,,,,,,,,,,,,,,ST01_112822,2022-11-29_10h34.50.560,Hippopolis_4AFCT,2022.2.2,60.060034425918744,
Camponello,stimuli/subj_files/ST01_112822_cityB.csv,./stimuli/arnedillo.png,./stimuli/street_plate2.png,./stimuli/videos/camponello_part1.mp4,PIZSAMA UTCA,stimuli/objects/088a.jpg,object,0,stimuli/objects/088a.jpg,stimuli/objects/088a.jpg,stimuli/objects/047a.jpg,stimuli/objects/047b.jpg,stimuli/objects/088b.jpg,target,dist1,dist2,lure,0,1,1,0,0,44,44,33,,,,,,,537.0682627931237,538.1434327270836,538.1434327270836,538.1434327270836,538.1434327270836,538.1434327270836,538.1434327270836,538.1434327270836,538.1434327270836,538.1434327270836,538.1434327270836,538.1434327270836,538.1434327270836,,d,1.9252722468227148,target,space,,540.0907473098487,540.0907473098487,4.74656237475574,,,,,,,,,,ST01_112822,2022-11-29_10h34.50.560,Hippopolis_4AFCT,2022.2.2,60.060034425918744,
Camponello,stimuli/subj_files/ST01_112822_cityB.csv,./stimuli/arnedillo.png,./stimuli/street_plate2.png,./stimuli/videos/camponello_part1.mp4,MOTOR UTCA,stimuli/objects/010a.jpg,object,0,stimuli/objects/010a.jpg,stimuli/scenes/054b.jpg,stimuli/objects/010a.jpg,stimuli/scenes/054a.jpg,stimuli/objects/010b.jpg,dist2,target,dist1,lure,0,1,1,0,0,45,45,54,,,,,,,544.871036844328,545.9185897223651,545.9185897223651,545.9185897223651,545.9185897223651,545.9185897223651,545.9185897223651,545.9185897223651,545.9185897223651,545.9185897223651,545.9185897223651,545.9185897223651,545.9185897223651,,d,1.7340359706431627,dist2,None,,,,,,,,,,,,,,ST01_112822,2022-11-29_10h34.50.560,Hippopolis_4AFCT,2022.2.2,60.060034425918744,
Camponello,stimuli/subj_files/ST01_112822_cityB.csv,./stimuli/arnedillo.png,./stimuli/street_plate2.png,./stimuli/videos/camponello_part1.mp4,KÖNYVTÁR UTCA,stimuli/objects/099a.jpg,object,0,stimuli/objects/099a.jpg,stimuli/objects/099a.jpg,stimuli/objects/026a.jpg,stimuli/objects/026b.jpg,stimuli/objects/099b.jpg,target,dist1,dist2,lure,0,1,1,0,0,46,46,52,,,,,,,547.6708983238786,548.7223484218121,548.7223484218121,548.7223484218121,548.7223484218121,548.7223484218121,548.7223484218121,548.7223484218121,548.7223484218121,548.7223484218121,548.7223484218121,548.7223484218121,548.7223484218121,552.1583373975009,d,3.426889168098569,target,None,548.7223484218121,,,,,,,,,,,,,ST01_112822,2022-11-29_10h34.50.560,Hippopolis_4AFCT,2022.2.2,60.060034425918744,
Camponello,stimuli/subj_files/ST01_112822_cityB.csv,./stimuli/arnedillo.png,./stimuli/street_plate2.png,./stimuli/videos/camponello_part1.mp4,HORGONY UTCA,stimuli/objects/105a.jpg,object,0,stimuli/objects/105a.jpg,stimuli/objects/105a.jpg,stimuli/scenes/017a.jpg,stimuli/scenes/017b.jpg,stimuli/objects/105b.jpg,target,dist1,dist2,lure,0,1,1,0,0,47,47,75,,,,,,,552.173808099702,553.2173654772341,553.2173654772341,553.2173654772341,553.2173654772341,553.2173654772341,553.2173654772341,553.2173654772341,553.2173654772341,553.2173654772341,553.2173654772341,553.2173654772341,553.2173654772341,556.6808001436293,d,4.531368033960462,target,None,,,,,,,,,,,,,,ST01_112822,2022-11-29_10h34.50.560,Hippopolis_4AFCT,2022.2.2,60.060034425918744,
Camponello,stimuli/subj_files/ST01_112822_cityB.csv,./stimuli/arnedillo.png,./stimuli/street_plate2.png,./stimuli/videos/camponello_part1.mp4,LÉPCSŐ UTCA,stimuli/objects/060a.jpg,object,0,stimuli/objects/060a.jpg,stimuli/scenes/066b.jpg,stimuli/objects/060a.jpg,stimuli/objects/060b.jpg,stimuli/scenes/066a.jpg,dist2,target,lure,dist1,0,1,1,0,0,48,48,11,,,,,,,557.788939865306,558.8680406101048,558.8680406101048,558.8680406101048,558.8680406101048,558.8680406101048,558.8680406101048,558.8680406101048,558.8680406101048,558.8680406101048,558.8680406101048,558.8680406101048,558.8680406101048,,f,3.2164507377892733,target,None,,,,,,,,,,,,,,ST01_112822,2022-11-29_10h34.50.560,Hippopolis_4AFCT,2022.2.2,60.060034425918744,
Camponello,stimuli/subj_files/ST01_112822_cityB.csv,./stimuli/arnedillo.png,./stimuli/street_plate2.png,./stimuli/videos/camponello_part1.mp4,TALICSKA UTCA,stimuli/scenes/050a.jpg,scene,1,stimuli/scenes/099a.jpg,stimuli/objects/001b.jpg,stimuli/scenes/099a.jpg,stimuli/scenes/099b.jpg,stimuli/objects/001a.jpg,dist2,target,lure,dist1,0,1,1,0,0,49,49,24,,,,,,,562.1162877772003,563.1687772590667,563.1687772590667,563.1687772590667,563.1687772590667,563.1687772590667,563.1687772590667,563.1687772590667,563.1687772590667,563.1687772590667,563.1687772590667,563.1687772590667,563.1687772590667,,f,2.419405110180378,target,None,,,,,,,,,,,,,,ST01_112822,2022-11-29_10h34.50.560,Hippopolis_4AFCT,2022.2.2,60.060034425918744,
Camponello,stimuli/subj_files/ST01_112822_cityB.csv,./stimuli/arnedillo.png,./stimuli/street_plate2.png,./stimuli/videos/camponello_part1.mp4,LEGELŐ UTCA,stimuli/scenes/053a.jpg,scene,1,stimuli/scenes/119a.jpg,stimuli/scenes/119b.jpg,stimuli/scenes/089b.jpg,stimuli/scenes/089a.jpg,stimuli/scenes/119a.jpg,lure,dist2,dist1,target,0,1,1,0,0,50,50,77,,,,,,,565.6106486096978,566.6716263890266,566.6716263890266,566.6716263890266,566.6716263890266,566.6716263890266,566.6716263890266,566.6716263890266,566.6716263890266,566.6716263890266,566.6716263890266,566.6716263890266,566.6716263890266,,d,3.0289098396897316,lure,None,,,,,,,,,,,,,,ST01_112822,2022-11-29_10h34.50.560,Hippopolis_4AFCT,2022.2.2,60.060034425918744,
Camponello,stimuli/subj_files/ST01_112822_cityB.csv,./stimuli/arnedillo.png,./stimuli/street_plate2.png,./stimuli/videos/camponello_part1.mp4,KRÉTA UTCA,stimuli/scenes/066a.jpg,scene,0,stimuli/scenes/066a.jpg,stimuli/objects/094a.jpg,stimuli/scenes/066b.jpg,stimuli/objects/094b.jpg,stimuli/scenes/066a.jpg,dist1,lure,dist2,target,0,1,1,0,0,51,51,22,,,,,,,569.724911114201,570.7967025861144,570.7967025861144,570.7967025861144,570.7967025861144,570.7967025861144,570.7967025861144,570.7967025861144,570.7967025861144,570.7967025861144,570.7967025861144,570.7967025861144,570.7967025861144,,k,1.7194289341568947,target,None,,,,,,,,,,,,,,ST01_112822,2022-11-29_10h34.50.560,Hippopolis_4AFCT,2022.2.2,60.060034425918744,
Camponello,stimuli/subj_files/ST01_112822_cityB.csv,./stimuli/arnedillo.png,./stimuli/street_plate2.png,./stimuli/videos/camponello_part1.mp4,CSILLAG UTCA,stimuli/scenes/006a.jpg,scene,2,stimuli/objects/082a.jpg,stimuli/scenes/109b.jpg,stimuli/objects/082a.jpg,stimuli/objects/082b.jpg,stimuli/scenes/109a.jpg,dist2,target,lure,dist1,0,1,1,0,0,52,52,47,,,,,,,572.5350233633071,573.6119364872575,573.6119364872575,573.6119364872575,573.6119364872575,573.6119364872575,573.6119364872575,573.6119364872575,573.6119364872575,573.6119364872575,573.6119364872575,573.6119364872575,573.6119364872575,,j,2.680799763649702,lure,None,,,,,,,,,,,,,,ST01_112822,2022-11-29_10h34.50.560,Hippopolis_4AFCT,2022.2.2,60.060034425918744,
Camponello,stimuli/subj_files/ST01_112822_cityB.csv,./stimuli/arnedillo.png,./stimuli/street_plate2.png,./stimuli/videos/camponello_part1.mp4,BONBON UTCA,stimuli/objects/041a.jpg,object,0,stimuli/objects/041a.jpg,stimuli/scenes/079a.jpg,stimuli/scenes/079b.jpg,stimuli/objects/041a.jpg,stimuli/objects/041b.jpg,dist1,dist2,target,lure,0,1,1,0,0,53,53,4,,,,,,,576.3179234843701,577.3611798081547,577.3611798081547,577.3611798081547,577.3611798081547,577.3611798081547,577.3611798081547,577.3611798081547,577.3611798081547,577.3611798081547,577.3611798081547,577.3611798081547,577.3611798081547,,j,2.803911332041025,target,None,,,,,,,,,,,,,,ST01_112822,2022-11-29_10h34.50.560,Hippopolis_4AFCT,2022.2.2,60.060034425918744,
