CityName,StimuliFile,CityImage,StreetSign,LearningVideoFile,UpdatingVideoFile,Cue,Image,Category,CorrectResponse,Novelty,UpdateImage,TestImage1,TestImage2,TestImage3,TestImage4,TestImage1Type,TestImage2Type,TestImage3Type,TestImage4Type,CityBlock.thisRepN,CityBlock.thisTrialN,CityBlock.thisN,CityBlock.thisIndex,LearningTrials.thisRepN,LearningTrials.thisTrialN,LearningTrials.thisN,LearningTrials.thisIndex,trials.thisRepN,trials.thisTrialN,trials.thisN,trials.thisIndex,learning_instructions_text.started,intro_key.started,intro_key.keys,intro_key.rt,cityname_text_intro.started,city_image.started,load_video.started,movie.started,end_vid_key.started,end_vid_key.keys,text_countdown.started,cityname_text_start.started,fx_cross.started,plate.started,city_text.started,street_text.started,learning_image.started,key_resp_2.started,key_resp_2.keys,short_break_key.keys,fx_cross.stopped,short_break_text.started,short_break_key.started,short_break_key.rt,test_text.started,key_resp.started,key_resp.keys,key_resp.rt,plate_test.started,city_text_test.started,street_text_test.started,test_question.started,test_key_resp.started,button_image.started,test_key_resp.keys,test_key_resp.corr,text_response_test.text,written_text_mouse.x,written_text_mouse.y,written_text_mouse.leftButton,written_text_mouse.midButton,written_text_mouse.rightButton,written_text_mouse.time,test_key_resp.rt,plate_verbal.started,street_text_verbal.started,city_text_verbal.started,question_verbal.started,text_response_test.started,written_text_mouse.started,break_text.started,break_key_resp.started,break_key_resp.keys,break_key_resp.rt,end_text.started,participant,date,expName,psychopyVersion,frameRate,
,,,,,,,,,,,,,,,,,,,,,,,,,,,,,,,,21.76850799098611,21.76850799098611,space,15.657671239227057,,,,,,,,,,,,,,,,,,,,,,,,,,,,,,,,,,,,,,,,,,,,,,,,,,,,ST01_120922,2022-12-09_12h11.18.881,Hippopolis_Learning,2022.2.2,59.80444413313406,
Camponello,stimuli/subj_files/ST01_120922_cityB.csv,./stimuli/arnedillo.png,./stimuli/street_plate2.png,./stimuli/videos/camponello_part,./stimuli/videos/campo-satellite.mp4,SIRÁLY UTCA,stimuli/scenes/021a.jpg,scene,right,0,stimuli/scenes/021a.jpg,stimuli/scenes/021a.jpg,stimuli/scenes/021b.jpg,stimuli/objects/040b.jpg,stimuli/objects/040a.jpg,target,lure,dist2,dist1,0,0,0,0,0,0,0,0,,,,,,,,,37.58128587342799,37.58128587342799,0.11208141595125198,40.788880463689566,40.788880463689566,None,56.025481997057796,56.025481997057796,58.50991519540548,59.498972434550524,59.498972434550524,59.498972434550524,59.498972434550524,59.498972434550524,None,None,,,,,,,,,,,,,,,,,,,,,,,,,,,,,,,,,,,,ST01_120922,2022-12-09_12h11.18.881,Hippopolis_Learning,2022.2.2,59.80444413313406,
Camponello,stimuli/subj_files/ST01_120922_cityB.csv,./stimuli/arnedillo.png,./stimuli/street_plate2.png,./stimuli/videos/camponello_part,./stimuli/videos/campo-satellite.mp4,ECSET UTCA,stimuli/scenes/120a.jpg,scene,right,0,stimuli/scenes/120a.jpg,stimuli/scenes/120a.jpg,stimuli/scenes/120b.jpg,stimuli/objects/082b.jpg,stimuli/objects/082a.jpg,target,lure,dist2,dist1,0,0,0,0,0,1,1,41,,,,,,,,,,,,,,,,,62.45991749688983,63.508524684235454,63.508524684235454,63.508524684235454,63.508524684235454,63.508524684235454,None,None,,,,,,,,,,,,,,,,,,,,,,,,,,,,,,,,,,,,ST01_120922,2022-12-09_12h11.18.881,Hippopolis_Learning,2022.2.2,59.80444413313406,
Camponello,stimuli/subj_files/ST01_120922_cityB.csv,./stimuli/arnedillo.png,./stimuli/street_plate2.png,./stimuli/videos/camponello_part,./stimuli/videos/campo-satellite.mp4,TULIPÁN UTCA,stimuli/objects/088a.jpg,object,left,0,stimuli/objects/088a.jpg,stimuli/objects/085a.jpg,stimuli/objects/088b.jpg,stimuli/objects/088a.jpg,stimuli/objects/085b.jpg,dist1,lure,target,dist2,0,0,0,0,0,2,2,23,,,,,,,,,,,,,,,,,66.4661876950413,67.50689283385873,67.50689283385873,67.50689283385873,67.50689283385873,67.50689283385873,None,None,,,,,,,,,,,,,,,,,,,,,,,,,,,,,,,,,,,,ST01_120922,2022-12-09_12h11.18.881,Hippopolis_Learning,2022.2.2,59.80444413313406,
Camponello,stimuli/subj_files/ST01_120922_cityB.csv,./stimuli/arnedillo.png,./stimuli/street_plate2.png,./stimuli/videos/camponello_part,./stimuli/videos/campo-satellite.mp4,KECSKE UTCA,stimuli/scenes/116a.jpg,scene,right,0,stimuli/scenes/116a.jpg,stimuli/scenes/024a.jpg,stimuli/scenes/116b.jpg,stimuli/scenes/116a.jpg,stimuli/scenes/024b.jpg,dist1,lure,target,dist2,0,0,0,0,0,3,3,30,,,,,,,,,,,,,,,,,70.4744135029614,71.51260477863252,71.51260477863252,71.51260477863252,71.51260477863252,71.51260477863252,None,None,,,,,,,,,,,,,,,,,,,,,,,,,,,,,,,,,,,,ST01_120922,2022-12-09_12h11.18.881,Hippopolis_Learning,2022.2.2,59.80444413313406,
Camponello,stimuli/subj_files/ST01_120922_cityB.csv,./stimuli/arnedillo.png,./stimuli/street_plate2.png,./stimuli/videos/camponello_part,./stimuli/videos/campo-satellite.mp4,KOCSI UTCA,stimuli/objects/003a.jpg,object,left,0,stimuli/objects/003a.jpg,stimuli/objects/020a.jpg,stimuli/objects/003b.jpg,stimuli/objects/020b.jpg,stimuli/objects/003a.jpg,dist1,lure,dist2,target,0,0,0,0,0,4,4,63,,,,,,,,,,,,,,,,,74.48823556117713,75.52934749610722,75.52934749610722,75.52934749610722,75.52934749610722,75.52934749610722,None,None,,,,,,,,,,,,,,,,,,,,,,,,,,,,,,,,,,,,ST01_120922,2022-12-09_12h11.18.881,Hippopolis_Learning,2022.2.2,59.80444413313406,
Camponello,stimuli/subj_files/ST01_120922_cityB.csv,./stimuli/arnedillo.png,./stimuli/street_plate2.png,./stimuli/videos/camponello_part,./stimuli/videos/campo-satellite.mp4,FIÓK UTCA,stimuli/scenes/062a.jpg,scene,right,0,stimuli/scenes/062a.jpg,stimuli/scenes/062a.jpg,stimuli/objects/011b.jpg,stimuli/objects/011a.jpg,stimuli/scenes/062b.jpg,target,dist2,dist1,lure,0,0,0,0,0,5,5,49,,,,,,,,,,,,,,,,,78.50179575011134,79.54008281417191,79.54008281417191,79.54008281417191,79.54008281417191,79.54008281417191,None,None,,,,,,,,,,,,,,,,,,,,,,,,,,,,,,,,,,,,ST01_120922,2022-12-09_12h11.18.881,Hippopolis_Learning,2022.2.2,59.80444413313406,
Camponello,stimuli/subj_files/ST01_120922_cityB.csv,./stimuli/arnedillo.png,./stimuli/street_plate2.png,./stimuli/videos/camponello_part,./stimuli/videos/campo-satellite.mp4,VÖDÖR UTCA,stimuli/objects/093a.jpg,object,left,1,stimuli/objects/014a.jpg,stimuli/objects/022a.jpg,stimuli/objects/014b.jpg,stimuli/objects/014a.jpg,stimuli/objects/022b.jpg,dist1,lure,target,dist2,0,0,0,0,0,6,6,17,,,,,,,,,,,,,,,,,82.51282497122884,83.55808137729764,83.55808137729764,83.55808137729764,83.55808137729764,83.55808137729764,None,None,,,,,,,,,,,,,,,,,,,,,,,,,,,,,,,,,,,,ST01_120922,2022-12-09_12h11.18.881,Hippopolis_Learning,2022.2.2,59.80444413313406,
Camponello,stimuli/subj_files/ST01_120922_cityB.csv,./stimuli/arnedillo.png,./stimuli/street_plate2.png,./stimuli/videos/camponello_part,./stimuli/videos/campo-satellite.mp4,SZŐLŐ UTCA,stimuli/objects/095a.jpg,object,left,0,stimuli/objects/095a.jpg,stimuli/objects/095a.jpg,stimuli/scenes/083a.jpg,stimuli/objects/095b.jpg,stimuli/scenes/083b.jpg,target,dist1,lure,dist2,0,0,0,0,0,7,7,27,,,,,,,,,,,,,,,,,86.53160167112947,87.57515562698245,87.57515562698245,87.57515562698245,87.57515562698245,87.57515562698245,None,None,,,,,,,,,,,,,,,,,,,,,,,,,,,,,,,,,,,,ST01_120922,2022-12-09_12h11.18.881,Hippopolis_Learning,2022.2.2,59.80444413313406,
Camponello,stimuli/subj_files/ST01_120922_cityB.csv,./stimuli/arnedillo.png,./stimuli/street_plate2.png,./stimuli/videos/camponello_part,./stimuli/videos/campo-satellite.mp4,FÓKA UTCA,stimuli/scenes/086a.jpg,scene,right,0,stimuli/scenes/086a.jpg,stimuli/scenes/086a.jpg,stimuli/objects/026b.jpg,stimuli/scenes/086b.jpg,stimuli/objects/026a.jpg,target,dist2,lure,dist1,0,0,0,0,0,8,8,59,,,,,,,,,,,,,,,,,90.53841022215784,91.56891870498657,91.56891870498657,91.56891870498657,91.56891870498657,91.56891870498657,None,None,,,,,,,,,,,,,,,,,,,,,,,,,,,,,,,,,,,,ST01_120922,2022-12-09_12h11.18.881,Hippopolis_Learning,2022.2.2,59.80444413313406,
Camponello,stimuli/subj_files/ST01_120922_cityB.csv,./stimuli/arnedillo.png,./stimuli/street_plate2.png,./stimuli/videos/camponello_part,./stimuli/videos/campo-satellite.mp4,MÁRVÁNY UTCA,stimuli/scenes/037a.jpg,scene,right,0,stimuli/scenes/037a.jpg,stimuli/objects/051b.jpg,stimuli/scenes/037a.jpg,stimuli/scenes/037b.jpg,stimuli/objects/051a.jpg,dist2,target,lure,dist1,0,0,0,0,0,9,9,4,,,,,,,,,,,,,,,,,94.5482479762286,95.57724932208657,95.57724932208657,95.57724932208657,95.57724932208657,95.57724932208657,None,None,,,,,,,,,,,,,,,,,,,,,,,,,,,,,,,,,,,,ST01_120922,2022-12-09_12h11.18.881,Hippopolis_Learning,2022.2.2,59.80444413313406,
Camponello,stimuli/subj_files/ST01_120922_cityB.csv,./stimuli/arnedillo.png,./stimuli/street_plate2.png,./stimuli/videos/camponello_part,./stimuli/videos/campo-satellite.mp4,TELEP UTCA,stimuli/objects/045a.jpg,object,left,1,stimuli/objects/049a.jpg,stimuli/objects/052a.jpg,stimuli/objects/049b.jpg,stimuli/objects/049a.jpg,stimuli/objects/052b.jpg,dist1,lure,target,dist2,0,0,0,0,0,10,10,72,,,,,,,,,,,,,,,,,98.55480772256851,99.59126451425254,99.59126451425254,99.59126451425254,99.59126451425254,99.59126451425254,None,None,,,,,,,,,,,,,,,,,,,,,,,,,,,,,,,,,,,,ST01_120922,2022-12-09_12h11.18.881,Hippopolis_Learning,2022.2.2,59.80444413313406,
Camponello,stimuli/subj_files/ST01_120922_cityB.csv,./stimuli/arnedillo.png,./stimuli/street_plate2.png,./stimuli/videos/camponello_part,./stimuli/videos/campo-satellite.mp4,BOHÓC UTCA,stimuli/objects/044a.jpg,object,left,1,stimuli/objects/027a.jpg,stimuli/scenes/113a.jpg,stimuli/scenes/113b.jpg,stimuli/objects/027a.jpg,stimuli/objects/027b.jpg,dist1,dist2,target,lure,0,0,0,0,0,11,11,64,,,,,,,,,,,,,,,,,102.55633507482708,103.59921446070075,103.59921446070075,103.59921446070075,103.59921446070075,103.59921446070075,None,None,,,,,,,,,,,,,,,,,,,,,,,,,,,,,,,,,,,,ST01_120922,2022-12-09_12h11.18.881,Hippopolis_Learning,2022.2.2,59.80444413313406,
Camponello,stimuli/subj_files/ST01_120922_cityB.csv,./stimuli/arnedillo.png,./stimuli/street_plate2.png,./stimuli/videos/camponello_part,./stimuli/videos/campo-satellite.mp4,KÁRTYA UTCA,stimuli/objects/061a.jpg,object,left,2,stimuli/scenes/032a.jpg,stimuli/objects/118a.jpg,stimuli/objects/118b.jpg,stimuli/scenes/032b.jpg,stimuli/scenes/032a.jpg,dist1,dist2,lure,target,0,0,0,0,0,12,12,2,,,,,,,,,,,,,,,,,106.55737539194524,107.59147008880973,107.59147008880973,107.59147008880973,107.59147008880973,107.59147008880973,None,None,107.59147008880973,,,,,,,,,,,,,,,,,,,,,,,,,,,,,,,,,,,ST01_120922,2022-12-09_12h11.18.881,Hippopolis_Learning,2022.2.2,59.80444413313406,
Camponello,stimuli/subj_files/ST01_120922_cityB.csv,./stimuli/arnedillo.png,./stimuli/street_plate2.png,./stimuli/videos/camponello_part,./stimuli/videos/campo-satellite.mp4,SÜTŐ UTCA,stimuli/scenes/015a.jpg,scene,right,2,stimuli/objects/118a.jpg,stimuli/scenes/079a.jpg,stimuli/objects/118a.jpg,stimuli/scenes/079b.jpg,stimuli/objects/118b.jpg,dist1,target,dist2,lure,0,0,0,0,0,13,13,76,,,,,,,,,,,,,,,,,110.55763974785805,111.59969869628549,111.59969869628549,111.59969869628549,111.59969869628549,111.59969869628549,None,None,,,,,,,,,,,,,,,,,,,,,,,,,,,,,,,,,,,,ST01_120922,2022-12-09_12h11.18.881,Hippopolis_Learning,2022.2.2,59.80444413313406,
Camponello,stimuli/subj_files/ST01_120922_cityB.csv,./stimuli/arnedillo.png,./stimuli/street_plate2.png,./stimuli/videos/camponello_part,./stimuli/videos/campo-satellite.mp4,PAPAGÁJ UTCA,stimuli/objects/082a.jpg,object,left,0,stimuli/objects/082a.jpg,stimuli/scenes/092a.jpg,stimuli/objects/082a.jpg,stimuli/scenes/092b.jpg,stimuli/objects/082b.jpg,dist1,target,dist2,lure,0,0,0,0,0,14,14,44,,,,,,,,,,,,,,,,,114.57039909623563,115.60755036398768,115.60755036398768,115.60755036398768,115.60755036398768,115.60755036398768,None,None,,,,,,,,,,,,,,,,,,,,,,,,,,,,,,,,,,,,ST01_120922,2022-12-09_12h11.18.881,Hippopolis_Learning,2022.2.2,59.80444413313406,
Camponello,stimuli/subj_files/ST01_120922_cityB.csv,./stimuli/arnedillo.png,./stimuli/street_plate2.png,./stimuli/videos/camponello_part,./stimuli/videos/campo-satellite.mp4,CUKOR UTCA,stimuli/objects/030a.jpg,object,left,1,stimuli/objects/022a.jpg,stimuli/objects/022a.jpg,stimuli/objects/049a.jpg,stimuli/objects/049b.jpg,stimuli/objects/022b.jpg,target,dist1,dist2,lure,0,0,0,0,0,15,15,29,,,,,,,,,,,,,,,,,118.58652757667005,119.61744441092014,119.61744441092014,119.61744441092014,119.61744441092014,119.61744441092014,None,None,,,,,,,,,,,,,,,,,,,,,,,,,,,,,,,,,,,,ST01_120922,2022-12-09_12h11.18.881,Hippopolis_Learning,2022.2.2,59.80444413313406,
Camponello,stimuli/subj_files/ST01_120922_cityB.csv,./stimuli/arnedillo.png,./stimuli/street_plate2.png,./stimuli/videos/camponello_part,./stimuli/videos/campo-satellite.mp4,TISZTÁS UTCA,stimuli/objects/017a.jpg,object,left,0,stimuli/objects/017a.jpg,stimuli/objects/017b.jpg,stimuli/objects/088a.jpg,stimuli/objects/088b.jpg,stimuli/objects/017a.jpg,lure,dist1,dist2,target,0,0,0,0,0,16,16,77,,,,,,,,,,,,,,,,,122.58805057406425,123.64629180915654,123.64629180915654,123.64629180915654,123.64629180915654,123.64629180915654,None,None,,,,,,,,,,,,,,,,,,,,,,,,,,,,,,,,,,,,ST01_120922,2022-12-09_12h11.18.881,Hippopolis_Learning,2022.2.2,59.80444413313406,
Camponello,stimuli/subj_files/ST01_120922_cityB.csv,./stimuli/arnedillo.png,./stimuli/street_plate2.png,./stimuli/videos/camponello_part,./stimuli/videos/campo-satellite.mp4,ZEBRA UTCA,stimuli/scenes/035a.jpg,scene,right,0,stimuli/scenes/035a.jpg,stimuli/scenes/035b.jpg,stimuli/objects/090b.jpg,stimuli/scenes/035a.jpg,stimuli/objects/090a.jpg,lure,dist2,target,dist1,0,0,0,0,0,17,17,6,,,,,,,,,,,,,,,,,126.59778818488121,127.62780496664345,127.62780496664345,127.62780496664345,127.62780496664345,127.62780496664345,None,None,,,,,,,,,,,,,,,,,,,,,,,,,,,,,,,,,,,,ST01_120922,2022-12-09_12h11.18.881,Hippopolis_Learning,2022.2.2,59.80444413313406,
Camponello,stimuli/subj_files/ST01_120922_cityB.csv,./stimuli/arnedillo.png,./stimuli/street_plate2.png,./stimuli/videos/camponello_part,./stimuli/videos/campo-satellite.mp4,BAGOLY UTCA,stimuli/objects/116a.jpg,object,left,0,stimuli/objects/116a.jpg,stimuli/objects/016a.jpg,stimuli/objects/016b.jpg,stimuli/objects/116a.jpg,stimuli/objects/116b.jpg,dist1,dist2,target,lure,0,0,0,0,0,18,18,36,,,,,,,,,,,,,,,,,130.60468039661646,131.64520608447492,131.64520608447492,131.64520608447492,131.64520608447492,131.64520608447492,None,None,,,,,,,,,,,,,,,,,,,,,,,,,,,,,,,,,,,,ST01_120922,2022-12-09_12h11.18.881,Hippopolis_Learning,2022.2.2,59.80444413313406,
Camponello,stimuli/subj_files/ST01_120922_cityB.csv,./stimuli/arnedillo.png,./stimuli/street_plate2.png,./stimuli/videos/camponello_part,./stimuli/videos/campo-satellite.mp4,KERET UTCA,stimuli/objects/023a.jpg,object,left,2,stimuli/scenes/108a.jpg,stimuli/scenes/108b.jpg,stimuli/scenes/094b.jpg,stimuli/scenes/094a.jpg,stimuli/scenes/108a.jpg,lure,dist2,dist1,target,0,0,0,0,0,19,19,38,,,,,,,,,,,,,,,,,134.621024094522,135.66133549809456,135.66133549809456,135.66133549809456,135.66133549809456,135.66133549809456,None,None,,,,,,,,,,,,,,,,,,,,,,,,,,,,,,,,,,,,ST01_120922,2022-12-09_12h11.18.881,Hippopolis_Learning,2022.2.2,59.80444413313406,
Camponello,stimuli/subj_files/ST01_120922_cityB.csv,./stimuli/arnedillo.png,./stimuli/street_plate2.png,./stimuli/videos/camponello_part,./stimuli/videos/campo-satellite.mp4,ZSEMLE UTCA,stimuli/scenes/105a.jpg,scene,right,0,stimuli/scenes/105a.jpg,stimuli/scenes/105a.jpg,stimuli/objects/038a.jpg,stimuli/objects/038b.jpg,stimuli/scenes/105b.jpg,target,dist1,dist2,lure,0,0,0,0,0,20,20,40,,,,,,,,,,,,,,,,,138.62161936052144,139.65232906490564,139.65232906490564,139.65232906490564,139.65232906490564,139.65232906490564,None,None,,,,,,,,,,,,,,,,,,,,,,,,,,,,,,,,,,,,ST01_120922,2022-12-09_12h11.18.881,Hippopolis_Learning,2022.2.2,59.80444413313406,
Camponello,stimuli/subj_files/ST01_120922_cityB.csv,./stimuli/arnedillo.png,./stimuli/street_plate2.png,./stimuli/videos/camponello_part,./stimuli/videos/campo-satellite.mp4,PIZSAMA UTCA,stimuli/scenes/041a.jpg,scene,right,0,stimuli/scenes/041a.jpg,stimuli/scenes/082b.jpg,stimuli/scenes/041b.jpg,stimuli/scenes/041a.jpg,stimuli/scenes/082a.jpg,dist2,lure,target,dist1,0,0,0,0,0,21,21,39,,,,,,,,,,,,,,,,,142.63747135549784,143.67039729095995,143.67039729095995,143.67039729095995,143.67039729095995,143.67039729095995,None,None,,,,,,,,,,,,,,,,,,,,,,,,,,,,,,,,,,,,ST01_120922,2022-12-09_12h11.18.881,Hippopolis_Learning,2022.2.2,59.80444413313406,
Camponello,stimuli/subj_files/ST01_120922_cityB.csv,./stimuli/arnedillo.png,./stimuli/street_plate2.png,./stimuli/videos/camponello_part,./stimuli/videos/campo-satellite.mp4,TÁSKA UTCA,stimuli/scenes/083a.jpg,scene,right,0,stimuli/scenes/083a.jpg,stimuli/objects/119a.jpg,stimuli/scenes/083b.jpg,stimuli/scenes/083a.jpg,stimuli/objects/119b.jpg,dist1,lure,target,dist2,0,0,0,0,0,22,22,16,,,,,,,,,,,,,,,,,146.65430022217333,147.6750197801739,147.6750197801739,147.6750197801739,147.6750197801739,147.6750197801739,None,None,,,,,,,,,,,,,,,,,,,,,,,,,,,,,,,,,,,,ST01_120922,2022-12-09_12h11.18.881,Hippopolis_Learning,2022.2.2,59.80444413313406,
Camponello,stimuli/subj_files/ST01_120922_cityB.csv,./stimuli/arnedillo.png,./stimuli/street_plate2.png,./stimuli/videos/camponello_part,./stimuli/videos/campo-satellite.mp4,TÜKÖR UTCA,stimuli/objects/081a.jpg,object,left,0,stimuli/objects/081a.jpg,stimuli/objects/081b.jpg,stimuli/objects/060a.jpg,stimuli/objects/081a.jpg,stimuli/objects/060b.jpg,lure,dist1,target,dist2,0,0,0,0,0,23,23,33,,,,,,,,,,,,,,,,,150.6571736112237,151.6952700279653,151.6952700279653,151.6952700279653,151.6952700279653,151.6952700279653,None,None,,,,,,,,,,,,,,,,,,,,,,,,,,,,,,,,,,,,ST01_120922,2022-12-09_12h11.18.881,Hippopolis_Learning,2022.2.2,59.80444413313406,
Camponello,stimuli/subj_files/ST01_120922_cityB.csv,./stimuli/arnedillo.png,./stimuli/street_plate2.png,./stimuli/videos/camponello_part,./stimuli/videos/campo-satellite.mp4,HARMONIKA UTCA,stimuli/scenes/026a.jpg,scene,right,0,stimuli/scenes/026a.jpg,stimuli/objects/116a.jpg,stimuli/scenes/026b.jpg,stimuli/objects/116b.jpg,stimuli/scenes/026a.jpg,dist1,lure,dist2,target,0,0,0,0,0,24,24,24,,,,,,,,,,,,,,,,,154.67059633508325,155.70673030242324,155.70673030242324,155.70673030242324,155.70673030242324,155.70673030242324,None,None,,,,,,,,,,,,,,,,,,,,,,,,,,,,,,,,,,,,ST01_120922,2022-12-09_12h11.18.881,Hippopolis_Learning,2022.2.2,59.80444413313406,
Camponello,stimuli/subj_files/ST01_120922_cityB.csv,./stimuli/arnedillo.png,./stimuli/street_plate2.png,./stimuli/videos/camponello_part,./stimuli/videos/campo-satellite.mp4,BETON UTCA,stimuli/scenes/031a.jpg,scene,right,0,stimuli/scenes/031a.jpg,stimuli/scenes/047a.jpg,stimuli/scenes/031a.jpg,stimuli/scenes/047b.jpg,stimuli/scenes/031b.jpg,dist1,target,dist2,lure,0,0,0,0,0,25,25,48,,,,,,,,,,,,,,,,,158.67095896974206,159.70473333075643,159.70473333075643,159.70473333075643,159.70473333075643,159.70473333075643,None,None,,,,,,,,,,,,,,,,,,,,,,,,,,,,,,,,,,,,ST01_120922,2022-12-09_12h11.18.881,Hippopolis_Learning,2022.2.2,59.80444413313406,
Camponello,stimuli/subj_files/ST01_120922_cityB.csv,./stimuli/arnedillo.png,./stimuli/street_plate2.png,./stimuli/videos/camponello_part,./stimuli/videos/campo-satellite.mp4,NARANCS UTCA,stimuli/objects/099a.jpg,object,left,0,stimuli/objects/099a.jpg,stimuli/objects/099a.jpg,stimuli/objects/099b.jpg,stimuli/scenes/037b.jpg,stimuli/scenes/037a.jpg,target,lure,dist2,dist1,0,0,0,0,0,26,26,19,,,,,,,,,,,,,,,,,162.69648388586938,163.72709064744413,163.72709064744413,163.72709064744413,163.72709064744413,163.72709064744413,None,None,,,,,,,,,,,,,,,,,,,,,,,,,,,,,,,,,,,,ST01_120922,2022-12-09_12h11.18.881,Hippopolis_Learning,2022.2.2,59.80444413313406,
Camponello,stimuli/subj_files/ST01_120922_cityB.csv,./stimuli/arnedillo.png,./stimuli/street_plate2.png,./stimuli/videos/camponello_part,./stimuli/videos/campo-satellite.mp4,TERASZ UTCA,stimuli/objects/016a.jpg,object,left,0,stimuli/objects/016a.jpg,stimuli/objects/016b.jpg,stimuli/objects/016a.jpg,stimuli/objects/081a.jpg,stimuli/objects/081b.jpg,lure,target,dist1,dist2,0,0,0,0,0,27,27,22,,,,,,,,,,,,,,,,,166.70061249658465,167.73102892003953,167.73102892003953,167.73102892003953,167.73102892003953,167.73102892003953,None,None,,,,,,,,,,,,,,,,,,,,,,,,,,,,,,,,,,,,ST01_120922,2022-12-09_12h11.18.881,Hippopolis_Learning,2022.2.2,59.80444413313406,
Camponello,stimuli/subj_files/ST01_120922_cityB.csv,./stimuli/arnedillo.png,./stimuli/street_plate2.png,./stimuli/videos/camponello_part,./stimuli/videos/campo-satellite.mp4,MAJOM UTCA,stimuli/objects/085a.jpg,object,left,0,stimuli/objects/085a.jpg,stimuli/scenes/112b.jpg,stimuli/scenes/112a.jpg,stimuli/objects/085a.jpg,stimuli/objects/085b.jpg,dist2,dist1,target,lure,0,0,0,0,0,28,28,11,,,,,,,,,,,,,,,,,170.7038513161242,171.74416085518897,171.74416085518897,171.74416085518897,171.74416085518897,171.74416085518897,None,None,,,,,,,,,,,,,,,,,,,,,,,,,,,,,,,,,,,,ST01_120922,2022-12-09_12h11.18.881,Hippopolis_Learning,2022.2.2,59.80444413313406,
Camponello,stimuli/subj_files/ST01_120922_cityB.csv,./stimuli/arnedillo.png,./stimuli/street_plate2.png,./stimuli/videos/camponello_part,./stimuli/videos/campo-satellite.mp4,KESELYŰ UTCA,stimuli/scenes/103a.jpg,scene,right,2,stimuli/objects/073a.jpg,stimuli/scenes/104b.jpg,stimuli/objects/073b.jpg,stimuli/scenes/104a.jpg,stimuli/objects/073a.jpg,dist2,lure,dist1,target,0,0,0,0,0,29,29,74,,,,,,,,,,,,,,,,,174.72149937413633,175.77104206942022,175.77104206942022,175.77104206942022,175.77104206942022,175.77104206942022,None,None,,,,,,,,,,,,,,,,,,,,,,,,,,,,,,,,,,,,ST01_120922,2022-12-09_12h11.18.881,Hippopolis_Learning,2022.2.2,59.80444413313406,
Camponello,stimuli/subj_files/ST01_120922_cityB.csv,./stimuli/arnedillo.png,./stimuli/street_plate2.png,./stimuli/videos/camponello_part,./stimuli/videos/campo-satellite.mp4,LEGELŐ UTCA,stimuli/objects/037a.jpg,object,left,0,stimuli/objects/037a.jpg,stimuli/objects/037b.jpg,stimuli/scenes/021a.jpg,stimuli/objects/037a.jpg,stimuli/scenes/021b.jpg,lure,dist1,target,dist2,0,0,0,0,0,30,30,43,,,,,,,,,,,,,,,,,178.73706120066345,179.78156310506165,179.78156310506165,179.78156310506165,179.78156310506165,179.78156310506165,None,None,,,,,,,,,,,,,,,,,,,,,,,,,,,,,,,,,,,,ST01_120922,2022-12-09_12h11.18.881,Hippopolis_Learning,2022.2.2,59.80444413313406,
Camponello,stimuli/subj_files/ST01_120922_cityB.csv,./stimuli/arnedillo.png,./stimuli/street_plate2.png,./stimuli/videos/camponello_part,./stimuli/videos/campo-satellite.mp4,TOLMÁCS UTCA,stimuli/scenes/092a.jpg,scene,right,0,stimuli/scenes/092a.jpg,stimuli/objects/032a.jpg,stimuli/objects/032b.jpg,stimuli/scenes/092b.jpg,stimuli/scenes/092a.jpg,dist1,dist2,lure,target,0,0,0,0,0,31,31,31,,,,,,,,,,,,,,,,,182.7538275551051,183.79190189018846,183.79190189018846,183.79190189018846,183.79190189018846,183.79190189018846,None,None,,,,,,,,,,,,,,,,,,,,,,,,,,,,,,,,,,,,ST01_120922,2022-12-09_12h11.18.881,Hippopolis_Learning,2022.2.2,59.80444413313406,
Camponello,stimuli/subj_files/ST01_120922_cityB.csv,./stimuli/arnedillo.png,./stimuli/street_plate2.png,./stimuli/videos/camponello_part,./stimuli/videos/campo-satellite.mp4,POGÁCSA UTCA,stimuli/objects/038a.jpg,object,left,0,stimuli/objects/038a.jpg,stimuli/objects/095b.jpg,stimuli/objects/038b.jpg,stimuli/objects/038a.jpg,stimuli/objects/095a.jpg,dist2,lure,target,dist1,0,0,0,0,0,32,32,73,,,,,,,,,,,,,,,,,186.76452679745853,187.80359728634357,187.80359728634357,187.80359728634357,187.80359728634357,187.80359728634357,None,None,,,,,,,,,,,,,,,,,,,,,,,,,,,,,,,,,,,,ST01_120922,2022-12-09_12h11.18.881,Hippopolis_Learning,2022.2.2,59.80444413313406,
Camponello,stimuli/subj_files/ST01_120922_cityB.csv,./stimuli/arnedillo.png,./stimuli/street_plate2.png,./stimuli/videos/camponello_part,./stimuli/videos/campo-satellite.mp4,ASZTAL UTCA,stimuli/scenes/047a.jpg,scene,right,0,stimuli/scenes/047a.jpg,stimuli/scenes/059a.jpg,stimuli/scenes/047a.jpg,stimuli/scenes/047b.jpg,stimuli/scenes/059b.jpg,dist1,target,lure,dist2,0,0,0,0,0,33,33,34,,,,,,,,,,,,,,,,,190.7702172808349,191.81110777892172,191.81110777892172,191.81110777892172,191.81110777892172,191.81110777892172,None,None,,,,,,,,,,,,,,,,,,,,,,,,,,,,,,,,,,,,ST01_120922,2022-12-09_12h11.18.881,Hippopolis_Learning,2022.2.2,59.80444413313406,
Camponello,stimuli/subj_files/ST01_120922_cityB.csv,./stimuli/arnedillo.png,./stimuli/street_plate2.png,./stimuli/videos/camponello_part,./stimuli/videos/campo-satellite.mp4,KOCKA UTCA,stimuli/objects/032a.jpg,object,left,0,stimuli/objects/032a.jpg,stimuli/scenes/035a.jpg,stimuli/scenes/035b.jpg,stimuli/objects/032a.jpg,stimuli/objects/032b.jpg,dist1,dist2,target,lure,0,0,0,0,0,34,34,62,,,,,,,,,,,,,,,,,194.78671710379422,195.8185706883669,195.8185706883669,195.8185706883669,195.8185706883669,195.8185706883669,None,None,,,,,,,,,,,,,,,,,,,,,,,,,,,,,,,,,,,,ST01_120922,2022-12-09_12h11.18.881,Hippopolis_Learning,2022.2.2,59.80444413313406,
Camponello,stimuli/subj_files/ST01_120922_cityB.csv,./stimuli/arnedillo.png,./stimuli/street_plate2.png,./stimuli/videos/camponello_part,./stimuli/videos/campo-satellite.mp4,FÉNYKÉP UTCA,stimuli/scenes/049a.jpg,scene,right,0,stimuli/scenes/049a.jpg,stimuli/scenes/105a.jpg,stimuli/scenes/049b.jpg,stimuli/scenes/049a.jpg,stimuli/scenes/105b.jpg,dist1,lure,target,dist2,0,0,0,0,0,35,35,46,,,,,,,,,,,,,,,,,198.79907089844346,199.8385472521186,199.8385472521186,199.8385472521186,199.8385472521186,199.8385472521186,None,None,,,,,,,,,,,,,,,,,,,,,,,,,,,,,,,,,,,,ST01_120922,2022-12-09_12h11.18.881,Hippopolis_Learning,2022.2.2,59.80444413313406,
Camponello,stimuli/subj_files/ST01_120922_cityB.csv,./stimuli/arnedillo.png,./stimuli/street_plate2.png,./stimuli/videos/camponello_part,./stimuli/videos/campo-satellite.mp4,LÉTRA UTCA,stimuli/objects/058a.jpg,object,left,2,stimuli/scenes/104a.jpg,stimuli/scenes/104b.jpg,stimuli/scenes/104a.jpg,stimuli/scenes/032b.jpg,stimuli/scenes/032a.jpg,lure,target,dist2,dist1,0,0,0,0,0,36,36,26,,,,,,,,,,,,,,,,,202.80324273929,203.82866751216352,203.82866751216352,203.82866751216352,203.82866751216352,203.82866751216352,None,None,,,,,,,,,,,,,,,,,,,,,,,,,,,,,,,,,,,,ST01_120922,2022-12-09_12h11.18.881,Hippopolis_Learning,2022.2.2,59.80444413313406,
Camponello,stimuli/subj_files/ST01_120922_cityB.csv,./stimuli/arnedillo.png,./stimuli/street_plate2.png,./stimuli/videos/camponello_part,./stimuli/videos/campo-satellite.mp4,BÖGRE UTCA,stimuli/scenes/111a.jpg,scene,right,2,stimuli/objects/018a.jpg,stimuli/objects/018b.jpg,stimuli/objects/007a.jpg,stimuli/objects/018a.jpg,stimuli/objects/007b.jpg,lure,dist1,target,dist2,0,0,0,0,0,37,37,67,,,,,,,,,,,,,,,,,206.81484234519303,207.84837287664413,207.84837287664413,207.84837287664413,207.84837287664413,207.84837287664413,None,None,,,,,,,,,,,,,,,,,,,,,,,,,,,,,,,,,,,,ST01_120922,2022-12-09_12h11.18.881,Hippopolis_Learning,2022.2.2,59.80444413313406,
Camponello,stimuli/subj_files/ST01_120922_cityB.csv,./stimuli/arnedillo.png,./stimuli/street_plate2.png,./stimuli/videos/camponello_part,./stimuli/videos/campo-satellite.mp4,LOVAGLÁS UTCA,stimuli/scenes/048a.jpg,scene,right,2,stimuli/objects/057a.jpg,stimuli/objects/019b.jpg,stimuli/objects/057a.jpg,stimuli/objects/019a.jpg,stimuli/objects/057b.jpg,dist2,target,dist1,lure,0,0,0,0,0,38,38,55,,,,,,,,,,,,,,,,,210.8236559536308,211.86091141030192,211.86091141030192,211.86091141030192,211.86091141030192,211.86091141030192,None,None,,,,,,,,,,,,,,,,,,,,,,,,,,,,,,,,,,,,ST01_120922,2022-12-09_12h11.18.881,Hippopolis_Learning,2022.2.2,59.80444413313406,
Camponello,stimuli/subj_files/ST01_120922_cityB.csv,./stimuli/arnedillo.png,./stimuli/street_plate2.png,./stimuli/videos/camponello_part,./stimuli/videos/campo-satellite.mp4,SZAXOFON UTCA,stimuli/objects/060a.jpg,object,left,0,stimuli/objects/060a.jpg,stimuli/scenes/005b.jpg,stimuli/objects/060a.jpg,stimuli/scenes/005a.jpg,stimuli/objects/060b.jpg,dist2,target,dist1,lure,0,0,0,0,0,39,39,18,,,,,,,,,,,,,,,,,214.8368715494871,215.8806792870164,215.8806792870164,215.8806792870164,215.8806792870164,215.8806792870164,None,None,,,,,,,,,,,,,,,,,,,,,,,,,,,,,,,,,,,,ST01_120922,2022-12-09_12h11.18.881,Hippopolis_Learning,2022.2.2,59.80444413313406,
Camponello,stimuli/subj_files/ST01_120922_cityB.csv,./stimuli/arnedillo.png,./stimuli/street_plate2.png,./stimuli/videos/camponello_part,./stimuli/videos/campo-satellite.mp4,CITROM UTCA,stimuli/scenes/005a.jpg,scene,right,0,stimuli/scenes/005a.jpg,stimuli/objects/069b.jpg,stimuli/scenes/005b.jpg,stimuli/objects/069a.jpg,stimuli/scenes/005a.jpg,dist2,lure,dist1,target,0,0,0,0,0,40,40,12,,,,,,,,,,,,,,,,,218.83935804478824,219.87328355573118,219.87328355573118,219.87328355573118,219.87328355573118,219.87328355573118,None,None,219.87328355573118,,,,,,,,,,,,,,,,,,,,,,,,,,,,,,,,,,,ST01_120922,2022-12-09_12h11.18.881,Hippopolis_Learning,2022.2.2,59.80444413313406,
Camponello,stimuli/subj_files/ST01_120922_cityB.csv,./stimuli/arnedillo.png,./stimuli/street_plate2.png,./stimuli/videos/camponello_part,./stimuli/videos/campo-satellite.mp4,LIGET UTCA,stimuli/objects/108a.jpg,object,left,1,stimuli/objects/100a.jpg,stimuli/scenes/080b.jpg,stimuli/objects/100b.jpg,stimuli/objects/100a.jpg,stimuli/scenes/080a.jpg,dist2,lure,target,dist1,0,0,0,0,0,41,41,8,,,,,,,,,,,,,,,,,222.83852299302816,223.88538761250675,223.88538761250675,223.88538761250675,223.88538761250675,223.88538761250675,None,None,,,,,,,,,,,,,,,,,,,,,,,,,,,,,,,,,,,,ST01_120922,2022-12-09_12h11.18.881,Hippopolis_Learning,2022.2.2,59.80444413313406,
Camponello,stimuli/subj_files/ST01_120922_cityB.csv,./stimuli/arnedillo.png,./stimuli/street_plate2.png,./stimuli/videos/camponello_part,./stimuli/videos/campo-satellite.mp4,KARTON UTCA,stimuli/objects/074a.jpg,object,left,0,stimuli/objects/074a.jpg,stimuli/objects/074b.jpg,stimuli/objects/074a.jpg,stimuli/scenes/026a.jpg,stimuli/scenes/026b.jpg,lure,target,dist1,dist2,0,0,0,0,0,42,42,56,,,,,,,,,,,,,,,,,226.8529602214694,227.8866083137691,227.8866083137691,227.8866083137691,227.8866083137691,227.8866083137691,None,None,227.8866083137691,,,,,,,,,,,,,,,,,,,,,,,,,,,,,,,,,,,ST01_120922,2022-12-09_12h11.18.881,Hippopolis_Learning,2022.2.2,59.80444413313406,
Camponello,stimuli/subj_files/ST01_120922_cityB.csv,./stimuli/arnedillo.png,./stimuli/street_plate2.png,./stimuli/videos/camponello_part,./stimuli/videos/campo-satellite.mp4,KAKAS UTCA,stimuli/scenes/095a.jpg,scene,right,0,stimuli/scenes/095a.jpg,stimuli/scenes/095a.jpg,stimuli/scenes/033b.jpg,stimuli/scenes/095b.jpg,stimuli/scenes/033a.jpg,target,dist2,lure,dist1,0,0,0,0,0,43,43,1,,,,,,,,,,,,,,,,,230.86968210153282,231.91060681082308,231.91060681082308,231.91060681082308,231.91060681082308,231.91060681082308,None,None,,,,,,,,,,,,,,,,,,,,,,,,,,,,,,,,,,,,ST01_120922,2022-12-09_12h11.18.881,Hippopolis_Learning,2022.2.2,59.80444413313406,
Camponello,stimuli/subj_files/ST01_120922_cityB.csv,./stimuli/arnedillo.png,./stimuli/street_plate2.png,./stimuli/videos/camponello_part,./stimuli/videos/campo-satellite.mp4,MARTINI UTCA,stimuli/scenes/001a.jpg,scene,right,0,stimuli/scenes/001a.jpg,stimuli/scenes/001a.jpg,stimuli/objects/053b.jpg,stimuli/objects/053a.jpg,stimuli/scenes/001b.jpg,target,dist2,dist1,lure,0,0,0,0,0,44,44,50,,,,,,,,,,,,,,,,,234.87433071434498,235.9148150384426,235.9148150384426,235.9148150384426,235.9148150384426,235.9148150384426,None,space,,238.88572101294994,238.88572101294994,3.1780406050384045,,,,,,,,,,,,,,,,,,,,,,,,,,,,,,,,ST01_120922,2022-12-09_12h11.18.881,Hippopolis_Learning,2022.2.2,59.80444413313406,
Camponello,stimuli/subj_files/ST01_120922_cityB.csv,./stimuli/arnedillo.png,./stimuli/street_plate2.png,./stimuli/videos/camponello_part,./stimuli/videos/campo-satellite.mp4,TORONY UTCA,stimuli/scenes/112a.jpg,scene,right,0,stimuli/scenes/112a.jpg,stimuli/scenes/112b.jpg,stimuli/scenes/112a.jpg,stimuli/scenes/086a.jpg,stimuli/scenes/086b.jpg,lure,target,dist1,dist2,0,0,0,0,0,45,45,65,,,,,,,,,,,,,,,,,242.09917962737381,243.14436792209744,243.14436792209744,243.14436792209744,243.14436792209744,243.14436792209744,None,None,,,,,,,,,,,,,,,,,,,,,,,,,,,,,,,,,,,,ST01_120922,2022-12-09_12h11.18.881,Hippopolis_Learning,2022.2.2,59.80444413313406,
Camponello,stimuli/subj_files/ST01_120922_cityB.csv,./stimuli/arnedillo.png,./stimuli/street_plate2.png,./stimuli/videos/camponello_part,./stimuli/videos/campo-satellite.mp4,TENISZ UTCA,stimuli/scenes/058a.jpg,scene,right,1,stimuli/scenes/099a.jpg,stimuli/scenes/099b.jpg,stimuli/objects/027a.jpg,stimuli/scenes/099a.jpg,stimuli/objects/027b.jpg,lure,dist1,target,dist2,0,0,0,0,0,46,46,75,,,,,,,,,,,,,,,,,246.1183600127697,247.1586085949093,247.1586085949093,247.1586085949093,247.1586085949093,247.1586085949093,None,None,,,,,,,,,,,,,,,,,,,,,,,,,,,,,,,,,,,,ST01_120922,2022-12-09_12h11.18.881,Hippopolis_Learning,2022.2.2,59.80444413313406,
Camponello,stimuli/subj_files/ST01_120922_cityB.csv,./stimuli/arnedillo.png,./stimuli/street_plate2.png,./stimuli/videos/camponello_part,./stimuli/videos/campo-satellite.mp4,ÁRNYÉK UTCA,stimuli/objects/053a.jpg,object,left,0,stimuli/objects/053a.jpg,stimuli/scenes/109a.jpg,stimuli/objects/053b.jpg,stimuli/objects/053a.jpg,stimuli/scenes/109b.jpg,dist1,lure,target,dist2,0,0,0,0,0,47,47,60,,,,,,,,,,,,,,,,,250.12837410718203,251.16671839728951,251.16671839728951,251.16671839728951,251.16671839728951,251.16671839728951,None,None,,,,,,,,,,,,,,,,,,,,,,,,,,,,,,,,,,,,ST01_120922,2022-12-09_12h11.18.881,Hippopolis_Learning,2022.2.2,59.80444413313406,
Camponello,stimuli/subj_files/ST01_120922_cityB.csv,./stimuli/arnedillo.png,./stimuli/street_plate2.png,./stimuli/videos/camponello_part,./stimuli/videos/campo-satellite.mp4,PALACK UTCA,stimuli/scenes/024a.jpg,scene,right,0,stimuli/scenes/024a.jpg,stimuli/scenes/024b.jpg,stimuli/scenes/031b.jpg,stimuli/scenes/024a.jpg,stimuli/scenes/031a.jpg,lure,dist2,target,dist1,0,0,0,0,0,48,48,14,,,,,,,,,,,,,,,,,254.13596142083406,255.1677798628807,255.1677798628807,255.1677798628807,255.1677798628807,255.1677798628807,None,None,,,,,,,,,,,,,,,,,,,,,,,,,,,,,,,,,,,,ST01_120922,2022-12-09_12h11.18.881,Hippopolis_Learning,2022.2.2,59.80444413313406,
Camponello,stimuli/subj_files/ST01_120922_cityB.csv,./stimuli/arnedillo.png,./stimuli/street_plate2.png,./stimuli/videos/camponello_part,./stimuli/videos/campo-satellite.mp4,KÖTÉL UTCA,stimuli/objects/104a.jpg,object,left,0,stimuli/objects/104a.jpg,stimuli/objects/104a.jpg,stimuli/scenes/049b.jpg,stimuli/scenes/049a.jpg,stimuli/objects/104b.jpg,target,dist2,dist1,lure,0,0,0,0,0,49,49,69,,,,,,,,,,,,,,,,,258.1519633214921,259.1719479691237,259.1719479691237,259.1719479691237,259.1719479691237,259.1719479691237,None,None,259.1719479691237,,,,,,,,,,,,,,,,,,,,,,,,,,,,,,,,,,,ST01_120922,2022-12-09_12h11.18.881,Hippopolis_Learning,2022.2.2,59.80444413313406,
Camponello,stimuli/subj_files/ST01_120922_cityB.csv,./stimuli/arnedillo.png,./stimuli/street_plate2.png,./stimuli/videos/camponello_part,./stimuli/videos/campo-satellite.mp4,HORDÓ UTCA,stimuli/scenes/004a.jpg,scene,right,1,stimuli/scenes/034a.jpg,stimuli/scenes/099b.jpg,stimuli/scenes/034b.jpg,stimuli/scenes/034a.jpg,stimuli/scenes/099a.jpg,dist2,lure,target,dist1,0,0,0,0,0,50,50,3,,,,,,,,,,,,,,,,,262.16965802945197,263.1957834996283,263.1957834996283,263.1957834996283,263.1957834996283,263.1957834996283,None,None,,,,,,,,,,,,,,,,,,,,,,,,,,,,,,,,,,,,ST01_120922,2022-12-09_12h11.18.881,Hippopolis_Learning,2022.2.2,59.80444413313406,
Camponello,stimuli/subj_files/ST01_120922_cityB.csv,./stimuli/arnedillo.png,./stimuli/street_plate2.png,./stimuli/videos/camponello_part,./stimuli/videos/campo-satellite.mp4,CSILLAG UTCA,stimuli/objects/119a.jpg,object,left,0,stimuli/objects/119a.jpg,stimuli/scenes/062a.jpg,stimuli/scenes/062b.jpg,stimuli/objects/119a.jpg,stimuli/objects/119b.jpg,dist1,dist2,target,lure,0,0,0,0,0,51,51,35,,,,,,,,,,,,,,,,,266.18598462082446,267.22277574427426,267.22277574427426,267.22277574427426,267.22277574427426,267.22277574427426,None,None,,,,,,,,,,,,,,,,,,,,,,,,,,,,,,,,,,,,ST01_120922,2022-12-09_12h11.18.881,Hippopolis_Learning,2022.2.2,59.80444413313406,
Camponello,stimuli/subj_files/ST01_120922_cityB.csv,./stimuli/arnedillo.png,./stimuli/street_plate2.png,./stimuli/videos/camponello_part,./stimuli/videos/campo-satellite.mp4,HARCSA UTCA,stimuli/objects/051a.jpg,object,left,0,stimuli/objects/051a.jpg,stimuli/scenes/001b.jpg,stimuli/scenes/001a.jpg,stimuli/objects/051a.jpg,stimuli/objects/051b.jpg,dist2,dist1,target,lure,0,0,0,0,0,52,52,10,,,,,,,,,,,,,,,,,270.18774429522455,271.2269569132477,271.2269569132477,271.2269569132477,271.2269569132477,271.2269569132477,None,None,,,,,,,,,,,,,,,,,,,,,,,,,,,,,,,,,,,,ST01_120922,2022-12-09_12h11.18.881,Hippopolis_Learning,2022.2.2,59.80444413313406,
Camponello,stimuli/subj_files/ST01_120922_cityB.csv,./stimuli/arnedillo.png,./stimuli/street_plate2.png,./stimuli/videos/camponello_part,./stimuli/videos/campo-satellite.mp4,VIHAR UTCA,stimuli/scenes/065a.jpg,scene,right,2,stimuli/objects/019a.jpg,stimuli/scenes/040a.jpg,stimuli/objects/019a.jpg,stimuli/objects/019b.jpg,stimuli/scenes/040b.jpg,dist1,target,lure,dist2,0,0,0,0,0,53,53,54,,,,,,,,,,,,,,,,,274.1969280038029,275.2254174333066,275.2254174333066,275.2254174333066,275.2254174333066,275.2254174333066,None,None,,,,,,,,,,,,,,,,,,,,,,,,,,,,,,,,,,,,ST01_120922,2022-12-09_12h11.18.881,Hippopolis_Learning,2022.2.2,59.80444413313406,
Camponello,stimuli/subj_files/ST01_120922_cityB.csv,./stimuli/arnedillo.png,./stimuli/street_plate2.png,./stimuli/videos/camponello_part,./stimuli/videos/campo-satellite.mp4,KALAPÁCS UTCA,stimuli/objects/011a.jpg,object,left,0,stimuli/objects/011a.jpg,stimuli/scenes/003a.jpg,stimuli/scenes/003b.jpg,stimuli/objects/011b.jpg,stimuli/objects/011a.jpg,dist1,dist2,lure,target,0,0,0,0,0,54,54,47,,,,,,,,,,,,,,,,,278.20538240112364,279.2438106611371,279.2438106611371,279.2438106611371,279.2438106611371,279.2438106611371,None,None,,,,,,,,,,,,,,,,,,,,,,,,,,,,,,,,,,,,ST01_120922,2022-12-09_12h11.18.881,Hippopolis_Learning,2022.2.2,59.80444413313406,
Camponello,stimuli/subj_files/ST01_120922_cityB.csv,./stimuli/arnedillo.png,./stimuli/street_plate2.png,./stimuli/videos/camponello_part,./stimuli/videos/campo-satellite.mp4,KÖTÉNY UTCA,stimuli/scenes/060a.jpg,scene,right,2,stimuli/objects/007a.jpg,stimuli/objects/007a.jpg,stimuli/objects/057b.jpg,stimuli/objects/057a.jpg,stimuli/objects/007b.jpg,target,dist2,dist1,lure,0,0,0,0,0,55,55,28,,,,,,,,,,,,,,,,,282.22193571552634,283.2559582609683,283.2559582609683,283.2559582609683,283.2559582609683,283.2559582609683,None,None,,,,,,,,,,,,,,,,,,,,,,,,,,,,,,,,,,,,ST01_120922,2022-12-09_12h11.18.881,Hippopolis_Learning,2022.2.2,59.80444413313406,
Camponello,stimuli/subj_files/ST01_120922_cityB.csv,./stimuli/arnedillo.png,./stimuli/street_plate2.png,./stimuli/videos/camponello_part,./stimuli/videos/campo-satellite.mp4,KERÉK UTCA,stimuli/objects/090a.jpg,object,left,0,stimuli/objects/090a.jpg,stimuli/objects/090b.jpg,stimuli/objects/074b.jpg,stimuli/objects/090a.jpg,stimuli/objects/074a.jpg,lure,dist2,target,dist1,0,0,0,0,0,56,56,66,,,,,,,,,,,,,,,,,286.23657540977,287.2689934708178,287.2689934708178,287.2689934708178,287.2689934708178,287.2689934708178,None,None,287.2689934708178,,,,,,,,,,,,,,,,,,,,,,,,,,,,,,,,,,,ST01_120922,2022-12-09_12h11.18.881,Hippopolis_Learning,2022.2.2,59.80444413313406,
Camponello,stimuli/subj_files/ST01_120922_cityB.csv,./stimuli/arnedillo.png,./stimuli/street_plate2.png,./stimuli/videos/camponello_part,./stimuli/videos/campo-satellite.mp4,TALICSKA UTCA,stimuli/scenes/088a.jpg,scene,right,0,stimuli/scenes/088a.jpg,stimuli/scenes/095a.jpg,stimuli/scenes/095b.jpg,stimuli/scenes/088a.jpg,stimuli/scenes/088b.jpg,dist1,dist2,target,lure,0,0,0,0,0,57,57,9,,,,,,,,,,,,,,,,,290.2522386237979,291.2769878897816,291.2769878897816,291.2769878897816,291.2769878897816,291.2769878897816,None,None,,,,,,,,,,,,,,,,,,,,,,,,,,,,,,,,,,,,ST01_120922,2022-12-09_12h11.18.881,Hippopolis_Learning,2022.2.2,59.80444413313406,
Camponello,stimuli/subj_files/ST01_120922_cityB.csv,./stimuli/arnedillo.png,./stimuli/street_plate2.png,./stimuli/videos/camponello_part,./stimuli/videos/campo-satellite.mp4,HEGEDŰ UTCA,stimuli/scenes/109a.jpg,scene,right,0,stimuli/scenes/109a.jpg,stimuli/objects/079b.jpg,stimuli/scenes/109b.jpg,stimuli/objects/079a.jpg,stimuli/scenes/109a.jpg,dist2,lure,dist1,target,0,0,0,0,0,58,58,32,,,,,,,,,,,,,,,,,294.27640008740127,295.323021190241,295.323021190241,295.323021190241,295.323021190241,295.323021190241,None,None,,,,,,,,,,,,,,,,,,,,,,,,,,,,,,,,,,,,ST01_120922,2022-12-09_12h11.18.881,Hippopolis_Learning,2022.2.2,59.80444413313406,
Camponello,stimuli/subj_files/ST01_120922_cityB.csv,./stimuli/arnedillo.png,./stimuli/street_plate2.png,./stimuli/videos/camponello_part,./stimuli/videos/campo-satellite.mp4,ZONGORA UTCA,stimuli/objects/064a.jpg,object,left,2,stimuli/scenes/094a.jpg,stimuli/scenes/108b.jpg,stimuli/scenes/094b.jpg,stimuli/scenes/108a.jpg,stimuli/scenes/094a.jpg,dist2,lure,dist1,target,0,0,0,0,0,59,59,21,,,,,,,,,,,,,,,,,298.28549702465534,299.3170946519822,299.3170946519822,299.3170946519822,299.3170946519822,299.3170946519822,None,None,,,,,,,,,,,,,,,,,,,,,,,,,,,,,,,,,,,,ST01_120922,2022-12-09_12h11.18.881,Hippopolis_Learning,2022.2.2,59.80444413313406,
Camponello,stimuli/subj_files/ST01_120922_cityB.csv,./stimuli/arnedillo.png,./stimuli/street_plate2.png,./stimuli/videos/camponello_part,./stimuli/videos/campo-satellite.mp4,SZŐNYEG UTCA,stimuli/objects/026a.jpg,object,left,0,stimuli/objects/026a.jpg,stimuli/objects/026a.jpg,stimuli/objects/099a.jpg,stimuli/objects/026b.jpg,stimuli/objects/099b.jpg,target,dist1,lure,dist2,0,0,0,0,0,60,60,37,,,,,,,,,,,,,,,,,302.29785175435245,303.34872929006815,303.34872929006815,303.34872929006815,303.34872929006815,303.34872929006815,None,None,,,,,,,,,,,,,,,,,,,,,,,,,,,,,,,,,,,,ST01_120922,2022-12-09_12h11.18.881,Hippopolis_Learning,2022.2.2,59.80444413313406,
Camponello,stimuli/subj_files/ST01_120922_cityB.csv,./stimuli/arnedillo.png,./stimuli/street_plate2.png,./stimuli/videos/camponello_part,./stimuli/videos/campo-satellite.mp4,SZÖCSKE UTCA,stimuli/scenes/097a.jpg,scene,right,1,stimuli/scenes/023a.jpg,stimuli/scenes/023a.jpg,stimuli/objects/014a.jpg,stimuli/scenes/023b.jpg,stimuli/objects/014b.jpg,target,dist1,lure,dist2,0,0,0,0,0,61,61,70,,,,,,,,,,,,,,,,,306.30378482304513,307.3367875777185,307.3367875777185,307.3367875777185,307.3367875777185,307.3367875777185,None,None,,,,,,,,,,,,,,,,,,,,,,,,,,,,,,,,,,,,ST01_120922,2022-12-09_12h11.18.881,Hippopolis_Learning,2022.2.2,59.80444413313406,
Camponello,stimuli/subj_files/ST01_120922_cityB.csv,./stimuli/arnedillo.png,./stimuli/street_plate2.png,./stimuli/videos/camponello_part,./stimuli/videos/campo-satellite.mp4,VÁSÁR UTCA,stimuli/objects/083a.jpg,object,left,2,stimuli/scenes/040a.jpg,stimuli/scenes/040b.jpg,stimuli/objects/018b.jpg,stimuli/scenes/040a.jpg,stimuli/objects/018a.jpg,lure,dist2,target,dist1,0,0,0,0,0,62,62,78,,,,,,,,,,,,,,,,,310.31860334426165,311.3646776974201,311.3646776974201,311.3646776974201,311.3646776974201,311.3646776974201,None,None,,,,,,,,,,,,,,,,,,,,,,,,,,,,,,,,,,,,ST01_120922,2022-12-09_12h11.18.881,Hippopolis_Learning,2022.2.2,59.80444413313406,
Camponello,stimuli/subj_files/ST01_120922_cityB.csv,./stimuli/arnedillo.png,./stimuli/street_plate2.png,./stimuli/videos/camponello_part,./stimuli/videos/campo-satellite.mp4,ORVOS UTCA,stimuli/objects/020a.jpg,object,left,0,stimuli/objects/020a.jpg,stimuli/objects/020b.jpg,stimuli/scenes/064a.jpg,stimuli/scenes/064b.jpg,stimuli/objects/020a.jpg,lure,dist1,dist2,target,0,0,0,0,0,63,63,51,,,,,,,,,,,,,,,,,314.3193099517375,315.3596627190709,315.3596627190709,315.3596627190709,315.3596627190709,315.3596627190709,None,None,,,,,,,,,,,,,,,,,,,,,,,,,,,,,,,,,,,,ST01_120922,2022-12-09_12h11.18.881,Hippopolis_Learning,2022.2.2,59.80444413313406,
Camponello,stimuli/subj_files/ST01_120922_cityB.csv,./stimuli/arnedillo.png,./stimuli/street_plate2.png,./stimuli/videos/camponello_part,./stimuli/videos/campo-satellite.mp4,BANÁN UTCA,stimuli/objects/040a.jpg,object,left,0,stimuli/objects/040a.jpg,stimuli/objects/040b.jpg,stimuli/objects/040a.jpg,stimuli/scenes/088a.jpg,stimuli/scenes/088b.jpg,lure,target,dist1,dist2,0,0,0,0,0,64,64,57,,,,,,,,,,,,,,,,,318.3319405429065,319.36472372710705,319.36472372710705,319.36472372710705,319.36472372710705,319.36472372710705,None,None,,,,,,,,,,,,,,,,,,,,,,,,,,,,,,,,,,,,ST01_120922,2022-12-09_12h11.18.881,Hippopolis_Learning,2022.2.2,59.80444413313406,
Camponello,stimuli/subj_files/ST01_120922_cityB.csv,./stimuli/arnedillo.png,./stimuli/street_plate2.png,./stimuli/videos/camponello_part,./stimuli/videos/campo-satellite.mp4,LEVÉL UTCA,stimuli/scenes/073a.jpg,scene,right,1,stimuli/scenes/113a.jpg,stimuli/scenes/113a.jpg,stimuli/scenes/023a.jpg,stimuli/scenes/113b.jpg,stimuli/scenes/023b.jpg,target,dist1,lure,dist2,0,0,0,0,0,65,65,45,,,,,,,,,,,,,,,,,322.33640534989536,323.36831709370017,323.36831709370017,323.36831709370017,323.36831709370017,323.36831709370017,None,None,,,,,,,,,,,,,,,,,,,,,,,,,,,,,,,,,,,,ST01_120922,2022-12-09_12h11.18.881,Hippopolis_Learning,2022.2.2,59.80444413313406,
Camponello,stimuli/subj_files/ST01_120922_cityB.csv,./stimuli/arnedillo.png,./stimuli/street_plate2.png,./stimuli/videos/camponello_part,./stimuli/videos/campo-satellite.mp4,GYŰRŰ UTCA,stimuli/objects/079a.jpg,object,left,0,stimuli/objects/079a.jpg,stimuli/objects/079a.jpg,stimuli/objects/037b.jpg,stimuli/objects/037a.jpg,stimuli/objects/079b.jpg,target,dist2,dist1,lure,0,0,0,0,0,66,66,20,,,,,,,,,,,,,,,,,326.34780466742814,327.3928091581911,327.3928091581911,327.3928091581911,327.3928091581911,327.3928091581911,None,None,,,,,,,,,,,,,,,,,,,,,,,,,,,,,,,,,,,,ST01_120922,2022-12-09_12h11.18.881,Hippopolis_Learning,2022.2.2,59.80444413313406,
Camponello,stimuli/subj_files/ST01_120922_cityB.csv,./stimuli/arnedillo.png,./stimuli/street_plate2.png,./stimuli/videos/camponello_part,./stimuli/videos/campo-satellite.mp4,SZOBOR UTCA,stimuli/scenes/082a.jpg,scene,right,0,stimuli/scenes/082a.jpg,stimuli/scenes/041b.jpg,stimuli/scenes/041a.jpg,stimuli/scenes/082b.jpg,stimuli/scenes/082a.jpg,dist2,dist1,lure,target,0,0,0,0,0,67,67,79,,,,,,,,,,,,,,,,,330.35193141177297,331.39202013611794,331.39202013611794,331.39202013611794,331.39202013611794,331.39202013611794,None,None,,,,,,,,,,,,,,,,,,,,,,,,,,,,,,,,,,,,ST01_120922,2022-12-09_12h11.18.881,Hippopolis_Learning,2022.2.2,59.80444413313406,
Camponello,stimuli/subj_files/ST01_120922_cityB.csv,./stimuli/arnedillo.png,./stimuli/street_plate2.png,./stimuli/videos/camponello_part,./stimuli/videos/campo-satellite.mp4,HÁRFA UTCA,stimuli/scenes/117a.jpg,scene,right,1,stimuli/scenes/080a.jpg,stimuli/scenes/051a.jpg,stimuli/scenes/080b.jpg,stimuli/scenes/080a.jpg,stimuli/scenes/051b.jpg,dist1,lure,target,dist2,0,0,0,0,0,68,68,5,,,,,,,,,,,,,,,,,334.35338318906724,335.4020071718842,335.4020071718842,335.4020071718842,335.4020071718842,335.4020071718842,None,None,,,,,,,,,,,,,,,,,,,,,,,,,,,,,,,,,,,,ST01_120922,2022-12-09_12h11.18.881,Hippopolis_Learning,2022.2.2,59.80444413313406,
Camponello,stimuli/subj_files/ST01_120922_cityB.csv,./stimuli/arnedillo.png,./stimuli/street_plate2.png,./stimuli/videos/camponello_part,./stimuli/videos/campo-satellite.mp4,BÚJÓCSKA UTCA,stimuli/objects/109a.jpg,object,left,1,stimuli/objects/052a.jpg,stimuli/objects/052b.jpg,stimuli/objects/052a.jpg,stimuli/objects/100a.jpg,stimuli/objects/100b.jpg,lure,target,dist1,dist2,0,0,0,0,0,69,69,61,,,,,,,,,,,,,,,,,338.36837898381054,339.4144548922777,339.4144548922777,339.4144548922777,339.4144548922777,339.4144548922777,None,None,,,,,,,,,,,,,,,,,,,,,,,,,,,,,,,,,,,,ST01_120922,2022-12-09_12h11.18.881,Hippopolis_Learning,2022.2.2,59.80444413313406,
Camponello,stimuli/subj_files/ST01_120922_cityB.csv,./stimuli/arnedillo.png,./stimuli/street_plate2.png,./stimuli/videos/camponello_part,./stimuli/videos/campo-satellite.mp4,MENTA UTCA,stimuli/scenes/022a.jpg,scene,right,0,stimuli/scenes/022a.jpg,stimuli/scenes/116b.jpg,stimuli/scenes/022b.jpg,stimuli/scenes/022a.jpg,stimuli/scenes/116a.jpg,dist2,lure,target,dist1,0,0,0,0,0,70,70,58,,,,,,,,,,,,,,,,,342.3849686868489,343.41441228426993,343.41441228426993,343.41441228426993,343.41441228426993,343.41441228426993,None,None,,,,,,,,,,,,,,,,,,,,,,,,,,,,,,,,,,,,ST01_120922,2022-12-09_12h11.18.881,Hippopolis_Learning,2022.2.2,59.80444413313406,
Camponello,stimuli/subj_files/ST01_120922_cityB.csv,./stimuli/arnedillo.png,./stimuli/street_plate2.png,./stimuli/videos/camponello_part,./stimuli/videos/campo-satellite.mp4,MÁLNA UTCA,stimuli/objects/069a.jpg,object,left,0,stimuli/objects/069a.jpg,stimuli/objects/069a.jpg,stimuli/objects/017b.jpg,stimuli/objects/017a.jpg,stimuli/objects/069b.jpg,target,dist2,dist1,lure,0,0,0,0,0,71,71,53,,,,,,,,,,,,,,,,,346.40103869885206,347.45484653674066,347.45484653674066,347.45484653674066,347.45484653674066,347.45484653674066,None,None,,,,,,,,,,,,,,,,,,,,,,,,,,,,,,,,,,,,ST01_120922,2022-12-09_12h11.18.881,Hippopolis_Learning,2022.2.2,59.80444413313406,
Camponello,stimuli/subj_files/ST01_120922_cityB.csv,./stimuli/arnedillo.png,./stimuli/street_plate2.png,./stimuli/videos/camponello_part,./stimuli/videos/campo-satellite.mp4,TÉRKÉP UTCA,stimuli/scenes/033a.jpg,scene,right,0,stimuli/scenes/033a.jpg,stimuli/scenes/033a.jpg,stimuli/scenes/022b.jpg,stimuli/scenes/022a.jpg,stimuli/scenes/033b.jpg,target,dist2,dist1,lure,0,0,0,0,0,72,72,71,,,,,,,,,,,,,,,,,350.4182780943811,351.4634287580848,351.4634287580848,351.4634287580848,351.4634287580848,351.4634287580848,None,None,,,,,,,,,,,,,,,,,,,,,,,,,,,,,,,,,,,,ST01_120922,2022-12-09_12h11.18.881,Hippopolis_Learning,2022.2.2,59.80444413313406,
Camponello,stimuli/subj_files/ST01_120922_cityB.csv,./stimuli/arnedillo.png,./stimuli/street_plate2.png,./stimuli/videos/camponello_part,./stimuli/videos/campo-satellite.mp4,HORGONY UTCA,stimuli/scenes/008a.jpg,scene,right,1,stimuli/scenes/051a.jpg,stimuli/scenes/051b.jpg,stimuli/scenes/034a.jpg,stimuli/scenes/034b.jpg,stimuli/scenes/051a.jpg,lure,dist1,dist2,target,0,0,0,0,0,73,73,15,,,,,,,,,,,,,,,,,354.4314367752522,355.4642034750432,355.4642034750432,355.4642034750432,355.4642034750432,355.4642034750432,None,None,,,,,,,,,,,,,,,,,,,,,,,,,,,,,,,,,,,,ST01_120922,2022-12-09_12h11.18.881,Hippopolis_Learning,2022.2.2,59.80444413313406,
Camponello,stimuli/subj_files/ST01_120922_cityB.csv,./stimuli/arnedillo.png,./stimuli/street_plate2.png,./stimuli/videos/camponello_part,./stimuli/videos/campo-satellite.mp4,TRIATLON UTCA,stimuli/scenes/059a.jpg,scene,right,0,stimuli/scenes/059a.jpg,stimuli/scenes/059b.jpg,stimuli/scenes/120a.jpg,stimuli/scenes/120b.jpg,stimuli/scenes/059a.jpg,lure,dist1,dist2,target,0,0,0,0,0,74,74,68,,,,,,,,,,,,,,,,,358.4381728619337,359.46740217506886,359.46740217506886,359.46740217506886,359.46740217506886,359.46740217506886,None,None,,,,,,,,,,,,,,,,,,,,,,,,,,,,,,,,,,,,ST01_120922,2022-12-09_12h11.18.881,Hippopolis_Learning,2022.2.2,59.80444413313406,
Camponello,stimuli/subj_files/ST01_120922_cityB.csv,./stimuli/arnedillo.png,./stimuli/street_plate2.png,./stimuli/videos/camponello_part,./stimuli/videos/campo-satellite.mp4,KRÉTA UTCA,stimuli/scenes/064a.jpg,scene,right,0,stimuli/scenes/064a.jpg,stimuli/objects/001b.jpg,stimuli/objects/001a.jpg,stimuli/scenes/064b.jpg,stimuli/scenes/064a.jpg,dist2,dist1,lure,target,0,0,0,0,0,75,75,52,,,,,,,,,,,,,,,,,362.45147833786905,363.47799536399543,363.47799536399543,363.47799536399543,363.47799536399543,363.47799536399543,None,None,,,,,,,,,,,,,,,,,,,,,,,,,,,,,,,,,,,,ST01_120922,2022-12-09_12h11.18.881,Hippopolis_Learning,2022.2.2,59.80444413313406,
Camponello,stimuli/subj_files/ST01_120922_cityB.csv,./stimuli/arnedillo.png,./stimuli/street_plate2.png,./stimuli/videos/camponello_part,./stimuli/videos/campo-satellite.mp4,MOTOR UTCA,stimuli/objects/004a.jpg,object,left,2,stimuli/scenes/079a.jpg,stimuli/objects/073a.jpg,stimuli/scenes/079a.jpg,stimuli/scenes/079b.jpg,stimuli/objects/073b.jpg,dist1,target,lure,dist2,0,0,0,0,0,76,76,42,,,,,,,,,,,,,,,,,366.45487701520324,367.50343786366284,367.50343786366284,367.50343786366284,367.50343786366284,367.50343786366284,None,None,,,,,,,,,,,,,,,,,,,,,,,,,,,,,,,,,,,,ST01_120922,2022-12-09_12h11.18.881,Hippopolis_Learning,2022.2.2,59.80444413313406,
Camponello,stimuli/subj_files/ST01_120922_cityB.csv,./stimuli/arnedillo.png,./stimuli/street_plate2.png,./stimuli/videos/camponello_part,./stimuli/videos/campo-satellite.mp4,KÓKUSZ UTCA,stimuli/scenes/003a.jpg,scene,right,0,stimuli/scenes/003a.jpg,stimuli/scenes/003b.jpg,stimuli/objects/104a.jpg,stimuli/scenes/003a.jpg,stimuli/objects/104b.jpg,lure,dist1,target,dist2,0,0,0,0,0,77,77,7,,,,,,,,,,,,,,,,,370.470008097589,371.5140294972807,371.5140294972807,371.5140294972807,371.5140294972807,371.5140294972807,None,None,,,,,,,,,,,,,,,,,,,,,,,,,,,,,,,,,,,,ST01_120922,2022-12-09_12h11.18.881,Hippopolis_Learning,2022.2.2,59.80444413313406,
Camponello,stimuli/subj_files/ST01_120922_cityB.csv,./stimuli/arnedillo.png,./stimuli/street_plate2.png,./stimuli/videos/camponello_part,./stimuli/videos/campo-satellite.mp4,HEGESZTŐ UTCA,stimuli/objects/031a.jpg,object,left,0,stimuli/objects/031a.jpg,stimuli/objects/003a.jpg,stimuli/objects/031a.jpg,stimuli/objects/031b.jpg,stimuli/objects/003b.jpg,dist1,target,lure,dist2,0,0,0,0,0,78,78,13,,,,,,,,,,,,,,,,,374.46835136786103,375.5097646676004,375.5097646676004,375.5097646676004,375.5097646676004,375.5097646676004,None,None,,,,,,,,,,,,,,,,,,,,,,,,,,,,,,,,,,,,ST01_120922,2022-12-09_12h11.18.881,Hippopolis_Learning,2022.2.2,59.80444413313406,
Camponello,stimuli/subj_files/ST01_120922_cityB.csv,./stimuli/arnedillo.png,./stimuli/street_plate2.png,./stimuli/videos/camponello_part,./stimuli/videos/campo-satellite.mp4,PÁFRÁNY UTCA,stimuli/objects/001a.jpg,object,left,0,stimuli/objects/001a.jpg,stimuli/objects/031b.jpg,stimuli/objects/001b.jpg,stimuli/objects/031a.jpg,stimuli/objects/001a.jpg,dist2,lure,dist1,target,0,0,0,0,0,79,79,25,,,,,,,,,,,,,,,,,378.47756151109934,379.5424228273332,379.5424228273332,379.5424228273332,379.5424228273332,379.5424228273332,None,None,,,,,,,,,,,,,,,,,,,,,,,,,,,,,,,,,,,,ST01_120922,2022-12-09_12h11.18.881,Hippopolis_Learning,2022.2.2,59.80444413313406,
Camponello,stimuli/subj_files/ST01_120922_cityB.csv,./stimuli/arnedillo.png,./stimuli/street_plate2.png,./stimuli/videos/camponello_part,./stimuli/videos/campo-satellite.mp4,PÁFRÁNY UTCA,stimuli/objects/001a.jpg,object,left,0,stimuli/objects/001a.jpg,stimuli/objects/031b.jpg,stimuli/objects/001b.jpg,stimuli/objects/031a.jpg,stimuli/objects/001a.jpg,dist2,lure,dist1,target,0,0,0,0,,,,,0,0,0,25,,,,,,,,,,,,,390.4549043830484,,,,,,,,391.47506661713123,,,,382.48905879445374,382.48905879445374,space,3.9083996154367924,386.47822115570307,386.47822115570307,386.47822115570307,386.47822115570307,386.47822115570307,386.47822115570307,None,0,,[],[],[],[],[],[],,,,,,,,,,,,,ST01_120922,2022-12-09_12h11.18.881,Hippopolis_Learning,2022.2.2,59.80444413313406,
Camponello,stimuli/subj_files/ST01_120922_cityB.csv,./stimuli/arnedillo.png,./stimuli/street_plate2.png,./stimuli/videos/camponello_part,./stimuli/videos/campo-satellite.mp4,LÉTRA UTCA,stimuli/objects/058a.jpg,object,left,2,stimuli/scenes/104a.jpg,stimuli/scenes/104b.jpg,stimuli/scenes/104a.jpg,stimuli/scenes/032b.jpg,stimuli/scenes/032a.jpg,lure,target,dist2,dist1,0,0,0,0,,,,,0,1,1,26,,,,,,,,,,,,,414.72045750170946,,,,,,,,,,,,,,,,391.47506661713123,391.47506661713123,391.47506661713123,391.47506661713123,391.47506661713123,391.47506661713123,left,1,"nem emlékszem
",[45.0],[-225.0],[1],[0],[0],[19.971375282853842],3.2267370503395796,394.7631882261485,394.7631882261485,394.7631882261485,394.7631882261485,394.7631882261485,0.01895490661263466,,,,,,ST01_120922,2022-12-09_12h11.18.881,Hippopolis_Learning,2022.2.2,59.80444413313406,
Camponello,stimuli/subj_files/ST01_120922_cityB.csv,./stimuli/arnedillo.png,./stimuli/street_plate2.png,./stimuli/videos/camponello_part,./stimuli/videos/campo-satellite.mp4,FÓKA UTCA,stimuli/scenes/086a.jpg,scene,right,0,stimuli/scenes/086a.jpg,stimuli/scenes/086a.jpg,stimuli/objects/026b.jpg,stimuli/scenes/086b.jpg,stimuli/objects/026a.jpg,target,dist2,lure,dist1,0,0,0,0,,,,,0,2,2,59,,,,,,,,,,,,,419.1419681981206,,,,,,,,,,,,,,,,415.744661886245,415.744661886245,415.744661886245,415.744661886245,415.744661886245,415.744661886245,left,0,,[],[],[],[],[],[],3.3564590625464916,,,,,,,,,,,,ST01_120922,2022-12-09_12h11.18.881,Hippopolis_Learning,2022.2.2,59.80444413313406,
Camponello,stimuli/subj_files/ST01_120922_cityB.csv,./stimuli/arnedillo.png,./stimuli/street_plate2.png,./stimuli/videos/camponello_part,./stimuli/videos/campo-satellite.mp4,KESELYŰ UTCA,stimuli/scenes/103a.jpg,scene,right,2,stimuli/objects/073a.jpg,stimuli/scenes/104b.jpg,stimuli/objects/073b.jpg,stimuli/scenes/104a.jpg,stimuli/objects/073a.jpg,dist2,lure,dist1,target,0,0,0,0,,,,,0,3,3,74,,,,,,,,,,,,,422.01199333928525,,,,,,,,,,,,,,,,420.1721921097487,420.1721921097487,420.1721921097487,420.1721921097487,420.1721921097487,420.1721921097487,left,0,,[],[],[],[],[],[],1.8089640326797962,,,,,,,,,,,,ST01_120922,2022-12-09_12h11.18.881,Hippopolis_Learning,2022.2.2,59.80444413313406,
Camponello,stimuli/subj_files/ST01_120922_cityB.csv,./stimuli/arnedillo.png,./stimuli/street_plate2.png,./stimuli/videos/camponello_part,./stimuli/videos/campo-satellite.mp4,HORDÓ UTCA,stimuli/scenes/004a.jpg,scene,right,1,stimuli/scenes/034a.jpg,stimuli/scenes/099b.jpg,stimuli/scenes/034b.jpg,stimuli/scenes/034a.jpg,stimuli/scenes/099a.jpg,dist2,lure,target,dist1,0,0,0,0,,,,,0,4,4,3,,,,,,,,,,,,,425.16009893640876,,,,,,,,,,,,,,,,423.0351315923035,423.0351315923035,423.0351315923035,423.0351315923035,423.0351315923035,423.0351315923035,right,1,,[],[],[],[],[],[],2.0980286113917828,,,,,,,,,,,,ST01_120922,2022-12-09_12h11.18.881,Hippopolis_Learning,2022.2.2,59.80444413313406,
Camponello,stimuli/subj_files/ST01_120922_cityB.csv,./stimuli/arnedillo.png,./stimuli/street_plate2.png,./stimuli/videos/camponello_part,./stimuli/videos/campo-satellite.mp4,VÖDÖR UTCA,stimuli/objects/093a.jpg,object,left,1,stimuli/objects/014a.jpg,stimuli/objects/022a.jpg,stimuli/objects/014b.jpg,stimuli/objects/014a.jpg,stimuli/objects/022b.jpg,dist1,lure,target,dist2,0,0,0,0,,,,,0,5,5,17,,,,,,,,,,,,,430.1970915924758,,,,,,,,,,,,,,,,426.1980799715966,426.1980799715966,426.1980799715966,426.1980799715966,426.1980799715966,426.1980799715966,None,0,,[],[],[],[],[],[],,,,,,,,,,,,,ST01_120922,2022-12-09_12h11.18.881,Hippopolis_Learning,2022.2.2,59.80444413313406,
Camponello,stimuli/subj_files/ST01_120922_cityB.csv,./stimuli/arnedillo.png,./stimuli/street_plate2.png,./stimuli/videos/camponello_part,./stimuli/videos/campo-satellite.mp4,ORVOS UTCA,stimuli/objects/020a.jpg,object,left,0,stimuli/objects/020a.jpg,stimuli/objects/020b.jpg,stimuli/scenes/064a.jpg,stimuli/scenes/064b.jpg,stimuli/objects/020a.jpg,lure,dist1,dist2,target,0,0,0,0,,,,,0,6,6,51,,,,,,,,,,,,,432.78329230099916,,,,,,,,,,,,,,,,431.2201595585793,431.2201595585793,431.2201595585793,431.2201595585793,431.2201595585793,431.2201595585793,left,1,,[],[],[],[],[],[],1.5287199039012194,,,,,,,,,,,,ST01_120922,2022-12-09_12h11.18.881,Hippopolis_Learning,2022.2.2,59.80444413313406,
Camponello,stimuli/subj_files/ST01_120922_cityB.csv,./stimuli/arnedillo.png,./stimuli/street_plate2.png,./stimuli/videos/camponello_part,./stimuli/videos/campo-satellite.mp4,BÚJÓCSKA UTCA,stimuli/objects/109a.jpg,object,left,1,stimuli/objects/052a.jpg,stimuli/objects/052b.jpg,stimuli/objects/052a.jpg,stimuli/objects/100a.jpg,stimuli/objects/100b.jpg,lure,target,dist1,dist2,0,0,0,0,,,,,0,7,7,61,,,,,,,,,,,,,437.40971266664565,,,,,,,,438.42823931761086,,,,,,,,433.8109752908349,433.8109752908349,433.8109752908349,433.8109752908349,433.8109752908349,433.8109752908349,left,1,,[],[],[],[],[],[],3.562293976545334,,,,,,,,,,,,ST01_120922,2022-12-09_12h11.18.881,Hippopolis_Learning,2022.2.2,59.80444413313406,
Camponello,stimuli/subj_files/ST01_120922_cityB.csv,./stimuli/arnedillo.png,./stimuli/street_plate2.png,./stimuli/videos/camponello_part,./stimuli/videos/campo-satellite.mp4,TÁSKA UTCA,stimuli/scenes/083a.jpg,scene,right,0,stimuli/scenes/083a.jpg,stimuli/objects/119a.jpg,stimuli/scenes/083b.jpg,stimuli/scenes/083a.jpg,stimuli/objects/119b.jpg,dist1,lure,target,dist2,0,0,0,0,,,,,0,8,8,16,,,,,,,,,,,,,442.4293981269002,,,,,,,,,,,,,,,,438.42823931761086,438.42823931761086,438.42823931761086,438.42823931761086,438.42823931761086,438.42823931761086,None,0,,[],[],[],[],[],[],,,,,,,,,,,,,ST01_120922,2022-12-09_12h11.18.881,Hippopolis_Learning,2022.2.2,59.80444413313406,
Camponello,stimuli/subj_files/ST01_120922_cityB.csv,./stimuli/arnedillo.png,./stimuli/street_plate2.png,./stimuli/videos/camponello_part,./stimuli/videos/campo-satellite.mp4,CSILLAG UTCA,stimuli/objects/119a.jpg,object,left,0,stimuli/objects/119a.jpg,stimuli/scenes/062a.jpg,stimuli/scenes/062b.jpg,stimuli/objects/119a.jpg,stimuli/objects/119b.jpg,dist1,dist2,target,lure,0,0,0,0,,,,,0,9,9,35,,,,,,,,,,,,,445.1938291359693,,,,,,,,,,,,,,,,443.4600428324193,443.4600428324193,443.4600428324193,443.4600428324193,443.4600428324193,443.4600428324193,left,1,,[],[],[],[],[],[],1.7044027484953403,,,,,,,,,,,,ST01_120922,2022-12-09_12h11.18.881,Hippopolis_Learning,2022.2.2,59.80444413313406,
Camponello,stimuli/subj_files/ST01_120922_cityB.csv,./stimuli/arnedillo.png,./stimuli/street_plate2.png,./stimuli/videos/camponello_part,./stimuli/videos/campo-satellite.mp4,HORGONY UTCA,stimuli/scenes/008a.jpg,scene,right,1,stimuli/scenes/051a.jpg,stimuli/scenes/051b.jpg,stimuli/scenes/034a.jpg,stimuli/scenes/034b.jpg,stimuli/scenes/051a.jpg,lure,dist1,dist2,target,0,0,0,0,,,,,0,10,10,15,,,,,,,,,,,,,447.9008561372757,,,,,,,,,,,,,,,,446.22064846009016,446.22064846009016,446.22064846009016,446.22064846009016,446.22064846009016,446.22064846009016,right,1,,[],[],[],[],[],[],1.632114289328456,,,,,,,,,,,,ST01_120922,2022-12-09_12h11.18.881,Hippopolis_Learning,2022.2.2,59.80444413313406,
Camponello,stimuli/subj_files/ST01_120922_cityB.csv,./stimuli/arnedillo.png,./stimuli/street_plate2.png,./stimuli/videos/camponello_part,./stimuli/videos/campo-satellite.mp4,MOTOR UTCA,stimuli/objects/004a.jpg,object,left,2,stimuli/scenes/079a.jpg,stimuli/objects/073a.jpg,stimuli/scenes/079a.jpg,stimuli/scenes/079b.jpg,stimuli/objects/073b.jpg,dist1,target,lure,dist2,0,0,0,0,,,,,0,11,11,42,,,,,,,,,,,,,450.2607070170343,,,,,,,,,,,,,,,,448.9294351376593,448.9294351376593,448.9294351376593,448.9294351376593,448.9294351376593,448.9294351376593,left,1,,[],[],[],[],[],[],1.2916652336716652,,,,,,,,,,,,ST01_120922,2022-12-09_12h11.18.881,Hippopolis_Learning,2022.2.2,59.80444413313406,
Camponello,stimuli/subj_files/ST01_120922_cityB.csv,./stimuli/arnedillo.png,./stimuli/street_plate2.png,./stimuli/videos/camponello_part,./stimuli/videos/campo-satellite.mp4,MAJOM UTCA,stimuli/objects/085a.jpg,object,left,0,stimuli/objects/085a.jpg,stimuli/scenes/112b.jpg,stimuli/scenes/112a.jpg,stimuli/objects/085a.jpg,stimuli/objects/085b.jpg,dist2,dist1,target,lure,0,0,0,0,,,,,0,12,12,11,,,,,,,,,,,,,452.7071902807802,,,,,,,,,,,,,,,,451.29032104462385,451.29032104462385,451.29032104462385,451.29032104462385,451.29032104462385,451.29032104462385,left,1,,[],[],[],[],[],[],1.3781380727887154,,,,,,,,,,,,ST01_120922,2022-12-09_12h11.18.881,Hippopolis_Learning,2022.2.2,59.80444413313406,
Camponello,stimuli/subj_files/ST01_120922_cityB.csv,./stimuli/arnedillo.png,./stimuli/street_plate2.png,./stimuli/videos/camponello_part,./stimuli/videos/campo-satellite.mp4,HARCSA UTCA,stimuli/objects/051a.jpg,object,left,0,stimuli/objects/051a.jpg,stimuli/scenes/001b.jpg,stimuli/scenes/001a.jpg,stimuli/objects/051a.jpg,stimuli/objects/051b.jpg,dist2,dist1,target,lure,0,0,0,0,,,,,0,13,13,10,,,,,,,,,,,,,455.3430198337883,,,,,,,,,,,,,,,,453.7337508480996,453.7337508480996,453.7337508480996,453.7337508480996,453.7337508480996,453.7337508480996,left,1,,[],[],[],[],[],[],1.574874497950077,,,,,,,,,,,,ST01_120922,2022-12-09_12h11.18.881,Hippopolis_Learning,2022.2.2,59.80444413313406,
Camponello,stimuli/subj_files/ST01_120922_cityB.csv,./stimuli/arnedillo.png,./stimuli/street_plate2.png,./stimuli/videos/camponello_part,./stimuli/videos/campo-satellite.mp4,ÁRNYÉK UTCA,stimuli/objects/053a.jpg,object,left,0,stimuli/objects/053a.jpg,stimuli/scenes/109a.jpg,stimuli/objects/053b.jpg,stimuli/objects/053a.jpg,stimuli/scenes/109b.jpg,dist1,lure,target,dist2,0,0,0,0,,,,,0,14,14,60,,,,,,,,,,,,,457.8472768906504,,,,,,,,,,,,,,,,456.37318092398345,456.37318092398345,456.37318092398345,456.37318092398345,456.37318092398345,456.37318092398345,left,1,,[],[],[],[],[],[],1.4310265760868788,,,,,,,,,,,,ST01_120922,2022-12-09_12h11.18.881,Hippopolis_Learning,2022.2.2,59.80444413313406,
Camponello,stimuli/subj_files/ST01_120922_cityB.csv,./stimuli/arnedillo.png,./stimuli/street_plate2.png,./stimuli/videos/camponello_part,./stimuli/videos/campo-satellite.mp4,HARMONIKA UTCA,stimuli/scenes/026a.jpg,scene,right,0,stimuli/scenes/026a.jpg,stimuli/objects/116a.jpg,stimuli/scenes/026b.jpg,stimuli/objects/116b.jpg,stimuli/scenes/026a.jpg,dist1,lure,dist2,target,0,0,0,0,,,,,0,15,15,24,,,,,,,,,,,,,460.4519302304834,,,,,,,,461.47819471918046,,,,,,,,458.87185572460294,458.87185572460294,458.87185572460294,458.87185572460294,458.87185572460294,458.87185572460294,left,0,,[],[],[],[],[],[],1.5410637464374304,,,,,,,,,,,,ST01_120922,2022-12-09_12h11.18.881,Hippopolis_Learning,2022.2.2,59.80444413313406,
Camponello,stimuli/subj_files/ST01_120922_cityB.csv,./stimuli/arnedillo.png,./stimuli/street_plate2.png,./stimuli/videos/camponello_part,./stimuli/videos/campo-satellite.mp4,TÉRKÉP UTCA,stimuli/scenes/033a.jpg,scene,right,0,stimuli/scenes/033a.jpg,stimuli/scenes/033a.jpg,stimuli/scenes/022b.jpg,stimuli/scenes/022a.jpg,stimuli/scenes/033b.jpg,target,dist2,dist1,lure,0,0,0,0,,,,,0,16,16,71,,,,,,,,,,,,,463.1820367053151,,,,,,,,,,,,,,,,461.47819471918046,461.47819471918046,461.47819471918046,461.47819471918046,461.47819471918046,461.47819471918046,left,0,,[],[],[],[],[],[],1.6704554688185453,,,,,,,,,,,,ST01_120922,2022-12-09_12h11.18.881,Hippopolis_Learning,2022.2.2,59.80444413313406,
Camponello,stimuli/subj_files/ST01_120922_cityB.csv,./stimuli/arnedillo.png,./stimuli/street_plate2.png,./stimuli/videos/camponello_part,./stimuli/videos/campo-satellite.mp4,KAKAS UTCA,stimuli/scenes/095a.jpg,scene,right,0,stimuli/scenes/095a.jpg,stimuli/scenes/095a.jpg,stimuli/scenes/033b.jpg,stimuli/scenes/095b.jpg,stimuli/scenes/033a.jpg,target,dist2,lure,dist1,0,0,0,0,,,,,0,17,17,1,,,,,,,,,,,,,465.7361539956182,,,,,,,,,,,,,,,,464.2056999374181,464.2056999374181,464.2056999374181,464.2056999374181,464.2056999374181,464.2056999374181,left,0,,[],[],[],[],[],[],1.4864588007330894,,,,,,,,,,,,ST01_120922,2022-12-09_12h11.18.881,Hippopolis_Learning,2022.2.2,59.80444413313406,
Camponello,stimuli/subj_files/ST01_120922_cityB.csv,./stimuli/arnedillo.png,./stimuli/street_plate2.png,./stimuli/videos/camponello_part,./stimuli/videos/campo-satellite.mp4,TALICSKA UTCA,stimuli/scenes/088a.jpg,scene,right,0,stimuli/scenes/088a.jpg,stimuli/scenes/095a.jpg,stimuli/scenes/095b.jpg,stimuli/scenes/088a.jpg,stimuli/scenes/088b.jpg,dist1,dist2,target,lure,0,0,0,0,,,,,0,18,18,9,,,,,,,,,,,,,467.97913053818047,,,,,,,,,,,,,,,,466.76765023358166,466.76765023358166,466.76765023358166,466.76765023358166,466.76765023358166,466.76765023358166,right,1,,[],[],[],[],[],[],1.1813997831195593,,,,,,,,,,,,ST01_120922,2022-12-09_12h11.18.881,Hippopolis_Learning,2022.2.2,59.80444413313406,
Camponello,stimuli/subj_files/ST01_120922_cityB.csv,./stimuli/arnedillo.png,./stimuli/street_plate2.png,./stimuli/videos/camponello_part,./stimuli/videos/campo-satellite.mp4,MENTA UTCA,stimuli/scenes/022a.jpg,scene,right,0,stimuli/scenes/022a.jpg,stimuli/scenes/116b.jpg,stimuli/scenes/022b.jpg,stimuli/scenes/022a.jpg,stimuli/scenes/116a.jpg,dist2,lure,target,dist1,0,0,0,0,,,,,0,19,19,58,,,,,,,,,,,,,471.1539235934615,,,,,,,,,,,,,,,,469.0138108599931,469.0138108599931,469.0138108599931,469.0138108599931,469.0138108599931,469.0138108599931,left,0,,[],[],[],[],[],[],2.102617198601365,,,,,,,,,,,,ST01_120922,2022-12-09_12h11.18.881,Hippopolis_Learning,2022.2.2,59.80444413313406,
Camponello,stimuli/subj_files/ST01_120922_cityB.csv,./stimuli/arnedillo.png,./stimuli/street_plate2.png,./stimuli/videos/camponello_part,./stimuli/videos/campo-satellite.mp4,BÖGRE UTCA,stimuli/scenes/111a.jpg,scene,right,2,stimuli/objects/018a.jpg,stimuli/objects/018b.jpg,stimuli/objects/007a.jpg,stimuli/objects/018a.jpg,stimuli/objects/007b.jpg,lure,dist1,target,dist2,0,0,0,0,,,,,0,20,20,67,,,,,,,,,,,,,474.5755195040256,,,,,,,,,,,,,,,,472.1759204547852,472.1759204547852,472.1759204547852,472.1759204547852,472.1759204547852,472.1759204547852,left,0,,[],[],[],[],[],[],2.364458767697215,,,,,,,,,,,,ST01_120922,2022-12-09_12h11.18.881,Hippopolis_Learning,2022.2.2,59.80444413313406,
Camponello,stimuli/subj_files/ST01_120922_cityB.csv,./stimuli/arnedillo.png,./stimuli/street_plate2.png,./stimuli/videos/camponello_part,./stimuli/videos/campo-satellite.mp4,LOVAGLÁS UTCA,stimuli/scenes/048a.jpg,scene,right,2,stimuli/objects/057a.jpg,stimuli/objects/019b.jpg,stimuli/objects/057a.jpg,stimuli/objects/019a.jpg,stimuli/objects/057b.jpg,dist2,target,dist1,lure,0,0,0,0,,,,,0,21,21,55,,,,,,,,,,,,,479.0923514813185,,,,,,,,480.1028964649886,,,,,,,,475.6048498954624,475.6048498954624,475.6048498954624,475.6048498954624,475.6048498954624,475.6048498954624,left,0,,[],[],[],[],[],[],3.4471811819821596,,,,,,,,,,,,ST01_120922,2022-12-09_12h11.18.881,Hippopolis_Learning,2022.2.2,59.80444413313406,
Camponello,stimuli/subj_files/ST01_120922_cityB.csv,./stimuli/arnedillo.png,./stimuli/street_plate2.png,./stimuli/videos/camponello_part,./stimuli/videos/campo-satellite.mp4,SZÖCSKE UTCA,stimuli/scenes/097a.jpg,scene,right,1,stimuli/scenes/023a.jpg,stimuli/scenes/023a.jpg,stimuli/objects/014a.jpg,stimuli/scenes/023b.jpg,stimuli/objects/014b.jpg,target,dist1,lure,dist2,0,0,0,0,,,,,0,22,22,70,,,,,,,,,,,,,482.05409365333617,,,,,,,,,,,,,,,,480.1028964649886,480.1028964649886,480.1028964649886,480.1028964649886,480.1028964649886,480.1028964649886,left,0,,[],[],[],[],[],[],1.9096458181738853,,,,,,,,,,,,ST01_120922,2022-12-09_12h11.18.881,Hippopolis_Learning,2022.2.2,59.80444413313406,
Camponello,stimuli/subj_files/ST01_120922_cityB.csv,./stimuli/arnedillo.png,./stimuli/street_plate2.png,./stimuli/videos/camponello_part,./stimuli/videos/campo-satellite.mp4,BAGOLY UTCA,stimuli/objects/116a.jpg,object,left,0,stimuli/objects/116a.jpg,stimuli/objects/016a.jpg,stimuli/objects/016b.jpg,stimuli/objects/116a.jpg,stimuli/objects/116b.jpg,dist1,dist2,target,lure,0,0,0,0,,,,,0,23,23,36,,,,,,,,,,,,,484.3771070688963,,,,,,,,,,,,,,,,483.0801926869899,483.0801926869899,483.0801926869899,483.0801926869899,483.0801926869899,483.0801926869899,left,1,,[],[],[],[],[],[],1.2521832846105099,,,,,,,,,,,,ST01_120922,2022-12-09_12h11.18.881,Hippopolis_Learning,2022.2.2,59.80444413313406,
Camponello,stimuli/subj_files/ST01_120922_cityB.csv,./stimuli/arnedillo.png,./stimuli/street_plate2.png,./stimuli/videos/camponello_part,./stimuli/videos/campo-satellite.mp4,CITROM UTCA,stimuli/scenes/005a.jpg,scene,right,0,stimuli/scenes/005a.jpg,stimuli/objects/069b.jpg,stimuli/scenes/005b.jpg,stimuli/objects/069a.jpg,stimuli/scenes/005a.jpg,dist2,lure,dist1,target,0,0,0,0,,,,,0,24,24,12,,,,,,,,,,,,,487.10400955565274,,,,,,,,488.12252159044147,,,,,,,,485.4007043670863,485.4007043670863,485.4007043670863,485.4007043670863,485.4007043670863,485.4007043670863,left,0,,[],[],[],[],[],[],1.667476961389184,,,,,,,,,,,,ST01_120922,2022-12-09_12h11.18.881,Hippopolis_Learning,2022.2.2,59.80444413313406,
Camponello,stimuli/subj_files/ST01_120922_cityB.csv,./stimuli/arnedillo.png,./stimuli/street_plate2.png,./stimuli/videos/camponello_part,./stimuli/videos/campo-satellite.mp4,BOHÓC UTCA,stimuli/objects/044a.jpg,object,left,1,stimuli/objects/027a.jpg,stimuli/scenes/113a.jpg,stimuli/scenes/113b.jpg,stimuli/objects/027a.jpg,stimuli/objects/027b.jpg,dist1,dist2,target,lure,0,0,0,0,,,,,0,25,25,64,,,,,,,,,,,,,489.836015349254,,,,,,,,,,,,,,,,488.12252159044147,488.12252159044147,488.12252159044147,488.12252159044147,488.12252159044147,488.12252159044147,left,1,,[],[],[],[],[],[],1.6656218077987432,,,,,,,,,,,,ST01_120922,2022-12-09_12h11.18.881,Hippopolis_Learning,2022.2.2,59.80444413313406,
Camponello,stimuli/subj_files/ST01_120922_cityB.csv,./stimuli/arnedillo.png,./stimuli/street_plate2.png,./stimuli/videos/camponello_part,./stimuli/videos/campo-satellite.mp4,ZSEMLE UTCA,stimuli/scenes/105a.jpg,scene,right,0,stimuli/scenes/105a.jpg,stimuli/scenes/105a.jpg,stimuli/objects/038a.jpg,stimuli/objects/038b.jpg,stimuli/scenes/105b.jpg,target,dist1,dist2,lure,0,0,0,0,,,,,0,26,26,40,,,,,,,,,,,,,492.7481855880469,,,,,,,,,,,,,,,,490.85370072722435,490.85370072722435,490.85370072722435,490.85370072722435,490.85370072722435,490.85370072722435,left,0,,[],[],[],[],[],[],1.8311079982668161,,,,,,,,,,,,ST01_120922,2022-12-09_12h11.18.881,Hippopolis_Learning,2022.2.2,59.80444413313406,
Camponello,stimuli/subj_files/ST01_120922_cityB.csv,./stimuli/arnedillo.png,./stimuli/street_plate2.png,./stimuli/videos/camponello_part,./stimuli/videos/campo-satellite.mp4,KERET UTCA,stimuli/objects/023a.jpg,object,left,2,stimuli/scenes/108a.jpg,stimuli/scenes/108b.jpg,stimuli/scenes/094b.jpg,stimuli/scenes/094a.jpg,stimuli/scenes/108a.jpg,lure,dist2,dist1,target,0,0,0,0,,,,,0,27,27,38,,,,,,,,,,,,,495.13164309598505,,,,,,,,,,,,,,,,493.7729538269341,493.7729538269341,493.7729538269341,493.7729538269341,493.7729538269341,493.7729538269341,left,1,,[],[],[],[],[],[],1.327051229774952,,,,,,,,,,,,ST01_120922,2022-12-09_12h11.18.881,Hippopolis_Learning,2022.2.2,59.80444413313406,
Camponello,stimuli/subj_files/ST01_120922_cityB.csv,./stimuli/arnedillo.png,./stimuli/street_plate2.png,./stimuli/videos/camponello_part,./stimuli/videos/campo-satellite.mp4,HEGEDŰ UTCA,stimuli/scenes/109a.jpg,scene,right,0,stimuli/scenes/109a.jpg,stimuli/objects/079b.jpg,stimuli/scenes/109b.jpg,stimuli/objects/079a.jpg,stimuli/scenes/109a.jpg,dist2,lure,dist1,target,0,0,0,0,,,,,0,28,28,32,,,,,,,,,,,,,497.90912673063576,,,,,,,,,,,,,,,,496.1513885818422,496.1513885818422,496.1513885818422,496.1513885818422,496.1513885818422,496.1513885818422,left,0,,[],[],[],[],[],[],1.7172050159424543,,,,,,,,,,,,ST01_120922,2022-12-09_12h11.18.881,Hippopolis_Learning,2022.2.2,59.80444413313406,
Camponello,stimuli/subj_files/ST01_120922_cityB.csv,./stimuli/arnedillo.png,./stimuli/street_plate2.png,./stimuli/videos/camponello_part,./stimuli/videos/campo-satellite.mp4,TORONY UTCA,stimuli/scenes/112a.jpg,scene,right,0,stimuli/scenes/112a.jpg,stimuli/scenes/112b.jpg,stimuli/scenes/112a.jpg,stimuli/scenes/086a.jpg,stimuli/scenes/086b.jpg,lure,target,dist1,dist2,0,0,0,0,,,,,0,29,29,65,,,,,,,,,,,,,501.0957013312727,,,,,,,,,,,,,,,,498.9423670936376,498.9423670936376,498.9423670936376,498.9423670936376,498.9423670936376,498.9423670936376,right,1,,[],[],[],[],[],[],2.1096605602651834,,,,,,,,,,,,ST01_120922,2022-12-09_12h11.18.881,Hippopolis_Learning,2022.2.2,59.80444413313406,
Camponello,stimuli/subj_files/ST01_120922_cityB.csv,./stimuli/arnedillo.png,./stimuli/street_plate2.png,./stimuli/videos/camponello_part,./stimuli/videos/campo-satellite.mp4,LIGET UTCA,stimuli/objects/108a.jpg,object,left,1,stimuli/objects/100a.jpg,stimuli/scenes/080b.jpg,stimuli/objects/100b.jpg,stimuli/objects/100a.jpg,stimuli/scenes/080a.jpg,dist2,lure,target,dist1,0,0,0,0,,,,,0,30,30,8,,,,,,,,,,,,,503.8600878659636,,,,,,,,,,,,,,,,502.1245107874274,502.1245107874274,502.1245107874274,502.1245107874274,502.1245107874274,502.1245107874274,left,1,,[],[],[],[],[],[],1.6792833860963583,,,,,,,,,,,,ST01_120922,2022-12-09_12h11.18.881,Hippopolis_Learning,2022.2.2,59.80444413313406,
Camponello,stimuli/subj_files/ST01_120922_cityB.csv,./stimuli/arnedillo.png,./stimuli/street_plate2.png,./stimuli/videos/camponello_part,./stimuli/videos/campo-satellite.mp4,SZŐLŐ UTCA,stimuli/objects/095a.jpg,object,left,0,stimuli/objects/095a.jpg,stimuli/objects/095a.jpg,stimuli/scenes/083a.jpg,stimuli/objects/095b.jpg,stimuli/scenes/083b.jpg,target,dist1,lure,dist2,0,0,0,0,,,,,0,31,31,27,,,,,,,,,,,,,507.91910101659596,,,,,,,,508.9409336652607,,,,,,,,504.884325215593,504.884325215593,504.884325215593,504.884325215593,504.884325215593,504.884325215593,left,1,,[],[],[],[],[],[],2.9993845373392105,,,,,,,,,,,,ST01_120922,2022-12-09_12h11.18.881,Hippopolis_Learning,2022.2.2,59.80444413313406,
Camponello,stimuli/subj_files/ST01_120922_cityB.csv,./stimuli/arnedillo.png,./stimuli/street_plate2.png,./stimuli/videos/camponello_part,./stimuli/videos/campo-satellite.mp4,TOLMÁCS UTCA,stimuli/scenes/092a.jpg,scene,right,0,stimuli/scenes/092a.jpg,stimuli/objects/032a.jpg,stimuli/objects/032b.jpg,stimuli/scenes/092b.jpg,stimuli/scenes/092a.jpg,dist1,dist2,lure,target,0,0,0,0,,,,,0,32,32,31,,,,,,,,,,,,,510.77140563726425,,,,,,,,,,,,,,,,508.9409336652607,508.9409336652607,508.9409336652607,508.9409336652607,508.9409336652607,508.9409336652607,left,0,,[],[],[],[],[],[],1.7753610350191593,,,,,,,,,,,,ST01_120922,2022-12-09_12h11.18.881,Hippopolis_Learning,2022.2.2,59.80444413313406,
Camponello,stimuli/subj_files/ST01_120922_cityB.csv,./stimuli/arnedillo.png,./stimuli/street_plate2.png,./stimuli/videos/camponello_part,./stimuli/videos/campo-satellite.mp4,MÁLNA UTCA,stimuli/objects/069a.jpg,object,left,0,stimuli/objects/069a.jpg,stimuli/objects/069a.jpg,stimuli/objects/017b.jpg,stimuli/objects/017a.jpg,stimuli/objects/069b.jpg,target,dist2,dist1,lure,0,0,0,0,,,,,0,33,33,53,,,,,,,,,,,,,513.3350179512054,,,,,,,,,,,,,,,,511.78660140931606,511.78660140931606,511.78660140931606,511.78660140931606,511.78660140931606,511.78660140931606,left,1,,[],[],[],[],[],[],1.5058180149644613,,,,,,,,,,,,ST01_120922,2022-12-09_12h11.18.881,Hippopolis_Learning,2022.2.2,59.80444413313406,
Camponello,stimuli/subj_files/ST01_120922_cityB.csv,./stimuli/arnedillo.png,./stimuli/street_plate2.png,./stimuli/videos/camponello_part,./stimuli/videos/campo-satellite.mp4,HEGESZTŐ UTCA,stimuli/objects/031a.jpg,object,left,0,stimuli/objects/031a.jpg,stimuli/objects/003a.jpg,stimuli/objects/031a.jpg,stimuli/objects/031b.jpg,stimuli/objects/003b.jpg,dist1,target,lure,dist2,0,0,0,0,,,,,0,34,34,13,,,,,,,,,,,,,515.9588557202369,,,,,,,,516.9689488112926,,,,,,,,514.355671575293,514.355671575293,514.355671575293,514.355671575293,514.355671575293,514.355671575293,left,1,,[],[],[],[],[],[],1.5765732135623693,,,,,,,,,,,,ST01_120922,2022-12-09_12h11.18.881,Hippopolis_Learning,2022.2.2,59.80444413313406,
Camponello,stimuli/subj_files/ST01_120922_cityB.csv,./stimuli/arnedillo.png,./stimuli/street_plate2.png,./stimuli/videos/camponello_part,./stimuli/videos/campo-satellite.mp4,TULIPÁN UTCA,stimuli/objects/088a.jpg,object,left,0,stimuli/objects/088a.jpg,stimuli/objects/085a.jpg,stimuli/objects/088b.jpg,stimuli/objects/088a.jpg,stimuli/objects/085b.jpg,dist1,lure,target,dist2,0,0,0,0,,,,,0,35,35,23,,,,,,,,,,,,,518.8766959179193,,,,,,,,,,,,,,,,516.9689488112926,516.9689488112926,516.9689488112926,516.9689488112926,516.9689488112926,516.9689488112926,left,1,,[],[],[],[],[],[],1.8751461915671825,,,,,,,,,,,,ST01_120922,2022-12-09_12h11.18.881,Hippopolis_Learning,2022.2.2,59.80444413313406,
Camponello,stimuli/subj_files/ST01_120922_cityB.csv,./stimuli/arnedillo.png,./stimuli/street_plate2.png,./stimuli/videos/camponello_part,./stimuli/videos/campo-satellite.mp4,KERÉK UTCA,stimuli/objects/090a.jpg,object,left,0,stimuli/objects/090a.jpg,stimuli/objects/090b.jpg,stimuli/objects/074b.jpg,stimuli/objects/090a.jpg,stimuli/objects/074a.jpg,lure,dist2,target,dist1,0,0,0,0,,,,,0,36,36,66,,,,,,,,,,,,,522.0245950073004,,,,,,,,,,,,,,,,519.9037180189043,519.9037180189043,519.9037180189043,519.9037180189043,519.9037180189043,519.9037180189043,left,1,,[],[],[],[],[],[],2.07638318836689,,,,,,,,,,,,ST01_120922,2022-12-09_12h11.18.881,Hippopolis_Learning,2022.2.2,59.80444413313406,
Camponello,stimuli/subj_files/ST01_120922_cityB.csv,./stimuli/arnedillo.png,./stimuli/street_plate2.png,./stimuli/videos/camponello_part,./stimuli/videos/campo-satellite.mp4,TISZTÁS UTCA,stimuli/objects/017a.jpg,object,left,0,stimuli/objects/017a.jpg,stimuli/objects/017b.jpg,stimuli/objects/088a.jpg,stimuli/objects/088b.jpg,stimuli/objects/017a.jpg,lure,dist1,dist2,target,0,0,0,0,,,,,0,37,37,77,,,,,,,,,,,,,524.49763199687,,,,,,,,,,,,,,,,523.0547476988286,523.0547476988286,523.0547476988286,523.0547476988286,523.0547476988286,523.0547476988286,left,1,,[],[],[],[],[],[],1.3895019367337227,,,,,,,,,,,,ST01_120922,2022-12-09_12h11.18.881,Hippopolis_Learning,2022.2.2,59.80444413313406,
Camponello,stimuli/subj_files/ST01_120922_cityB.csv,./stimuli/arnedillo.png,./stimuli/street_plate2.png,./stimuli/videos/camponello_part,./stimuli/videos/campo-satellite.mp4,SÜTŐ UTCA,stimuli/scenes/015a.jpg,scene,right,2,stimuli/objects/118a.jpg,stimuli/scenes/079a.jpg,stimuli/objects/118a.jpg,stimuli/scenes/079b.jpg,stimuli/objects/118b.jpg,dist1,target,dist2,lure,0,0,0,0,,,,,0,38,38,76,,,,,,,,,,,,,527.1334348041564,,,,,,,,,,,,,,,,525.5211490560323,525.5211490560323,525.5211490560323,525.5211490560323,525.5211490560323,525.5211490560323,left,0,,[],[],[],[],[],[],1.5631878096610308,,,,,,,,,,,,ST01_120922,2022-12-09_12h11.18.881,Hippopolis_Learning,2022.2.2,59.80444413313406,
Camponello,stimuli/subj_files/ST01_120922_cityB.csv,./stimuli/arnedillo.png,./stimuli/street_plate2.png,./stimuli/videos/camponello_part,./stimuli/videos/campo-satellite.mp4,PAPAGÁJ UTCA,stimuli/objects/082a.jpg,object,left,0,stimuli/objects/082a.jpg,stimuli/scenes/092a.jpg,stimuli/objects/082a.jpg,stimuli/scenes/092b.jpg,stimuli/objects/082b.jpg,dist1,target,dist2,lure,0,0,0,0,,,,,0,39,39,44,,,,,,,,,,,,,530.4448918439448,,,,,,,,,,,,,,,,528.1551427394152,528.1551427394152,528.1551427394152,528.1551427394152,528.1551427394152,528.1551427394152,right,0,,[],[],[],[],[],[],2.2566210329532623,,,,,,,,,,,,ST01_120922,2022-12-09_12h11.18.881,Hippopolis_Learning,2022.2.2,59.80444413313406,
Camponello,stimuli/subj_files/ST01_120922_cityB.csv,./stimuli/arnedillo.png,./stimuli/street_plate2.png,./stimuli/videos/camponello_part,./stimuli/videos/campo-satellite.mp4,ECSET UTCA,stimuli/scenes/120a.jpg,scene,right,0,stimuli/scenes/120a.jpg,stimuli/scenes/120a.jpg,stimuli/scenes/120b.jpg,stimuli/objects/082b.jpg,stimuli/objects/082a.jpg,target,lure,dist2,dist1,0,0,0,0,,,,,0,40,40,41,,,,,,,,,,,,,532.9268320146948,,,,,,,,,,,,,,,,531.473278330639,531.473278330639,531.473278330639,531.473278330639,531.473278330639,531.473278330639,left,0,,[],[],[],[],[],[],1.402918130159378,,,,,,,,,,,,ST01_120922,2022-12-09_12h11.18.881,Hippopolis_Learning,2022.2.2,59.80444413313406,
Camponello,stimuli/subj_files/ST01_120922_cityB.csv,./stimuli/arnedillo.png,./stimuli/street_plate2.png,./stimuli/videos/camponello_part,./stimuli/videos/campo-satellite.mp4,KARTON UTCA,stimuli/objects/074a.jpg,object,left,0,stimuli/objects/074a.jpg,stimuli/objects/074b.jpg,stimuli/objects/074a.jpg,stimuli/scenes/026a.jpg,stimuli/scenes/026b.jpg,lure,target,dist1,dist2,0,0,0,0,,,,,0,41,41,56,,,,,,,,,,,,,535.2144214902073,,,,,,,,,,,,,,,,533.9575460720807,533.9575460720807,533.9575460720807,533.9575460720807,533.9575460720807,533.9575460720807,left,1,,[],[],[],[],[],[],1.2218405678868294,,,,,,,,,,,,ST01_120922,2022-12-09_12h11.18.881,Hippopolis_Learning,2022.2.2,59.80444413313406,
Camponello,stimuli/subj_files/ST01_120922_cityB.csv,./stimuli/arnedillo.png,./stimuli/street_plate2.png,./stimuli/videos/camponello_part,./stimuli/videos/campo-satellite.mp4,VIHAR UTCA,stimuli/scenes/065a.jpg,scene,right,2,stimuli/objects/019a.jpg,stimuli/scenes/040a.jpg,stimuli/objects/019a.jpg,stimuli/objects/019b.jpg,stimuli/scenes/040b.jpg,dist1,target,lure,dist2,0,0,0,0,,,,,0,42,42,54,,,,,,,,,,,,,538.4904365539551,,,,,,,,,,,,,,,,536.2377192899585,536.2377192899585,536.2377192899585,536.2377192899585,536.2377192899585,536.2377192899585,left,0,,[],[],[],[],[],[],2.22217583283782,,,,,,,,,,,,ST01_120922,2022-12-09_12h11.18.881,Hippopolis_Learning,2022.2.2,59.80444413313406,
Camponello,stimuli/subj_files/ST01_120922_cityB.csv,./stimuli/arnedillo.png,./stimuli/street_plate2.png,./stimuli/videos/camponello_part,./stimuli/videos/campo-satellite.mp4,PIZSAMA UTCA,stimuli/scenes/041a.jpg,scene,right,0,stimuli/scenes/041a.jpg,stimuli/scenes/082b.jpg,stimuli/scenes/041b.jpg,stimuli/scenes/041a.jpg,stimuli/scenes/082a.jpg,dist2,lure,target,dist1,0,0,0,0,,,,,0,43,43,39,,,,,,,,,,,,,541.5366564579308,,,,,,,,,,,,,,,,539.5202169697732,539.5202169697732,539.5202169697732,539.5202169697732,539.5202169697732,539.5202169697732,left,0,,[],[],[],[],[],[],1.9794959891587496,,,,,,,,,,,,ST01_120922,2022-12-09_12h11.18.881,Hippopolis_Learning,2022.2.2,59.80444413313406,
Camponello,stimuli/subj_files/ST01_120922_cityB.csv,./stimuli/arnedillo.png,./stimuli/street_plate2.png,./stimuli/videos/camponello_part,./stimuli/videos/campo-satellite.mp4,KÖTÉL UTCA,stimuli/objects/104a.jpg,object,left,0,stimuli/objects/104a.jpg,stimuli/objects/104a.jpg,stimuli/scenes/049b.jpg,stimuli/scenes/049a.jpg,stimuli/objects/104b.jpg,target,dist2,dist1,lure,0,0,0,0,,,,,0,44,44,69,,,,,,,,,,,,,544.9662953037769,,,,,,,,,,,,,,,,542.560974046588,542.560974046588,542.560974046588,542.560974046588,542.560974046588,542.560974046588,left,1,,[],[],[],[],[],[],2.3469189405441284,,,,,,,,,,,,ST01_120922,2022-12-09_12h11.18.881,Hippopolis_Learning,2022.2.2,59.80444413313406,
Camponello,stimuli/subj_files/ST01_120922_cityB.csv,./stimuli/arnedillo.png,./stimuli/street_plate2.png,./stimuli/videos/camponello_part,./stimuli/videos/campo-satellite.mp4,KÁRTYA UTCA,stimuli/objects/061a.jpg,object,left,2,stimuli/scenes/032a.jpg,stimuli/objects/118a.jpg,stimuli/objects/118b.jpg,stimuli/scenes/032b.jpg,stimuli/scenes/032a.jpg,dist1,dist2,lure,target,0,0,0,0,,,,,0,45,45,2,,,,,,,,,,,,,548.3145263623446,,,,,,,,,,,,,,,,545.9967425186187,545.9967425186187,545.9967425186187,545.9967425186187,545.9967425186187,545.9967425186187,left,1,,[],[],[],[],[],[],2.286629419773817,,,,,,,,,,,,ST01_120922,2022-12-09_12h11.18.881,Hippopolis_Learning,2022.2.2,59.80444413313406,
Camponello,stimuli/subj_files/ST01_120922_cityB.csv,./stimuli/arnedillo.png,./stimuli/street_plate2.png,./stimuli/videos/camponello_part,./stimuli/videos/campo-satellite.mp4,SZAXOFON UTCA,stimuli/objects/060a.jpg,object,left,0,stimuli/objects/060a.jpg,stimuli/scenes/005b.jpg,stimuli/objects/060a.jpg,stimuli/scenes/005a.jpg,stimuli/objects/060b.jpg,dist2,target,dist1,lure,0,0,0,0,,,,,0,46,46,18,,,,,,,,,,,,,552.1731736455113,,,,,,,,,,,,,,,,549.3475381359458,549.3475381359458,549.3475381359458,549.3475381359458,549.3475381359458,549.3475381359458,left,1,,[],[],[],[],[],[],2.792276982218027,,,,,,,,,,,,ST01_120922,2022-12-09_12h11.18.881,Hippopolis_Learning,2022.2.2,59.80444413313406,
Camponello,stimuli/subj_files/ST01_120922_cityB.csv,./stimuli/arnedillo.png,./stimuli/street_plate2.png,./stimuli/videos/camponello_part,./stimuli/videos/campo-satellite.mp4,KOCKA UTCA,stimuli/objects/032a.jpg,object,left,0,stimuli/objects/032a.jpg,stimuli/scenes/035a.jpg,stimuli/scenes/035b.jpg,stimuli/objects/032a.jpg,stimuli/objects/032b.jpg,dist1,dist2,target,lure,0,0,0,0,,,,,0,47,47,62,,,,,,,,,,,,,554.6320166140795,,,,,,,,,,,,,,,,553.202666381374,553.202666381374,553.202666381374,553.202666381374,553.202666381374,553.202666381374,right,0,,[],[],[],[],[],[],1.3852486126124859,,,,,,,,,,,,ST01_120922,2022-12-09_12h11.18.881,Hippopolis_Learning,2022.2.2,59.80444413313406,
Camponello,stimuli/subj_files/ST01_120922_cityB.csv,./stimuli/arnedillo.png,./stimuli/street_plate2.png,./stimuli/videos/camponello_part,./stimuli/videos/campo-satellite.mp4,SIRÁLY UTCA,stimuli/scenes/021a.jpg,scene,right,0,stimuli/scenes/021a.jpg,stimuli/scenes/021a.jpg,stimuli/scenes/021b.jpg,stimuli/objects/040b.jpg,stimuli/objects/040a.jpg,target,lure,dist2,dist1,0,0,0,0,,,,,0,48,48,0,,,,,,,,,,,,,557.3624033071101,,,,,,,,,,,,,,,,555.6569388005883,555.6569388005883,555.6569388005883,555.6569388005883,555.6569388005883,555.6569388005883,left,0,,[],[],[],[],[],[],1.6665395870804787,,,,,,,,,,,,ST01_120922,2022-12-09_12h11.18.881,Hippopolis_Learning,2022.2.2,59.80444413313406,
Camponello,stimuli/subj_files/ST01_120922_cityB.csv,./stimuli/arnedillo.png,./stimuli/street_plate2.png,./stimuli/videos/camponello_part,./stimuli/videos/campo-satellite.mp4,FÉNYKÉP UTCA,stimuli/scenes/049a.jpg,scene,right,0,stimuli/scenes/049a.jpg,stimuli/scenes/105a.jpg,stimuli/scenes/049b.jpg,stimuli/scenes/049a.jpg,stimuli/scenes/105b.jpg,dist1,lure,target,dist2,0,0,0,0,,,,,0,49,49,46,,,,,,,,,,,,,560.0494120735675,,,,,,,,,,,,,,,,558.3870474547148,558.3870474547148,558.3870474547148,558.3870474547148,558.3870474547148,558.3870474547148,left,0,,[],[],[],[],[],[],1.6080097388476133,,,,,,,,,,,,ST01_120922,2022-12-09_12h11.18.881,Hippopolis_Learning,2022.2.2,59.80444413313406,
Camponello,stimuli/subj_files/ST01_120922_cityB.csv,./stimuli/arnedillo.png,./stimuli/street_plate2.png,./stimuli/videos/camponello_part,./stimuli/videos/campo-satellite.mp4,TERASZ UTCA,stimuli/objects/016a.jpg,object,left,0,stimuli/objects/016a.jpg,stimuli/objects/016b.jpg,stimuli/objects/016a.jpg,stimuli/objects/081a.jpg,stimuli/objects/081b.jpg,lure,target,dist1,dist2,0,0,0,0,,,,,0,50,50,22,,,,,,,,,,,,,563.6087682656944,,,,,,,,,,,,,,,,561.074625050649,561.074625050649,561.074625050649,561.074625050649,561.074625050649,561.074625050649,left,1,,[],[],[],[],[],[],2.504888728260994,,,,,,,,,,,,ST01_120922,2022-12-09_12h11.18.881,Hippopolis_Learning,2022.2.2,59.80444413313406,
Camponello,stimuli/subj_files/ST01_120922_cityB.csv,./stimuli/arnedillo.png,./stimuli/street_plate2.png,./stimuli/videos/camponello_part,./stimuli/videos/campo-satellite.mp4,GYŰRŰ UTCA,stimuli/objects/079a.jpg,object,left,0,stimuli/objects/079a.jpg,stimuli/objects/079a.jpg,stimuli/objects/037b.jpg,stimuli/objects/037a.jpg,stimuli/objects/079b.jpg,target,dist2,dist1,lure,0,0,0,0,,,,,0,51,51,20,,,,,,,,,,,,,567.3310156092048,,,,,,,,,,,,,,,,564.6332242526114,564.6332242526114,564.6332242526114,564.6332242526114,564.6332242526114,564.6332242526114,left,1,,[],[],[],[],[],[],2.6581445913761854,,,,,,,,,,,,ST01_120922,2022-12-09_12h11.18.881,Hippopolis_Learning,2022.2.2,59.80444413313406,
Camponello,stimuli/subj_files/ST01_120922_cityB.csv,./stimuli/arnedillo.png,./stimuli/street_plate2.png,./stimuli/videos/camponello_part,./stimuli/videos/campo-satellite.mp4,ASZTAL UTCA,stimuli/scenes/047a.jpg,scene,right,0,stimuli/scenes/047a.jpg,stimuli/scenes/059a.jpg,stimuli/scenes/047a.jpg,stimuli/scenes/047b.jpg,stimuli/scenes/059b.jpg,dist1,target,lure,dist2,0,0,0,0,,,,,0,52,52,34,,,,,,,,,,,,,571.3760723490268,,,,,,,,,,,,,,,,568.3563644960523,568.3563644960523,568.3563644960523,568.3563644960523,568.3563644960523,568.3563644960523,left,0,,[],[],[],[],[],[],2.9833627305924892,,,,,,,,,,,,ST01_120922,2022-12-09_12h11.18.881,Hippopolis_Learning,2022.2.2,59.80444413313406,
Camponello,stimuli/subj_files/ST01_120922_cityB.csv,./stimuli/arnedillo.png,./stimuli/street_plate2.png,./stimuli/videos/camponello_part,./stimuli/videos/campo-satellite.mp4,TRIATLON UTCA,stimuli/scenes/059a.jpg,scene,right,0,stimuli/scenes/059a.jpg,stimuli/scenes/059b.jpg,stimuli/scenes/120a.jpg,stimuli/scenes/120b.jpg,stimuli/scenes/059a.jpg,lure,dist1,dist2,target,0,0,0,0,,,,,0,53,53,68,,,,,,,,,,,,,574.0323496405035,,,,,,,,,,,,,,,,572.4024749267846,572.4024749267846,572.4024749267846,572.4024749267846,572.4024749267846,572.4024749267846,left,0,,[],[],[],[],[],[],1.5927498992532492,,,,,,,,,,,,ST01_120922,2022-12-09_12h11.18.881,Hippopolis_Learning,2022.2.2,59.80444413313406,
Camponello,stimuli/subj_files/ST01_120922_cityB.csv,./stimuli/arnedillo.png,./stimuli/street_plate2.png,./stimuli/videos/camponello_part,./stimuli/videos/campo-satellite.mp4,KOCSI UTCA,stimuli/objects/003a.jpg,object,left,0,stimuli/objects/003a.jpg,stimuli/objects/020a.jpg,stimuli/objects/003b.jpg,stimuli/objects/020b.jpg,stimuli/objects/003a.jpg,dist1,lure,dist2,target,0,0,0,0,,,,,0,54,54,63,,,,,,,,,,,,,577.024489575997,,,,,,,,,,,,,,,,575.0540858767927,575.0540858767927,575.0540858767927,575.0540858767927,575.0540858767927,575.0540858767927,left,1,,[],[],[],[],[],[],1.917296888306737,,,,,,,,,,,,ST01_120922,2022-12-09_12h11.18.881,Hippopolis_Learning,2022.2.2,59.80444413313406,
Camponello,stimuli/subj_files/ST01_120922_cityB.csv,./stimuli/arnedillo.png,./stimuli/street_plate2.png,./stimuli/videos/camponello_part,./stimuli/videos/campo-satellite.mp4,SZŐNYEG UTCA,stimuli/objects/026a.jpg,object,left,0,stimuli/objects/026a.jpg,stimuli/objects/026a.jpg,stimuli/objects/099a.jpg,stimuli/objects/026b.jpg,stimuli/objects/099b.jpg,target,dist1,lure,dist2,0,0,0,0,,,,,0,55,55,37,,,,,,,,,,,,,579.6878338642418,,,,,,,,,,,,,,,,578.0537789147347,578.0537789147347,578.0537789147347,578.0537789147347,578.0537789147347,578.0537789147347,left,1,,[],[],[],[],[],[],1.5897987596690655,,,,,,,,,,,,ST01_120922,2022-12-09_12h11.18.881,Hippopolis_Learning,2022.2.2,59.80444413313406,
Camponello,stimuli/subj_files/ST01_120922_cityB.csv,./stimuli/arnedillo.png,./stimuli/street_plate2.png,./stimuli/videos/camponello_part,./stimuli/videos/campo-satellite.mp4,POGÁCSA UTCA,stimuli/objects/038a.jpg,object,left,0,stimuli/objects/038a.jpg,stimuli/objects/095b.jpg,stimuli/objects/038b.jpg,stimuli/objects/038a.jpg,stimuli/objects/095a.jpg,dist2,lure,target,dist1,0,0,0,0,,,,,0,56,56,73,,,,,,,,,,,,,582.1744832936674,,,,,,,,583.1963131427765,,,,,,,,580.7187650054693,580.7187650054693,580.7187650054693,580.7187650054693,580.7187650054693,580.7187650054693,right,0,,[],[],[],[],[],[],1.4210230559110641,,,,,,,,,,,,ST01_120922,2022-12-09_12h11.18.881,Hippopolis_Learning,2022.2.2,59.80444413313406,
Camponello,stimuli/subj_files/ST01_120922_cityB.csv,./stimuli/arnedillo.png,./stimuli/street_plate2.png,./stimuli/videos/camponello_part,./stimuli/videos/campo-satellite.mp4,KÖTÉNY UTCA,stimuli/scenes/060a.jpg,scene,right,2,stimuli/objects/007a.jpg,stimuli/objects/007a.jpg,stimuli/objects/057b.jpg,stimuli/objects/057a.jpg,stimuli/objects/007b.jpg,target,dist2,dist1,lure,0,0,0,0,,,,,0,57,57,28,,,,,,,,,,,,,584.7118214778602,,,,,,,,,,,,,,,,583.1963131427765,583.1963131427765,583.1963131427765,583.1963131427765,583.1963131427765,583.1963131427765,left,0,,[],[],[],[],[],[],1.4708935506641865,,,,,,,,,,,,ST01_120922,2022-12-09_12h11.18.881,Hippopolis_Learning,2022.2.2,59.80444413313406,
Camponello,stimuli/subj_files/ST01_120922_cityB.csv,./stimuli/arnedillo.png,./stimuli/street_plate2.png,./stimuli/videos/camponello_part,./stimuli/videos/campo-satellite.mp4,NARANCS UTCA,stimuli/objects/099a.jpg,object,left,0,stimuli/objects/099a.jpg,stimuli/objects/099a.jpg,stimuli/objects/099b.jpg,stimuli/scenes/037b.jpg,stimuli/scenes/037a.jpg,target,lure,dist2,dist1,0,0,0,0,,,,,0,58,58,19,,,,,,,,,,,,,586.8456397522241,,,,,,,,,,,,,,,,585.7367710322142,585.7367710322142,585.7367710322142,585.7367710322142,585.7367710322142,585.7367710322142,left,1,,[],[],[],[],[],[],1.058495033532381,,,,,,,,,,,,ST01_120922,2022-12-09_12h11.18.881,Hippopolis_Learning,2022.2.2,59.80444413313406,
Camponello,stimuli/subj_files/ST01_120922_cityB.csv,./stimuli/arnedillo.png,./stimuli/street_plate2.png,./stimuli/videos/camponello_part,./stimuli/videos/campo-satellite.mp4,CUKOR UTCA,stimuli/objects/030a.jpg,object,left,1,stimuli/objects/022a.jpg,stimuli/objects/022a.jpg,stimuli/objects/049a.jpg,stimuli/objects/049b.jpg,stimuli/objects/022b.jpg,target,dist1,dist2,lure,0,0,0,0,,,,,0,59,59,29,,,,,,,,,,,,,589.4231157992035,,,,,,,,,,,,,,,,587.8733952064067,587.8733952064067,587.8733952064067,587.8733952064067,587.8733952064067,587.8733952064067,left,1,,[],[],[],[],[],[],1.513682434335351,,,,,,,,,,,,ST01_120922,2022-12-09_12h11.18.881,Hippopolis_Learning,2022.2.2,59.80444413313406,
Camponello,stimuli/subj_files/ST01_120922_cityB.csv,./stimuli/arnedillo.png,./stimuli/street_plate2.png,./stimuli/videos/camponello_part,./stimuli/videos/campo-satellite.mp4,SZOBOR UTCA,stimuli/scenes/082a.jpg,scene,right,0,stimuli/scenes/082a.jpg,stimuli/scenes/041b.jpg,stimuli/scenes/041a.jpg,stimuli/scenes/082b.jpg,stimuli/scenes/082a.jpg,dist2,dist1,lure,target,0,0,0,0,,,,,0,60,60,79,,,,,,,,,,,,,592.1873051542789,,,,,,,,,,,,,,,,590.450253283605,590.450253283605,590.450253283605,590.450253283605,590.450253283605,590.450253283605,left,0,,[],[],[],[],[],[],1.6888418551534414,,,,,,,,,,,,ST01_120922,2022-12-09_12h11.18.881,Hippopolis_Learning,2022.2.2,59.80444413313406,
Camponello,stimuli/subj_files/ST01_120922_cityB.csv,./stimuli/arnedillo.png,./stimuli/street_plate2.png,./stimuli/videos/camponello_part,./stimuli/videos/campo-satellite.mp4,KÓKUSZ UTCA,stimuli/scenes/003a.jpg,scene,right,0,stimuli/scenes/003a.jpg,stimuli/scenes/003b.jpg,stimuli/objects/104a.jpg,stimuli/scenes/003a.jpg,stimuli/objects/104b.jpg,lure,dist1,target,dist2,0,0,0,0,,,,,0,61,61,7,,,,,,,,,,,,,594.5138307642192,,,,,,,,,,,,,,,,593.2185379713774,593.2185379713774,593.2185379713774,593.2185379713774,593.2185379713774,593.2185379713774,left,0,,[],[],[],[],[],[],1.256622277200222,,,,,,,,,,,,ST01_120922,2022-12-09_12h11.18.881,Hippopolis_Learning,2022.2.2,59.80444413313406,
Camponello,stimuli/subj_files/ST01_120922_cityB.csv,./stimuli/arnedillo.png,./stimuli/street_plate2.png,./stimuli/videos/camponello_part,./stimuli/videos/campo-satellite.mp4,HÁRFA UTCA,stimuli/scenes/117a.jpg,scene,right,1,stimuli/scenes/080a.jpg,stimuli/scenes/051a.jpg,stimuli/scenes/080b.jpg,stimuli/scenes/080a.jpg,stimuli/scenes/051b.jpg,dist1,lure,target,dist2,0,0,0,0,,,,,0,62,62,5,,,,,,,,,,,,,597.0188892837614,,,,,,,,,,,,,,,,595.5389243159443,595.5389243159443,595.5389243159443,595.5389243159443,595.5389243159443,595.5389243159443,left,0,,[],[],[],[],[],[],1.4319969154894352,,,,,,,,,,,,ST01_120922,2022-12-09_12h11.18.881,Hippopolis_Learning,2022.2.2,59.80444413313406,
Camponello,stimuli/subj_files/ST01_120922_cityB.csv,./stimuli/arnedillo.png,./stimuli/street_plate2.png,./stimuli/videos/camponello_part,./stimuli/videos/campo-satellite.mp4,TENISZ UTCA,stimuli/scenes/058a.jpg,scene,right,1,stimuli/scenes/099a.jpg,stimuli/scenes/099b.jpg,stimuli/objects/027a.jpg,stimuli/scenes/099a.jpg,stimuli/objects/027b.jpg,lure,dist1,target,dist2,0,0,0,0,,,,,0,63,63,75,,,,,,,,,,,,,599.1984295416623,,,,,,,,,,,,,,,,598.0393208488822,598.0393208488822,598.0393208488822,598.0393208488822,598.0393208488822,598.0393208488822,left,0,,[],[],[],[],[],[],1.107557537034154,,,,,,,,,,,,ST01_120922,2022-12-09_12h11.18.881,Hippopolis_Learning,2022.2.2,59.80444413313406,
Camponello,stimuli/subj_files/ST01_120922_cityB.csv,./stimuli/arnedillo.png,./stimuli/street_plate2.png,./stimuli/videos/camponello_part,./stimuli/videos/campo-satellite.mp4,KRÉTA UTCA,stimuli/scenes/064a.jpg,scene,right,0,stimuli/scenes/064a.jpg,stimuli/objects/001b.jpg,stimuli/objects/001a.jpg,stimuli/scenes/064b.jpg,stimuli/scenes/064a.jpg,dist2,dist1,lure,target,0,0,0,0,,,,,0,64,64,52,,,,,,,,,,,,,601.6561709269881,,,,,,,,,,,,,,,,600.2226519640535,600.2226519640535,600.2226519640535,600.2226519640535,600.2226519640535,600.2226519640535,left,0,,[],[],[],[],[],[],1.4047636408358812,,,,,,,,,,,,ST01_120922,2022-12-09_12h11.18.881,Hippopolis_Learning,2022.2.2,59.80444413313406,
Camponello,stimuli/subj_files/ST01_120922_cityB.csv,./stimuli/arnedillo.png,./stimuli/street_plate2.png,./stimuli/videos/camponello_part,./stimuli/videos/campo-satellite.mp4,KECSKE UTCA,stimuli/scenes/116a.jpg,scene,right,0,stimuli/scenes/116a.jpg,stimuli/scenes/024a.jpg,stimuli/scenes/116b.jpg,stimuli/scenes/116a.jpg,stimuli/scenes/024b.jpg,dist1,lure,target,dist2,0,0,0,0,,,,,0,65,65,30,,,,,,,,,,,,,603.8288018666208,,,,,,,,,,,,,,,,602.6854123696685,602.6854123696685,602.6854123696685,602.6854123696685,602.6854123696685,602.6854123696685,left,0,,[],[],[],[],[],[],1.1015492044389248,,,,,,,,,,,,ST01_120922,2022-12-09_12h11.18.881,Hippopolis_Learning,2022.2.2,59.80444413313406,
