CityName,StimuliFile,CityImage,StreetSign,Cue,Image,Category,Novelty,UpdateImage,TestImage1,TestImage2,TestImage3,TestImage4,TestImage1Type,TestImage2Type,TestImage3Type,TestImage4Type,CityBlock.thisRepN,CityBlock.thisTrialN,CityBlock.thisN,CityBlock.thisIndex,LearningTrials.thisRepN,LearningTrials.thisTrialN,LearningTrials.thisN,LearningTrials.thisIndex,learning_instructions_text.started,learning_instructions_text.stopped,intro_key.keys,intro_key.rt,intro_key.started,intro_key.stopped,cityname_text.started,cityname_text.stopped,city_image.started,city_image.stopped,fx_cross.started,fx_cross.stopped,plate.started,plate.stopped,city_text.started,city_text.stopped,street_text.started,street_text.stopped,fx_cross_prediction.started,fx_cross_prediction.stopped,plate_updating.started,plate_updating.stopped,city_text_updating.started,city_text_updating.stopped,street_text_updating.started,street_text_updating.stopped,updating_image.started,updating_image.stopped,short_break_text.started,short_break_text.stopped,short_break_key.keys,short_break_key.started,short_break_key.stopped,short_break_key.rt,break_text.started,break_text.stopped,break_key_resp.keys,break_key_resp.rt,break_key_resp.started,break_key_resp.stopped,end_text.started,end_text.stopped,participant,date,expName,psychopyVersion,frameRate,
,,,,,,,,,,,,,,,,,,,,,,,,,13.900836399989203,None,space,21.804599800001597,13.900836399989203,None,,,,,,,,,,,,,,,,,,,,,,,,,,,,,,,,,,,,,ST01_112522,2022-11-25_13h08.52.782,Hippopolis_Updating,2021.1.4,59.913389200708764,
Camponello,stimuli/subj_files/ST01_112522_cityB.csv,./stimuli/hallstatt.jpg,./stimuli/street_plate2.png,LOVAGLÁS UTCA,stimuli/objects/087a.jpg,object,0,stimuli/objects/087a.jpg,stimuli/scenes/110a.jpg,stimuli/scenes/110b.jpg,stimuli/objects/087b.jpg,stimuli/objects/087a.jpg,dist1,dist2,lure,target,0,0,0,0,0,0,0,39,,,,,,,35.79521979999845,None,35.79521979999845,None,38.74696469999617,None,39.77457919999142,None,39.77457919999142,None,39.77457919999142,None,39.77457919999142,None,42.74910849999287,None,42.74910849999287,None,42.74910849999287,None,42.74910849999287,None,None,None,None,None,None,,,,,,,,,,ST01_112522,2022-11-25_13h08.52.782,Hippopolis_Updating,2021.1.4,59.913389200708764,
Camponello,stimuli/subj_files/ST01_112522_cityB.csv,./stimuli/hallstatt.jpg,./stimuli/street_plate2.png,EGÉR UTCA,stimuli/objects/115a.jpg,object,0,stimuli/objects/115a.jpg,stimuli/scenes/010a.jpg,stimuli/objects/115a.jpg,stimuli/scenes/010b.jpg,stimuli/objects/115b.jpg,dist1,target,dist2,lure,0,0,0,0,0,1,1,44,,,,,,,,,,,44.74486989999423,None,45.75012099999003,None,45.75012099999003,None,45.75012099999003,None,45.75012099999003,None,48.7768902000098,None,48.7768902000098,None,48.7768902000098,None,48.7768902000098,None,None,None,None,None,None,,,,,,,,,,ST01_112522,2022-11-25_13h08.52.782,Hippopolis_Updating,2021.1.4,59.913389200708764,
Camponello,stimuli/subj_files/ST01_112522_cityB.csv,./stimuli/hallstatt.jpg,./stimuli/street_plate2.png,AKÁC UTCA,stimuli/objects/062a.jpg,object,0,stimuli/objects/062a.jpg,stimuli/scenes/053a.jpg,stimuli/scenes/053b.jpg,stimuli/objects/062a.jpg,stimuli/objects/062b.jpg,dist1,dist2,target,lure,0,0,0,0,0,2,2,41,,,,,,,,,,,50.76182789998711,None,51.761398900009226,None,51.761398900009226,None,51.761398900009226,None,51.761398900009226,None,54.765380700002424,None,54.765380700002424,None,54.765380700002424,None,54.765380700002424,None,None,None,None,None,None,,,,,,,,,,ST01_112522,2022-11-25_13h08.52.782,Hippopolis_Updating,2021.1.4,59.913389200708764,
Camponello,stimuli/subj_files/ST01_112522_cityB.csv,./stimuli/hallstatt.jpg,./stimuli/street_plate2.png,KERÉK UTCA,stimuli/scenes/021a.jpg,scene,2,stimuli/objects/053a.jpg,stimuli/objects/105b.jpg,stimuli/objects/105a.jpg,stimuli/objects/053b.jpg,stimuli/objects/053a.jpg,dist2,dist1,lure,target,0,0,0,0,0,3,3,17,,,,,,,,,,,56.77791460001026,None,57.77799390000291,None,57.77799390000291,None,57.77799390000291,None,57.77799390000291,None,60.789923400006955,None,60.789923400006955,None,60.789923400006955,None,60.789923400006955,None,None,None,None,None,None,,,,,,,,,,ST01_112522,2022-11-25_13h08.52.782,Hippopolis_Updating,2021.1.4,59.913389200708764,
Camponello,stimuli/subj_files/ST01_112522_cityB.csv,./stimuli/hallstatt.jpg,./stimuli/street_plate2.png,TOBOZ UTCA,stimuli/objects/057a.jpg,object,0,stimuli/objects/057a.jpg,stimuli/objects/057a.jpg,stimuli/objects/057b.jpg,stimuli/objects/110b.jpg,stimuli/objects/110a.jpg,target,lure,dist2,dist1,0,0,0,0,0,4,4,22,,,,,,,,,,,62.79472599999281,None,63.7995743000065,None,63.7995743000065,None,63.7995743000065,None,63.7995743000065,None,66.82417099998565,None,66.82417099998565,None,66.82417099998565,None,66.82417099998565,None,None,None,None,None,None,,,,,,,,,,ST01_112522,2022-11-25_13h08.52.782,Hippopolis_Updating,2021.1.4,59.913389200708764,
Camponello,stimuli/subj_files/ST01_112522_cityB.csv,./stimuli/hallstatt.jpg,./stimuli/street_plate2.png,ASZTAL UTCA,stimuli/scenes/066a.jpg,scene,2,stimuli/objects/078a.jpg,stimuli/objects/078a.jpg,stimuli/scenes/109b.jpg,stimuli/objects/078b.jpg,stimuli/scenes/109a.jpg,target,dist2,lure,dist1,0,0,0,0,0,5,5,59,,,,,,,,,,,68.81132519998937,None,69.81173620000482,None,69.81173620000482,None,69.81173620000482,None,69.81173620000482,None,72.82139110000571,None,72.82139110000571,None,72.82139110000571,None,72.82139110000571,None,None,None,None,None,None,,,,,,,,,,ST01_112522,2022-11-25_13h08.52.782,Hippopolis_Updating,2021.1.4,59.913389200708764,
Camponello,stimuli/subj_files/ST01_112522_cityB.csv,./stimuli/hallstatt.jpg,./stimuli/street_plate2.png,HORDÓ UTCA,stimuli/objects/084a.jpg,object,0,stimuli/objects/084a.jpg,stimuli/objects/084a.jpg,stimuli/scenes/039a.jpg,stimuli/objects/084b.jpg,stimuli/scenes/039b.jpg,target,dist1,lure,dist2,0,0,0,0,0,6,6,75,,,,,,,,,,,74.82791019999422,None,75.83152090001386,None,75.83152090001386,None,75.83152090001386,None,75.83152090001386,None,78.85433390000253,None,78.85433390000253,None,78.85433390000253,None,78.85433390000253,None,None,None,None,None,None,,,,,,,,,,ST01_112522,2022-11-25_13h08.52.782,Hippopolis_Updating,2021.1.4,59.913389200708764,
Camponello,stimuli/subj_files/ST01_112522_cityB.csv,./stimuli/hallstatt.jpg,./stimuli/street_plate2.png,SIRÁLY UTCA,stimuli/objects/004a.jpg,object,2,stimuli/scenes/030a.jpg,stimuli/scenes/030b.jpg,stimuli/objects/014a.jpg,stimuli/scenes/030a.jpg,stimuli/objects/014b.jpg,lure,dist1,target,dist2,0,0,0,0,0,7,7,42,,,,,,,,,,,80.84432450000895,None,81.84792420000304,None,81.84792420000304,None,81.84792420000304,None,81.84792420000304,None,84.87005329999374,None,84.87005329999374,None,84.87005329999374,None,84.87005329999374,None,None,None,None,None,None,,,,,,,,,,ST01_112522,2022-11-25_13h08.52.782,Hippopolis_Updating,2021.1.4,59.913389200708764,
Camponello,stimuli/subj_files/ST01_112522_cityB.csv,./stimuli/hallstatt.jpg,./stimuli/street_plate2.png,KÖMÉNYMAG UTCA,stimuli/scenes/028a.jpg,scene,1,stimuli/scenes/045a.jpg,stimuli/scenes/045b.jpg,stimuli/objects/092b.jpg,stimuli/scenes/045a.jpg,stimuli/objects/092a.jpg,lure,dist2,target,dist1,0,0,0,0,0,8,8,66,,,,,,,,,,,86.86050760000944,None,87.86556390000624,None,87.86556390000624,None,87.86556390000624,None,87.86556390000624,None,90.88490470001125,None,90.88490470001125,None,90.88490470001125,None,90.88490470001125,None,None,None,None,None,None,,,,,,,,,,ST01_112522,2022-11-25_13h08.52.782,Hippopolis_Updating,2021.1.4,59.913389200708764,
Camponello,stimuli/subj_files/ST01_112522_cityB.csv,./stimuli/hallstatt.jpg,./stimuli/street_plate2.png,MOGYORÓ UTCA,stimuli/scenes/092a.jpg,scene,2,stimuli/objects/014a.jpg,stimuli/scenes/041b.jpg,stimuli/objects/014a.jpg,stimuli/scenes/041a.jpg,stimuli/objects/014b.jpg,dist2,target,dist1,lure,0,0,0,0,0,9,9,32,,,,,,,,,,,92.87705549999373,None,93.87739700000384,None,93.87739700000384,None,93.87739700000384,None,93.87739700000384,None,96.8823379999958,None,96.8823379999958,None,96.8823379999958,None,96.8823379999958,None,None,None,None,None,None,,,,,,,,,,ST01_112522,2022-11-25_13h08.52.782,Hippopolis_Updating,2021.1.4,59.913389200708764,
Camponello,stimuli/subj_files/ST01_112522_cityB.csv,./stimuli/hallstatt.jpg,./stimuli/street_plate2.png,KOCKA UTCA,stimuli/scenes/010a.jpg,scene,0,stimuli/scenes/010a.jpg,stimuli/scenes/075b.jpg,stimuli/scenes/075a.jpg,stimuli/scenes/010b.jpg,stimuli/scenes/010a.jpg,dist2,dist1,lure,target,0,0,0,0,0,10,10,74,,,,,,,,,,,98.89352849998977,None,99.89396899999701,None,99.89396899999701,None,99.89396899999701,None,99.89396899999701,None,102.89927180000814,None,102.89927180000814,None,102.89927180000814,None,102.89927180000814,None,None,None,None,None,None,,,,,,,,,,ST01_112522,2022-11-25_13h08.52.782,Hippopolis_Updating,2021.1.4,59.913389200708764,
Camponello,stimuli/subj_files/ST01_112522_cityB.csv,./stimuli/hallstatt.jpg,./stimuli/street_plate2.png,HAJÓ UTCA,stimuli/scenes/049a.jpg,scene,0,stimuli/scenes/049a.jpg,stimuli/scenes/099a.jpg,stimuli/scenes/049a.jpg,stimuli/scenes/049b.jpg,stimuli/scenes/099b.jpg,dist1,target,lure,dist2,0,0,0,0,0,11,11,63,,,,,,,,,,,104.91065060000983,None,105.91396500001429,None,105.91396500001429,None,105.91396500001429,None,105.91396500001429,None,108.93059850001009,None,108.93059850001009,None,108.93059850001009,None,108.93059850001009,None,None,None,None,None,None,,,,,,,,,,ST01_112522,2022-11-25_13h08.52.782,Hippopolis_Updating,2021.1.4,59.913389200708764,
Camponello,stimuli/subj_files/ST01_112522_cityB.csv,./stimuli/hallstatt.jpg,./stimuli/street_plate2.png,TÁSKA UTCA,stimuli/scenes/012a.jpg,scene,0,stimuli/scenes/012a.jpg,stimuli/scenes/012b.jpg,stimuli/scenes/012a.jpg,stimuli/objects/033b.jpg,stimuli/objects/033a.jpg,lure,target,dist2,dist1,0,0,0,0,0,12,12,61,,,,,,,,,,,110.92712209999445,None,111.92738710000413,None,111.92738710000413,None,111.92738710000413,None,111.92738710000413,None,114.92983040001127,None,114.92983040001127,None,114.92983040001127,None,114.92983040001127,None,None,None,None,None,None,,,,,,,,,,ST01_112522,2022-11-25_13h08.52.782,Hippopolis_Updating,2021.1.4,59.913389200708764,
Camponello,stimuli/subj_files/ST01_112522_cityB.csv,./stimuli/hallstatt.jpg,./stimuli/street_plate2.png,BONBON UTCA,stimuli/scenes/102a.jpg,scene,2,stimuli/objects/058a.jpg,stimuli/scenes/097a.jpg,stimuli/objects/058b.jpg,stimuli/objects/058a.jpg,stimuli/scenes/097b.jpg,dist1,lure,target,dist2,0,0,0,0,0,13,13,54,,,,,,,,,,,116.94374829999288,None,117.94347070000367,None,117.94347070000367,None,117.94347070000367,None,117.94347070000367,None,120.96063869999489,None,120.96063869999489,None,120.96063869999489,None,120.96063869999489,None,None,None,None,None,None,,,,,,,,,,ST01_112522,2022-11-25_13h08.52.782,Hippopolis_Updating,2021.1.4,59.913389200708764,
Camponello,stimuli/subj_files/ST01_112522_cityB.csv,./stimuli/hallstatt.jpg,./stimuli/street_plate2.png,HARMONIKA UTCA,stimuli/objects/068a.jpg,object,0,stimuli/objects/068a.jpg,stimuli/objects/068b.jpg,stimuli/scenes/012b.jpg,stimuli/objects/068a.jpg,stimuli/scenes/012a.jpg,lure,dist2,target,dist1,0,0,0,0,0,14,14,38,,,,,,,,,,,122.95971699999063,None,123.96022229999653,None,123.96022229999653,None,123.96022229999653,None,123.96022229999653,None,126.97522910000407,None,126.97522910000407,None,126.97522910000407,None,126.97522910000407,None,None,None,None,None,None,,,,,,,,,,ST01_112522,2022-11-25_13h08.52.782,Hippopolis_Updating,2021.1.4,59.913389200708764,
Camponello,stimuli/subj_files/ST01_112522_cityB.csv,./stimuli/hallstatt.jpg,./stimuli/street_plate2.png,MOTOR UTCA,stimuli/scenes/083a.jpg,scene,0,stimuli/scenes/083a.jpg,stimuli/objects/084b.jpg,stimuli/objects/084a.jpg,stimuli/scenes/083a.jpg,stimuli/scenes/083b.jpg,dist2,dist1,target,lure,0,0,0,0,0,15,15,58,,,,,,,,,,,128.97617899999022,None,129.97685499998624,None,129.97685499998624,None,129.97685499998624,None,129.97685499998624,None,132.97741069999756,None,132.97741069999756,None,132.97741069999756,None,132.97741069999756,None,None,None,None,None,None,,,,,,,,,,ST01_112522,2022-11-25_13h08.52.782,Hippopolis_Updating,2021.1.4,59.913389200708764,
Camponello,stimuli/subj_files/ST01_112522_cityB.csv,./stimuli/hallstatt.jpg,./stimuli/street_plate2.png,BETON UTCA,stimuli/scenes/095a.jpg,scene,1,stimuli/scenes/080a.jpg,stimuli/scenes/080b.jpg,stimuli/scenes/080a.jpg,stimuli/objects/091a.jpg,stimuli/objects/091b.jpg,lure,target,dist1,dist2,0,0,0,0,0,16,16,14,,,,,,,,,,,134.97634890000336,None,135.97662910001236,None,135.97662910001236,None,135.97662910001236,None,135.97662910001236,None,138.9846080999996,None,138.9846080999996,None,138.9846080999996,None,138.9846080999996,None,None,None,None,None,None,,,,,,,,,,ST01_112522,2022-11-25_13h08.52.782,Hippopolis_Updating,2021.1.4,59.913389200708764,
Camponello,stimuli/subj_files/ST01_112522_cityB.csv,./stimuli/hallstatt.jpg,./stimuli/street_plate2.png,KRÉTA UTCA,stimuli/objects/093a.jpg,object,0,stimuli/objects/093a.jpg,stimuli/objects/003a.jpg,stimuli/objects/003b.jpg,stimuli/objects/093b.jpg,stimuli/objects/093a.jpg,dist1,dist2,lure,target,0,0,0,0,0,17,17,53,,,,,,,,,,,140.9927988999989,None,141.9931030999869,None,141.9931030999869,None,141.9931030999869,None,141.9931030999869,None,145.00457680001273,None,145.00457680001273,None,145.00457680001273,None,145.00457680001273,None,None,None,None,None,None,,,,,,,,,,ST01_112522,2022-11-25_13h08.52.782,Hippopolis_Updating,2021.1.4,59.913389200708764,
Camponello,stimuli/subj_files/ST01_112522_cityB.csv,./stimuli/hallstatt.jpg,./stimuli/street_plate2.png,MENTA UTCA,stimuli/objects/104a.jpg,object,1,stimuli/objects/092a.jpg,stimuli/objects/092a.jpg,stimuli/scenes/080b.jpg,stimuli/objects/092b.jpg,stimuli/scenes/080a.jpg,target,dist2,lure,dist1,0,0,0,0,0,18,18,70,,,,,,,,,,,147.00942950000172,None,148.0098435000109,None,148.0098435000109,None,148.0098435000109,None,148.0098435000109,None,151.02216580000822,None,151.02216580000822,None,151.02216580000822,None,151.02216580000822,None,None,None,None,None,None,,,,,,,,,,ST01_112522,2022-11-25_13h08.52.782,Hippopolis_Updating,2021.1.4,59.913389200708764,
Camponello,stimuli/subj_files/ST01_112522_cityB.csv,./stimuli/hallstatt.jpg,./stimuli/street_plate2.png,MOSODA UTCA,stimuli/scenes/065a.jpg,scene,0,stimuli/scenes/065a.jpg,stimuli/scenes/065a.jpg,stimuli/objects/057b.jpg,stimuli/scenes/065b.jpg,stimuli/objects/057a.jpg,target,dist2,lure,dist1,0,0,0,0,0,19,19,1,,,,,,,,,,,153.0265037000063,None,154.0272718000051,None,154.0272718000051,None,154.0272718000051,None,154.0272718000051,None,157.03012760001002,None,157.03012760001002,None,157.03012760001002,None,157.03012760001002,None,None,None,None,None,None,,,,,,,,,,ST01_112522,2022-11-25_13h08.52.782,Hippopolis_Updating,2021.1.4,59.913389200708764,
Camponello,stimuli/subj_files/ST01_112522_cityB.csv,./stimuli/hallstatt.jpg,./stimuli/street_plate2.png,ZÁSZLÓ UTCA,stimuli/objects/050a.jpg,object,1,stimuli/objects/067a.jpg,stimuli/objects/065b.jpg,stimuli/objects/065a.jpg,stimuli/objects/067a.jpg,stimuli/objects/067b.jpg,dist2,dist1,target,lure,0,0,0,0,0,20,20,71,,,,,,,,,,,159.04278899999917,None,160.04279430001043,None,160.04279430001043,None,160.04279430001043,None,160.04279430001043,None,163.0593261999893,None,163.0593261999893,None,163.0593261999893,None,163.0593261999893,None,None,None,None,None,None,,,,,,,,,,ST01_112522,2022-11-25_13h08.52.782,Hippopolis_Updating,2021.1.4,59.913389200708764,
Camponello,stimuli/subj_files/ST01_112522_cityB.csv,./stimuli/hallstatt.jpg,./stimuli/street_plate2.png,TULIPÁN UTCA,stimuli/scenes/013a.jpg,scene,0,stimuli/scenes/013a.jpg,stimuli/scenes/026a.jpg,stimuli/scenes/013a.jpg,stimuli/scenes/013b.jpg,stimuli/scenes/026b.jpg,dist1,target,lure,dist2,0,0,0,0,0,21,21,13,,,,,,,,,,,165.05909900000552,None,166.0591473999957,None,166.0591473999957,None,166.0591473999957,None,166.0591473999957,None,169.06415799999377,None,169.06415799999377,None,169.06415799999377,None,169.06415799999377,None,None,None,None,None,None,,,,,,,,,,ST01_112522,2022-11-25_13h08.52.782,Hippopolis_Updating,2021.1.4,59.913389200708764,
Camponello,stimuli/subj_files/ST01_112522_cityB.csv,./stimuli/hallstatt.jpg,./stimuli/street_plate2.png,TOLMÁCS UTCA,stimuli/objects/090a.jpg,object,0,stimuli/objects/090a.jpg,stimuli/objects/090a.jpg,stimuli/objects/109a.jpg,stimuli/objects/090b.jpg,stimuli/objects/109b.jpg,target,dist1,lure,dist2,0,0,0,0,0,22,22,11,,,,,,,,,,,171.07611560000805,None,172.07661260000896,None,172.07661260000896,None,172.07661260000896,None,172.07661260000896,None,175.08760520000942,None,175.08760520000942,None,175.08760520000942,None,175.08760520000942,None,None,None,None,None,None,,,,,,,,,,ST01_112522,2022-11-25_13h08.52.782,Hippopolis_Updating,2021.1.4,59.913389200708764,
Camponello,stimuli/subj_files/ST01_112522_cityB.csv,./stimuli/hallstatt.jpg,./stimuli/street_plate2.png,ÁRNYÉK UTCA,stimuli/objects/033a.jpg,object,0,stimuli/objects/033a.jpg,stimuli/objects/070a.jpg,stimuli/objects/070b.jpg,stimuli/objects/033a.jpg,stimuli/objects/033b.jpg,dist1,dist2,target,lure,0,0,0,0,0,23,23,2,,,,,,,,,,,177.0923596000066,None,178.09431499999482,None,178.09431499999482,None,178.09431499999482,None,178.09431499999482,None,181.1248379999888,None,181.1248379999888,None,181.1248379999888,None,181.1248379999888,None,None,None,None,None,None,,,,,,,,,,ST01_112522,2022-11-25_13h08.52.782,Hippopolis_Updating,2021.1.4,59.913389200708764,
Camponello,stimuli/subj_files/ST01_112522_cityB.csv,./stimuli/hallstatt.jpg,./stimuli/street_plate2.png,PAPRIKA UTCA,stimuli/scenes/038a.jpg,scene,0,stimuli/scenes/038a.jpg,stimuli/scenes/038b.jpg,stimuli/scenes/043b.jpg,stimuli/scenes/043a.jpg,stimuli/scenes/038a.jpg,lure,dist2,dist1,target,0,0,0,0,0,24,24,30,,,,,,,,,,,183.1087918000121,None,184.10911399999168,None,184.10911399999168,None,184.10911399999168,None,184.10911399999168,None,187.11599739998928,None,187.11599739998928,None,187.11599739998928,None,187.11599739998928,None,None,None,None,None,None,,,,,,,,,,ST01_112522,2022-11-25_13h08.52.782,Hippopolis_Updating,2021.1.4,59.913389200708764,
Camponello,stimuli/subj_files/ST01_112522_cityB.csv,./stimuli/hallstatt.jpg,./stimuli/street_plate2.png,KERET UTCA,stimuli/objects/094a.jpg,object,1,stimuli/objects/091a.jpg,stimuli/objects/091b.jpg,stimuli/objects/007b.jpg,stimuli/objects/091a.jpg,stimuli/objects/007a.jpg,lure,dist2,target,dist1,0,0,0,0,0,25,25,6,,,,,,,,,,,189.1253324999998,None,190.1257717999979,None,190.1257717999979,None,190.1257717999979,None,190.1257717999979,None,193.13763889999245,None,193.13763889999245,None,193.13763889999245,None,193.13763889999245,None,None,None,None,None,None,,,,,,,,,,ST01_112522,2022-11-25_13h08.52.782,Hippopolis_Updating,2021.1.4,59.913389200708764,
Camponello,stimuli/subj_files/ST01_112522_cityB.csv,./stimuli/hallstatt.jpg,./stimuli/street_plate2.png,BÚJÓCSKA UTCA,stimuli/scenes/047a.jpg,scene,0,stimuli/scenes/047a.jpg,stimuli/scenes/047a.jpg,stimuli/objects/072a.jpg,stimuli/objects/072b.jpg,stimuli/scenes/047b.jpg,target,dist1,dist2,lure,0,0,0,0,0,26,26,9,,,,,,,,,,,195.14199179998832,None,196.14557140000397,None,196.14557140000397,None,196.14557140000397,None,196.14557140000397,None,199.1626213999989,None,199.1626213999989,None,199.1626213999989,None,199.1626213999989,None,None,None,None,None,None,,,,,,,,,,ST01_112522,2022-11-25_13h08.52.782,Hippopolis_Updating,2021.1.4,59.913389200708764,
Camponello,stimuli/subj_files/ST01_112522_cityB.csv,./stimuli/hallstatt.jpg,./stimuli/street_plate2.png,KÁRTYA UTCA,stimuli/objects/038a.jpg,object,0,stimuli/objects/038a.jpg,stimuli/objects/038b.jpg,stimuli/scenes/035b.jpg,stimuli/scenes/035a.jpg,stimuli/objects/038a.jpg,lure,dist2,dist1,target,0,0,0,0,0,27,27,69,,,,,,,,,,,201.15891369999736,None,202.15952690000995,None,202.15952690000995,None,202.15952690000995,None,202.15952690000995,None,205.1593348000024,None,205.1593348000024,None,205.1593348000024,None,205.1593348000024,None,None,None,None,None,None,,,,,,,,,,ST01_112522,2022-11-25_13h08.52.782,Hippopolis_Updating,2021.1.4,59.913389200708764,
Camponello,stimuli/subj_files/ST01_112522_cityB.csv,./stimuli/hallstatt.jpg,./stimuli/street_plate2.png,TALICSKA UTCA,stimuli/objects/097a.jpg,object,0,stimuli/objects/097a.jpg,stimuli/objects/097a.jpg,stimuli/objects/097b.jpg,stimuli/scenes/083b.jpg,stimuli/scenes/083a.jpg,target,lure,dist2,dist1,0,0,0,0,0,28,28,15,,,,,,,,,,,207.15882030001376,None,208.15936109999893,None,208.15936109999893,None,208.15936109999893,None,208.15936109999893,None,211.1661405999912,None,211.1661405999912,None,211.1661405999912,None,211.1661405999912,None,None,None,None,None,None,,,,,,,,,,ST01_112522,2022-11-25_13h08.52.782,Hippopolis_Updating,2021.1.4,59.913389200708764,
Camponello,stimuli/subj_files/ST01_112522_cityB.csv,./stimuli/hallstatt.jpg,./stimuli/street_plate2.png,LÉTRA UTCA,stimuli/scenes/053a.jpg,scene,0,stimuli/scenes/053a.jpg,stimuli/scenes/053b.jpg,stimuli/objects/068a.jpg,stimuli/scenes/053a.jpg,stimuli/objects/068b.jpg,lure,dist1,target,dist2,0,0,0,0,0,29,29,28,,,,,,,,,,,213.17488159998902,None,214.17574390000664,None,214.17574390000664,None,214.17574390000664,None,214.17574390000664,None,217.18032439998933,None,217.18032439998933,None,217.18032439998933,None,217.18032439998933,None,None,None,None,None,None,,,,,,,,,,ST01_112522,2022-11-25_13h08.52.782,Hippopolis_Updating,2021.1.4,59.913389200708764,
Camponello,stimuli/subj_files/ST01_112522_cityB.csv,./stimuli/hallstatt.jpg,./stimuli/street_plate2.png,CITROM UTCA,stimuli/scenes/052a.jpg,scene,1,stimuli/scenes/082a.jpg,stimuli/scenes/045b.jpg,stimuli/scenes/082b.jpg,stimuli/scenes/082a.jpg,stimuli/scenes/045a.jpg,dist2,lure,target,dist1,0,0,0,0,0,30,30,55,,,,,,,,,,,219.1914081000141,None,220.19170809999923,None,220.19170809999923,None,220.19170809999923,None,220.19170809999923,None,223.20301639998797,None,223.20301639998797,None,223.20301639998797,None,223.20301639998797,None,None,None,None,None,None,,,,,,,,,,ST01_112522,2022-11-25_13h08.52.782,Hippopolis_Updating,2021.1.4,59.913389200708764,
Camponello,stimuli/subj_files/ST01_112522_cityB.csv,./stimuli/hallstatt.jpg,./stimuli/street_plate2.png,SIVATAG UTCA,stimuli/objects/013a.jpg,object,0,stimuli/objects/013a.jpg,stimuli/objects/097b.jpg,stimuli/objects/097a.jpg,stimuli/objects/013a.jpg,stimuli/objects/013b.jpg,dist2,dist1,target,lure,0,0,0,0,0,31,31,62,,,,,,,,,,,225.20850619999692,None,226.20919480000157,None,226.20919480000157,None,226.20919480000157,None,226.20919480000157,None,229.2233406000014,None,229.2233406000014,None,229.2233406000014,None,229.2233406000014,None,None,None,None,None,None,,,,,,,,,,ST01_112522,2022-11-25_13h08.52.782,Hippopolis_Updating,2021.1.4,59.913389200708764,
Camponello,stimuli/subj_files/ST01_112522_cityB.csv,./stimuli/hallstatt.jpg,./stimuli/street_plate2.png,PETÁRDA UTCA,stimuli/objects/006a.jpg,object,1,stimuli/objects/100a.jpg,stimuli/objects/100a.jpg,stimuli/objects/100b.jpg,stimuli/scenes/082a.jpg,stimuli/scenes/082b.jpg,target,lure,dist1,dist2,0,0,0,0,0,32,32,3,,,,,,,,,,,231.2250572000048,None,232.2251120999863,None,232.2251120999863,None,232.2251120999863,None,232.2251120999863,None,235.24135729999398,None,235.24135729999398,None,235.24135729999398,None,235.24135729999398,None,None,None,None,None,None,,,,,,,,,,ST01_112522,2022-11-25_13h08.52.782,Hippopolis_Updating,2021.1.4,59.913389200708764,
Camponello,stimuli/subj_files/ST01_112522_cityB.csv,./stimuli/hallstatt.jpg,./stimuli/street_plate2.png,TERASZ UTCA,stimuli/objects/072a.jpg,object,0,stimuli/objects/072a.jpg,stimuli/objects/072a.jpg,stimuli/scenes/118a.jpg,stimuli/objects/072b.jpg,stimuli/scenes/118b.jpg,target,dist1,lure,dist2,0,0,0,0,0,33,33,65,,,,,,,,,,,237.24158820000594,None,238.24151409999467,None,238.24151409999467,None,238.24151409999467,None,238.24151409999467,None,241.2492787000083,None,241.2492787000083,None,241.2492787000083,None,241.2492787000083,None,None,None,None,None,None,,,,,,,,,,ST01_112522,2022-11-25_13h08.52.782,Hippopolis_Updating,2021.1.4,59.913389200708764,
Camponello,stimuli/subj_files/ST01_112522_cityB.csv,./stimuli/hallstatt.jpg,./stimuli/street_plate2.png,HEGEDŰ UTCA,stimuli/objects/041a.jpg,object,2,stimuli/scenes/097a.jpg,stimuli/scenes/097b.jpg,stimuli/objects/053b.jpg,stimuli/scenes/097a.jpg,stimuli/objects/053a.jpg,lure,dist2,target,dist1,0,0,0,0,0,34,34,76,,,,,,,,,,,243.2577723999857,None,244.2621996999951,None,244.2621996999951,None,244.2621996999951,None,244.2621996999951,None,247.28238419999252,None,247.28238419999252,None,247.28238419999252,None,247.28238419999252,None,None,None,None,None,None,,,,,,,,,,ST01_112522,2022-11-25_13h08.52.782,Hippopolis_Updating,2021.1.4,59.913389200708764,
Camponello,stimuli/subj_files/ST01_112522_cityB.csv,./stimuli/hallstatt.jpg,./stimuli/street_plate2.png,TÜKÖR UTCA,stimuli/scenes/093a.jpg,scene,0,stimuli/scenes/093a.jpg,stimuli/scenes/093b.jpg,stimuli/scenes/093a.jpg,stimuli/scenes/104b.jpg,stimuli/scenes/104a.jpg,lure,target,dist2,dist1,0,0,0,0,0,35,35,27,,,,,,,,,,,249.2742900000012,None,250.27990920000593,None,250.27990920000593,None,250.27990920000593,None,250.27990920000593,None,253.30705360000138,None,253.30705360000138,None,253.30705360000138,None,253.30705360000138,None,None,None,None,None,None,,,,,,,,,,ST01_112522,2022-11-25_13h08.52.782,Hippopolis_Updating,2021.1.4,59.913389200708764,
Camponello,stimuli/subj_files/ST01_112522_cityB.csv,./stimuli/hallstatt.jpg,./stimuli/street_plate2.png,AJÁNDÉK UTCA,stimuli/scenes/118a.jpg,scene,0,stimuli/scenes/118a.jpg,stimuli/scenes/118a.jpg,stimuli/scenes/118b.jpg,stimuli/objects/038a.jpg,stimuli/objects/038b.jpg,target,lure,dist1,dist2,0,0,0,0,0,36,36,60,,,,,,,,,,,255.2907591999974,None,256.29163069999777,None,256.29163069999777,None,256.29163069999777,None,256.29163069999777,None,259.29122399998596,None,259.29122399998596,None,259.29122399998596,None,259.29122399998596,None,None,None,None,None,None,,,,,,,,,,ST01_112522,2022-11-25_13h08.52.782,Hippopolis_Updating,2021.1.4,59.913389200708764,
Camponello,stimuli/subj_files/ST01_112522_cityB.csv,./stimuli/hallstatt.jpg,./stimuli/street_plate2.png,VITORLA UTCA,stimuli/objects/099a.jpg,object,0,stimuli/objects/099a.jpg,stimuli/objects/099a.jpg,stimuli/objects/115b.jpg,stimuli/objects/115a.jpg,stimuli/objects/099b.jpg,target,dist2,dist1,lure,0,0,0,0,0,37,37,37,,,,,,,,,,,261.2907426999882,None,262.2910167000082,None,262.2910167000082,None,262.2910167000082,None,262.2910167000082,None,265.29303930001333,None,265.29303930001333,None,265.29303930001333,None,265.29303930001333,None,None,None,None,None,None,,,,,,,,,,ST01_112522,2022-11-25_13h08.52.782,Hippopolis_Updating,2021.1.4,59.913389200708764,
Camponello,stimuli/subj_files/ST01_112522_cityB.csv,./stimuli/hallstatt.jpg,./stimuli/street_plate2.png,PÁRNA UTCA,stimuli/scenes/037a.jpg,scene,1,stimuli/scenes/074a.jpg,stimuli/scenes/074b.jpg,stimuli/objects/100a.jpg,stimuli/objects/100b.jpg,stimuli/scenes/074a.jpg,lure,dist1,dist2,target,0,0,0,0,0,38,38,49,,,,,,,,,,,267.30783679999877,None,268.3084041000111,None,268.3084041000111,None,268.3084041000111,None,268.3084041000111,None,271.3145087999874,None,271.3145087999874,None,271.3145087999874,None,271.3145087999874,None,None,None,None,None,None,,,,,,,,,,ST01_112522,2022-11-25_13h08.52.782,Hippopolis_Updating,2021.1.4,59.913389200708764,
Camponello,stimuli/subj_files/ST01_112522_cityB.csv,./stimuli/hallstatt.jpg,./stimuli/street_plate2.png,KAKAS UTCA,stimuli/scenes/025a.jpg,scene,0,stimuli/scenes/025a.jpg,stimuli/scenes/025a.jpg,stimuli/objects/103b.jpg,stimuli/scenes/025b.jpg,stimuli/objects/103a.jpg,target,dist2,lure,dist1,0,0,0,0,0,39,39,24,,,,,,,,,,,273.32424970000284,None,274.3245950000128,None,274.3245950000128,None,274.3245950000128,None,274.3245950000128,None,277.32630519999657,None,277.32630519999657,None,277.32630519999657,None,277.32630519999657,None,None,None,None,None,None,,,,,,,,,,ST01_112522,2022-11-25_13h08.52.782,Hippopolis_Updating,2021.1.4,59.913389200708764,
Camponello,stimuli/subj_files/ST01_112522_cityB.csv,./stimuli/hallstatt.jpg,./stimuli/street_plate2.png,RIBIZLI UTCA,stimuli/scenes/106a.jpg,scene,0,stimuli/scenes/106a.jpg,stimuli/scenes/013b.jpg,stimuli/scenes/106a.jpg,stimuli/scenes/106b.jpg,stimuli/scenes/013a.jpg,dist2,target,lure,dist1,0,0,0,0,0,40,40,8,,,,,,,,,,,279.34016779999365,None,280.3407173999876,None,280.3407173999876,None,280.3407173999876,None,280.3407173999876,None,283.3486302999954,None,283.3486302999954,None,283.3486302999954,None,283.3486302999954,None,None,None,None,None,None,,,,,,,,,,ST01_112522,2022-11-25_13h08.52.782,Hippopolis_Updating,2021.1.4,59.913389200708764,
Camponello,stimuli/subj_files/ST01_112522_cityB.csv,./stimuli/hallstatt.jpg,./stimuli/street_plate2.png,LÉPCSŐ UTCA,stimuli/scenes/023a.jpg,scene,1,stimuli/scenes/120a.jpg,stimuli/scenes/089a.jpg,stimuli/scenes/120b.jpg,stimuli/scenes/120a.jpg,stimuli/scenes/089b.jpg,dist1,lure,target,dist2,0,0,0,0,0,41,41,0,,,,,,,,,,,285.3568646000058,None,286.3611741999921,None,286.3611741999921,None,286.3611741999921,None,286.3611741999921,None,289.3926530999888,None,289.3926530999888,None,289.3926530999888,None,289.3926530999888,None,None,None,None,None,None,,,,,,,,,,ST01_112522,2022-11-25_13h08.52.782,Hippopolis_Updating,2021.1.4,59.913389200708764,
Camponello,stimuli/subj_files/ST01_112522_cityB.csv,./stimuli/hallstatt.jpg,./stimuli/street_plate2.png,KOKTÉL UTCA,stimuli/objects/030a.jpg,object,0,stimuli/objects/030a.jpg,stimuli/objects/030a.jpg,stimuli/objects/030b.jpg,stimuli/scenes/081a.jpg,stimuli/scenes/081b.jpg,target,lure,dist1,dist2,0,0,0,0,0,42,42,35,,,,,,,,,,,291.37378640001407,None,292.37380400000256,None,292.37380400000256,None,292.37380400000256,None,292.37380400000256,None,295.37758450000547,None,295.37758450000547,None,295.37758450000547,None,295.37758450000547,None,None,None,None,None,None,,,,,,,,,,ST01_112522,2022-11-25_13h08.52.782,Hippopolis_Updating,2021.1.4,59.913389200708764,
Camponello,stimuli/subj_files/ST01_112522_cityB.csv,./stimuli/hallstatt.jpg,./stimuli/street_plate2.png,TOJÁS UTCA,stimuli/objects/003a.jpg,object,0,stimuli/objects/003a.jpg,stimuli/objects/087a.jpg,stimuli/objects/087b.jpg,stimuli/objects/003a.jpg,stimuli/objects/003b.jpg,dist1,dist2,target,lure,0,0,0,0,0,43,43,47,,,,,,,,,,,297.3906042999879,None,298.3945614999975,None,298.3945614999975,None,298.3945614999975,None,298.3945614999975,None,301.41379689998575,None,301.41379689998575,None,301.41379689998575,None,301.41379689998575,None,None,None,None,None,None,,,,,,,,,,ST01_112522,2022-11-25_13h08.52.782,Hippopolis_Updating,2021.1.4,59.913389200708764,
Camponello,stimuli/subj_files/ST01_112522_cityB.csv,./stimuli/hallstatt.jpg,./stimuli/street_plate2.png,LÁNDZSA UTCA,stimuli/scenes/036a.jpg,scene,0,stimuli/scenes/036a.jpg,stimuli/scenes/036b.jpg,stimuli/scenes/093b.jpg,stimuli/scenes/093a.jpg,stimuli/scenes/036a.jpg,lure,dist2,dist1,target,0,0,0,0,0,44,44,19,,,,,,,,,,,303.4068397000083,None,304.4070558999956,None,304.4070558999956,None,304.4070558999956,None,304.4070558999956,None,307.4104318000027,None,307.4104318000027,None,307.4104318000027,None,307.4104318000027,None,309.42410020000534,None,space,309.42410020000534,None,3.099539899994852,,,,,,,,,ST01_112522,2022-11-25_13h08.52.782,Hippopolis_Updating,2021.1.4,59.913389200708764,
Camponello,stimuli/subj_files/ST01_112522_cityB.csv,./stimuli/hallstatt.jpg,./stimuli/street_plate2.png,KÓKUSZ UTCA,stimuli/objects/076a.jpg,object,0,stimuli/objects/076a.jpg,stimuli/objects/090a.jpg,stimuli/objects/076a.jpg,stimuli/objects/076b.jpg,stimuli/objects/090b.jpg,dist1,target,lure,dist2,0,0,0,0,0,45,45,10,,,,,,,,,,,312.55692659999477,None,313.55671420000726,None,313.55671420000726,None,313.55671420000726,None,313.55671420000726,None,316.560928699997,None,316.560928699997,None,316.560928699997,None,316.560928699997,None,None,None,None,None,None,,,,,,,,,,ST01_112522,2022-11-25_13h08.52.782,Hippopolis_Updating,2021.1.4,59.913389200708764,
Camponello,stimuli/subj_files/ST01_112522_cityB.csv,./stimuli/hallstatt.jpg,./stimuli/street_plate2.png,FÜGE UTCA,stimuli/objects/110a.jpg,object,0,stimuli/objects/110a.jpg,stimuli/objects/110b.jpg,stimuli/scenes/036a.jpg,stimuli/scenes/036b.jpg,stimuli/objects/110a.jpg,lure,dist1,dist2,target,0,0,0,0,0,46,46,43,,,,,,,,,,,318.57329830000526,None,319.5774616000126,None,319.5774616000126,None,319.5774616000126,None,319.5774616000126,None,322.5912328000122,None,322.5912328000122,None,322.5912328000122,None,322.5912328000122,None,None,None,None,None,None,,,,,,,,,,ST01_112522,2022-11-25_13h08.52.782,Hippopolis_Updating,2021.1.4,59.913389200708764,
Camponello,stimuli/subj_files/ST01_112522_cityB.csv,./stimuli/hallstatt.jpg,./stimuli/street_plate2.png,FÉNYKÉP UTCA,stimuli/scenes/075a.jpg,scene,0,stimuli/scenes/075a.jpg,stimuli/scenes/075a.jpg,stimuli/scenes/047a.jpg,stimuli/scenes/075b.jpg,stimuli/scenes/047b.jpg,target,dist1,lure,dist2,0,0,0,0,0,47,47,52,,,,,,,,,,,324.59003590000793,None,325.59043069998734,None,325.59043069998734,None,325.59043069998734,None,325.59043069998734,None,328.5971586999949,None,328.5971586999949,None,328.5971586999949,None,328.5971586999949,None,None,None,None,None,None,,,,,,,,,,ST01_112522,2022-11-25_13h08.52.782,Hippopolis_Updating,2021.1.4,59.913389200708764,
Camponello,stimuli/subj_files/ST01_112522_cityB.csv,./stimuli/hallstatt.jpg,./stimuli/street_plate2.png,CSAVAR UTCA,stimuli/scenes/051a.jpg,scene,0,stimuli/scenes/051a.jpg,stimuli/scenes/051b.jpg,stimuli/scenes/051a.jpg,stimuli/scenes/008b.jpg,stimuli/scenes/008a.jpg,lure,target,dist2,dist1,0,0,0,0,0,48,48,18,,,,,,,,,,,330.60658610000974,None,331.6071424999973,None,331.6071424999973,None,331.6071424999973,None,331.6071424999973,None,334.60724809998646,None,334.60724809998646,None,334.60724809998646,None,334.60724809998646,None,None,None,None,None,None,,,,,,,,,,ST01_112522,2022-11-25_13h08.52.782,Hippopolis_Updating,2021.1.4,59.913389200708764,
Camponello,stimuli/subj_files/ST01_112522_cityB.csv,./stimuli/hallstatt.jpg,./stimuli/street_plate2.png,MÁRVÁNY UTCA,stimuli/scenes/081a.jpg,scene,0,stimuli/scenes/081a.jpg,stimuli/scenes/051a.jpg,stimuli/scenes/051b.jpg,stimuli/scenes/081b.jpg,stimuli/scenes/081a.jpg,dist1,dist2,lure,target,0,0,0,0,0,49,49,48,,,,,,,,,,,336.6059707000095,None,337.60654000000795,None,337.60654000000795,None,337.60654000000795,None,337.60654000000795,None,340.6061300000001,None,340.6061300000001,None,340.6061300000001,None,340.6061300000001,None,None,None,None,None,None,,,,,,,,,,ST01_112522,2022-11-25_13h08.52.782,Hippopolis_Updating,2021.1.4,59.913389200708764,
Camponello,stimuli/subj_files/ST01_112522_cityB.csv,./stimuli/hallstatt.jpg,./stimuli/street_plate2.png,SZŐLŐ UTCA,stimuli/objects/098a.jpg,object,0,stimuli/objects/098a.jpg,stimuli/scenes/038b.jpg,stimuli/scenes/038a.jpg,stimuli/objects/098b.jpg,stimuli/objects/098a.jpg,dist2,dist1,lure,target,0,0,0,0,0,50,50,57,,,,,,,,,,,342.60605179998674,None,343.6066877999983,None,343.6066877999983,None,343.6066877999983,None,343.6066877999983,None,346.62043340000673,None,346.62043340000673,None,346.62043340000673,None,346.62043340000673,None,None,None,None,None,None,,,,,,,,,,ST01_112522,2022-11-25_13h08.52.782,Hippopolis_Updating,2021.1.4,59.913389200708764,
Camponello,stimuli/subj_files/ST01_112522_cityB.csv,./stimuli/hallstatt.jpg,./stimuli/street_plate2.png,FÓKA UTCA,stimuli/objects/106a.jpg,object,0,stimuli/objects/106a.jpg,stimuli/objects/106a.jpg,stimuli/objects/051b.jpg,stimuli/objects/051a.jpg,stimuli/objects/106b.jpg,target,dist2,dist1,lure,0,0,0,0,0,51,51,50,,,,,,,,,,,348.6226437999867,None,349.62419549998594,None,349.62419549998594,None,349.62419549998594,None,349.62419549998594,None,352.62561799999094,None,352.62561799999094,None,352.62561799999094,None,352.62561799999094,None,None,None,None,None,None,,,,,,,,,,ST01_112522,2022-11-25_13h08.52.782,Hippopolis_Updating,2021.1.4,59.913389200708764,
Camponello,stimuli/subj_files/ST01_112522_cityB.csv,./stimuli/hallstatt.jpg,./stimuli/street_plate2.png,LEMEZ UTCA,stimuli/objects/120a.jpg,object,1,stimuli/objects/007a.jpg,stimuli/scenes/120a.jpg,stimuli/objects/007b.jpg,stimuli/scenes/120b.jpg,stimuli/objects/007a.jpg,dist1,lure,dist2,target,0,0,0,0,0,52,52,29,,,,,,,,,,,354.6391622000083,None,355.6397711999889,None,355.6397711999889,None,355.6397711999889,None,355.6397711999889,None,358.6564040000085,None,358.6564040000085,None,358.6564040000085,None,358.6564040000085,None,None,None,None,None,None,,,,,,,,,,ST01_112522,2022-11-25_13h08.52.782,Hippopolis_Updating,2021.1.4,59.913389200708764,
Camponello,stimuli/subj_files/ST01_112522_cityB.csv,./stimuli/hallstatt.jpg,./stimuli/street_plate2.png,LEGELŐ UTCA,stimuli/objects/034a.jpg,object,1,stimuli/objects/065a.jpg,stimuli/objects/067b.jpg,stimuli/objects/065a.jpg,stimuli/objects/067a.jpg,stimuli/objects/065b.jpg,dist2,target,dist1,lure,0,0,0,0,0,53,53,21,,,,,,,,,,,360.6555522000126,None,361.6561093000055,None,361.6561093000055,None,361.6561093000055,None,361.6561093000055,None,364.6651053999958,None,364.6651053999958,None,364.6651053999958,None,364.6651053999958,None,None,None,None,None,None,,,,,,,,,,ST01_112522,2022-11-25_13h08.52.782,Hippopolis_Updating,2021.1.4,59.913389200708764,
Camponello,stimuli/subj_files/ST01_112522_cityB.csv,./stimuli/hallstatt.jpg,./stimuli/street_plate2.png,MÁLNA UTCA,stimuli/objects/044a.jpg,object,0,stimuli/objects/044a.jpg,stimuli/objects/099b.jpg,stimuli/objects/044a.jpg,stimuli/objects/099a.jpg,stimuli/objects/044b.jpg,dist2,target,dist1,lure,0,0,0,0,0,54,54,68,,,,,,,,,,,366.67262540000957,None,367.67321479998645,None,367.67321479998645,None,367.67321479998645,None,367.67321479998645,None,370.6851105999958,None,370.6851105999958,None,370.6851105999958,None,370.6851105999958,None,None,None,None,None,None,,,,,,,,,,ST01_112522,2022-11-25_13h08.52.782,Hippopolis_Updating,2021.1.4,59.913389200708764,
Camponello,stimuli/subj_files/ST01_112522_cityB.csv,./stimuli/hallstatt.jpg,./stimuli/street_plate2.png,PÁFRÁNY UTCA,stimuli/scenes/035a.jpg,scene,0,stimuli/scenes/035a.jpg,stimuli/objects/075a.jpg,stimuli/scenes/035a.jpg,stimuli/objects/075b.jpg,stimuli/scenes/035b.jpg,dist1,target,dist2,lure,0,0,0,0,0,55,55,12,,,,,,,,,,,372.68915799999377,None,373.68950989999576,None,373.68950989999576,None,373.68950989999576,None,373.68950989999576,None,376.6982602000062,None,376.6982602000062,None,376.6982602000062,None,376.6982602000062,None,None,None,None,None,None,,,,,,,,,,ST01_112522,2022-11-25_13h08.52.782,Hippopolis_Updating,2021.1.4,59.913389200708764,
Camponello,stimuli/subj_files/ST01_112522_cityB.csv,./stimuli/hallstatt.jpg,./stimuli/street_plate2.png,POGÁCSA UTCA,stimuli/objects/018a.jpg,object,2,stimuli/scenes/041a.jpg,stimuli/scenes/079b.jpg,stimuli/scenes/041b.jpg,stimuli/scenes/079a.jpg,stimuli/scenes/041a.jpg,dist2,lure,dist1,target,0,0,0,0,0,56,56,56,,,,,,,,,,,378.70523190000677,None,379.706108399987,None,379.706108399987,None,379.706108399987,None,379.706108399987,None,382.7122095999948,None,382.7122095999948,None,382.7122095999948,None,382.7122095999948,None,None,None,None,None,None,,,,,,,,,,ST01_112522,2022-11-25_13h08.52.782,Hippopolis_Updating,2021.1.4,59.913389200708764,
Camponello,stimuli/subj_files/ST01_112522_cityB.csv,./stimuli/hallstatt.jpg,./stimuli/street_plate2.png,LIGET UTCA,stimuli/scenes/061a.jpg,scene,0,stimuli/scenes/061a.jpg,stimuli/scenes/061b.jpg,stimuli/objects/025a.jpg,stimuli/objects/025b.jpg,stimuli/scenes/061a.jpg,lure,dist1,dist2,target,0,0,0,0,0,57,57,25,,,,,,,,,,,384.7224135000142,None,385.7227247999981,None,385.7227247999981,None,385.7227247999981,None,385.7227247999981,None,388.7304873999965,None,388.7304873999965,None,388.7304873999965,None,388.7304873999965,None,None,None,None,None,None,,,,,,,,,,ST01_112522,2022-11-25_13h08.52.782,Hippopolis_Updating,2021.1.4,59.913389200708764,
Camponello,stimuli/subj_files/ST01_112522_cityB.csv,./stimuli/hallstatt.jpg,./stimuli/street_plate2.png,FÉSZEK UTCA,stimuli/objects/075a.jpg,object,0,stimuli/objects/075a.jpg,stimuli/objects/075b.jpg,stimuli/objects/075a.jpg,stimuli/scenes/019b.jpg,stimuli/scenes/019a.jpg,lure,target,dist2,dist1,0,0,0,0,0,58,58,72,,,,,,,,,,,390.7390007000067,None,391.74158969998825,None,391.74158969998825,None,391.74158969998825,None,391.74158969998825,None,394.77176649999456,None,394.77176649999456,None,394.77176649999456,None,394.77176649999456,None,None,None,None,None,None,,,,,,,,,,ST01_112522,2022-11-25_13h08.52.782,Hippopolis_Updating,2021.1.4,59.913389200708764,
Camponello,stimuli/subj_files/ST01_112522_cityB.csv,./stimuli/hallstatt.jpg,./stimuli/street_plate2.png,KULLANCS UTCA,stimuli/objects/040a.jpg,object,2,stimuli/scenes/109a.jpg,stimuli/objects/016a.jpg,stimuli/objects/016b.jpg,stimuli/scenes/109b.jpg,stimuli/scenes/109a.jpg,dist1,dist2,lure,target,0,0,0,0,0,59,59,67,,,,,,,,,,,396.75541189999785,None,397.75583730000653,None,397.75583730000653,None,397.75583730000653,None,397.75583730000653,None,400.7740974999906,None,400.7740974999906,None,400.7740974999906,None,400.7740974999906,None,None,None,None,None,None,,,,,,,,,,ST01_112522,2022-11-25_13h08.52.782,Hippopolis_Updating,2021.1.4,59.913389200708764,
Camponello,stimuli/subj_files/ST01_112522_cityB.csv,./stimuli/hallstatt.jpg,./stimuli/street_plate2.png,PALACK UTCA,stimuli/scenes/026a.jpg,scene,0,stimuli/scenes/026a.jpg,stimuli/scenes/026b.jpg,stimuli/objects/011a.jpg,stimuli/scenes/026a.jpg,stimuli/objects/011b.jpg,lure,dist1,target,dist2,0,0,0,0,0,60,60,26,,,,,,,,,,,402.771665200009,None,403.77240170000005,None,403.77240170000005,None,403.77240170000005,None,403.77240170000005,None,406.7729812999896,None,406.7729812999896,None,406.7729812999896,None,406.7729812999896,None,None,None,None,None,None,,,,,,,,,,ST01_112522,2022-11-25_13h08.52.782,Hippopolis_Updating,2021.1.4,59.913389200708764,
Camponello,stimuli/subj_files/ST01_112522_cityB.csv,./stimuli/hallstatt.jpg,./stimuli/street_plate2.png,POLIP UTCA,stimuli/scenes/099a.jpg,scene,0,stimuli/scenes/099a.jpg,stimuli/scenes/099b.jpg,stimuli/scenes/090b.jpg,stimuli/scenes/090a.jpg,stimuli/scenes/099a.jpg,lure,dist2,dist1,target,0,0,0,0,0,61,61,4,,,,,,,,,,,408.7714239000052,None,409.7715746999893,None,409.7715746999893,None,409.7715746999893,None,409.7715746999893,None,412.7752356000128,None,412.7752356000128,None,412.7752356000128,None,412.7752356000128,None,None,None,None,None,None,,,,,,,,,,ST01_112522,2022-11-25_13h08.52.782,Hippopolis_Updating,2021.1.4,59.913389200708764,
Camponello,stimuli/subj_files/ST01_112522_cityB.csv,./stimuli/hallstatt.jpg,./stimuli/street_plate2.png,VIHAR UTCA,stimuli/scenes/110a.jpg,scene,0,stimuli/scenes/110a.jpg,stimuli/scenes/110b.jpg,stimuli/scenes/049a.jpg,stimuli/scenes/110a.jpg,stimuli/scenes/049b.jpg,lure,dist1,target,dist2,0,0,0,0,0,62,62,20,,,,,,,,,,,414.7879941999854,None,415.7883029000077,None,415.7883029000077,None,415.7883029000077,None,415.7883029000077,None,418.80290909999167,None,418.80290909999167,None,418.80290909999167,None,418.80290909999167,None,None,None,None,None,None,,,,,,,,,,ST01_112522,2022-11-25_13h08.52.782,Hippopolis_Updating,2021.1.4,59.913389200708764,
Camponello,stimuli/subj_files/ST01_112522_cityB.csv,./stimuli/hallstatt.jpg,./stimuli/street_plate2.png,SZALVÉTA UTCA,stimuli/objects/011a.jpg,object,0,stimuli/objects/011a.jpg,stimuli/objects/013b.jpg,stimuli/objects/011a.jpg,stimuli/objects/011b.jpg,stimuli/objects/013a.jpg,dist2,target,lure,dist1,0,0,0,0,0,63,63,46,,,,,,,,,,,420.8046633999911,None,421.8051209000114,None,421.8051209000114,None,421.8051209000114,None,421.8051209000114,None,424.8112841999973,None,424.8112841999973,None,424.8112841999973,None,424.8112841999973,None,None,None,None,None,None,,,,,,,,,,ST01_112522,2022-11-25_13h08.52.782,Hippopolis_Updating,2021.1.4,59.913389200708764,
Camponello,stimuli/subj_files/ST01_112522_cityB.csv,./stimuli/hallstatt.jpg,./stimuli/street_plate2.png,RÁDIÓ UTCA,stimuli/scenes/024a.jpg,scene,2,stimuli/objects/105a.jpg,stimuli/scenes/030a.jpg,stimuli/scenes/030b.jpg,stimuli/objects/105b.jpg,stimuli/objects/105a.jpg,dist1,dist2,lure,target,0,0,0,0,0,64,64,78,,,,,,,,,,,426.82114240000374,None,427.82158479999634,None,427.82158479999634,None,427.82158479999634,None,427.82158479999634,None,430.82992950000335,None,430.82992950000335,None,430.82992950000335,None,430.82992950000335,None,None,None,None,None,None,,,,,,,,,,ST01_112522,2022-11-25_13h08.52.782,Hippopolis_Updating,2021.1.4,59.913389200708764,
Camponello,stimuli/subj_files/ST01_112522_cityB.csv,./stimuli/hallstatt.jpg,./stimuli/street_plate2.png,BOLYGÓ UTCA,stimuli/scenes/039a.jpg,scene,0,stimuli/scenes/039a.jpg,stimuli/scenes/025b.jpg,stimuli/scenes/039b.jpg,stimuli/scenes/039a.jpg,stimuli/scenes/025a.jpg,dist2,lure,target,dist1,0,0,0,0,0,65,65,79,,,,,,,,,,,432.8381126000022,None,433.8385413000069,None,433.8385413000069,None,433.8385413000069,None,433.8385413000069,None,436.8419894000108,None,436.8419894000108,None,436.8419894000108,None,436.8419894000108,None,None,None,None,None,None,,,,,,,,,,ST01_112522,2022-11-25_13h08.52.782,Hippopolis_Updating,2021.1.4,59.913389200708764,
Camponello,stimuli/subj_files/ST01_112522_cityB.csv,./stimuli/hallstatt.jpg,./stimuli/street_plate2.png,NARANCS UTCA,stimuli/scenes/044a.jpg,scene,2,stimuli/objects/016a.jpg,stimuli/scenes/017b.jpg,stimuli/objects/016b.jpg,stimuli/objects/016a.jpg,stimuli/scenes/017a.jpg,dist2,lure,target,dist1,0,0,0,0,0,66,66,7,,,,,,,,,,,438.8541230999981,None,439.86026489999495,None,439.86026489999495,None,439.86026489999495,None,439.86026489999495,None,442.8746129999927,None,442.8746129999927,None,442.8746129999927,None,442.8746129999927,None,None,None,None,None,None,,,,,,,,,,ST01_112522,2022-11-25_13h08.52.782,Hippopolis_Updating,2021.1.4,59.913389200708764,
Camponello,stimuli/subj_files/ST01_112522_cityB.csv,./stimuli/hallstatt.jpg,./stimuli/street_plate2.png,PÉKSÉG UTCA,stimuli/scenes/105a.jpg,scene,1,stimuli/scenes/089a.jpg,stimuli/scenes/089b.jpg,stimuli/scenes/074b.jpg,stimuli/scenes/074a.jpg,stimuli/scenes/089a.jpg,lure,dist2,dist1,target,0,0,0,0,0,67,67,77,,,,,,,,,,,444.87121750001097,None,445.87151269998867,None,445.87151269998867,None,445.87151269998867,None,445.87151269998867,None,448.88168459999724,None,448.88168459999724,None,448.88168459999724,None,448.88168459999724,None,None,None,None,None,None,,,,,,,,,,ST01_112522,2022-11-25_13h08.52.782,Hippopolis_Updating,2021.1.4,59.913389200708764,
Camponello,stimuli/subj_files/ST01_112522_cityB.csv,./stimuli/hallstatt.jpg,./stimuli/street_plate2.png,MARTINI UTCA,stimuli/scenes/043a.jpg,scene,0,stimuli/scenes/043a.jpg,stimuli/scenes/043b.jpg,stimuli/objects/044a.jpg,stimuli/scenes/043a.jpg,stimuli/objects/044b.jpg,lure,dist1,target,dist2,0,0,0,0,0,68,68,33,,,,,,,,,,,450.8879673999909,None,451.8876997999905,None,451.8876997999905,None,451.8876997999905,None,451.8876997999905,None,454.8913167999999,None,454.8913167999999,None,454.8913167999999,None,454.8913167999999,None,None,None,None,None,None,,,,,,,,,,ST01_112522,2022-11-25_13h08.52.782,Hippopolis_Updating,2021.1.4,59.913389200708764,
Camponello,stimuli/subj_files/ST01_112522_cityB.csv,./stimuli/hallstatt.jpg,./stimuli/street_plate2.png,MOCSÁR UTCA,stimuli/scenes/104a.jpg,scene,0,stimuli/scenes/104a.jpg,stimuli/objects/076a.jpg,stimuli/objects/076b.jpg,stimuli/scenes/104b.jpg,stimuli/scenes/104a.jpg,dist1,dist2,lure,target,0,0,0,0,0,69,69,5,,,,,,,,,,,456.90446079999674,None,457.90417669998715,None,457.90417669998715,None,457.90417669998715,None,457.90417669998715,None,460.9074380999955,None,460.9074380999955,None,460.9074380999955,None,460.9074380999955,None,None,None,None,None,None,,,,,,,,,,ST01_112522,2022-11-25_13h08.52.782,Hippopolis_Updating,2021.1.4,59.913389200708764,
Camponello,stimuli/subj_files/ST01_112522_cityB.csv,./stimuli/hallstatt.jpg,./stimuli/street_plate2.png,HENTES UTCA,stimuli/objects/103a.jpg,object,0,stimuli/objects/103a.jpg,stimuli/objects/106a.jpg,stimuli/objects/106b.jpg,stimuli/objects/103b.jpg,stimuli/objects/103a.jpg,dist1,dist2,lure,target,0,0,0,0,0,70,70,73,,,,,,,,,,,462.92029459998594,None,463.92065290000755,None,463.92065290000755,None,463.92065290000755,None,463.92065290000755,None,466.93414440000197,None,466.93414440000197,None,466.93414440000197,None,466.93414440000197,None,None,None,None,None,None,,,,,,,,,,ST01_112522,2022-11-25_13h08.52.782,Hippopolis_Updating,2021.1.4,59.913389200708764,
Camponello,stimuli/subj_files/ST01_112522_cityB.csv,./stimuli/hallstatt.jpg,./stimuli/street_plate2.png,KESZTYŰ UTCA,stimuli/objects/118a.jpg,object,2,stimuli/scenes/017a.jpg,stimuli/scenes/017a.jpg,stimuli/scenes/017b.jpg,stimuli/objects/058b.jpg,stimuli/objects/058a.jpg,target,lure,dist2,dist1,0,0,0,0,0,71,71,36,,,,,,,,,,,468.93701580000925,None,469.94056859999546,None,469.94056859999546,None,469.94056859999546,None,469.94056859999546,None,472.967049400002,None,472.967049400002,None,472.967049400002,None,472.967049400002,None,None,None,None,None,None,,,,,,,,,,ST01_112522,2022-11-25_13h08.52.782,Hippopolis_Updating,2021.1.4,59.913389200708764,
Camponello,stimuli/subj_files/ST01_112522_cityB.csv,./stimuli/hallstatt.jpg,./stimuli/street_plate2.png,HÁRFA UTCA,stimuli/objects/051a.jpg,object,0,stimuli/objects/051a.jpg,stimuli/objects/051b.jpg,stimuli/objects/051a.jpg,stimuli/objects/093a.jpg,stimuli/objects/093b.jpg,lure,target,dist1,dist2,0,0,0,0,0,72,72,45,,,,,,,,,,,474.9542402999941,None,475.9545408000122,None,475.9545408000122,None,475.9545408000122,None,475.9545408000122,None,478.95442240001285,None,478.95442240001285,None,478.95442240001285,None,478.95442240001285,None,None,None,None,None,None,,,,,,,,,,ST01_112522,2022-11-25_13h08.52.782,Hippopolis_Updating,2021.1.4,59.913389200708764,
Camponello,stimuli/subj_files/ST01_112522_cityB.csv,./stimuli/hallstatt.jpg,./stimuli/street_plate2.png,FOGAS UTCA,stimuli/scenes/019a.jpg,scene,0,stimuli/scenes/019a.jpg,stimuli/scenes/019b.jpg,stimuli/objects/098a.jpg,stimuli/objects/098b.jpg,stimuli/scenes/019a.jpg,lure,dist1,dist2,target,0,0,0,0,0,73,73,23,,,,,,,,,,,480.95328449999215,None,481.95434840000235,None,481.95434840000235,None,481.95434840000235,None,481.95434840000235,None,484.9627846000076,None,484.9627846000076,None,484.9627846000076,None,484.9627846000076,None,None,None,None,None,None,,,,,,,,,,ST01_112522,2022-11-25_13h08.52.782,Hippopolis_Updating,2021.1.4,59.913389200708764,
Camponello,stimuli/subj_files/ST01_112522_cityB.csv,./stimuli/hallstatt.jpg,./stimuli/street_plate2.png,OLDAL UTCA,stimuli/objects/107a.jpg,object,2,stimuli/scenes/079a.jpg,stimuli/scenes/079a.jpg,stimuli/scenes/079b.jpg,stimuli/objects/078b.jpg,stimuli/objects/078a.jpg,target,lure,dist2,dist1,0,0,0,0,0,74,74,40,,,,,,,,,,,486.97009499999695,None,487.9710873999866,None,487.9710873999866,None,487.9710873999866,None,487.9710873999866,None,490.9771397000004,None,490.9771397000004,None,490.9771397000004,None,490.9771397000004,None,None,None,None,None,None,,,,,,,,,,ST01_112522,2022-11-25_13h08.52.782,Hippopolis_Updating,2021.1.4,59.913389200708764,
Camponello,stimuli/subj_files/ST01_112522_cityB.csv,./stimuli/hallstatt.jpg,./stimuli/street_plate2.png,GYŰRŰ UTCA,stimuli/objects/025a.jpg,object,0,stimuli/objects/025a.jpg,stimuli/objects/025b.jpg,stimuli/objects/062a.jpg,stimuli/objects/025a.jpg,stimuli/objects/062b.jpg,lure,dist1,target,dist2,0,0,0,0,0,75,75,34,,,,,,,,,,,492.9871045000036,None,493.9870551000058,None,493.9870551000058,None,493.9870551000058,None,493.9870551000058,None,496.99866509999265,None,496.99866509999265,None,496.99866509999265,None,496.99866509999265,None,None,None,None,None,None,,,,,,,,,,ST01_112522,2022-11-25_13h08.52.782,Hippopolis_Updating,2021.1.4,59.913389200708764,
Camponello,stimuli/subj_files/ST01_112522_cityB.csv,./stimuli/hallstatt.jpg,./stimuli/street_plate2.png,TERÍTŐ UTCA,stimuli/objects/070a.jpg,object,0,stimuli/objects/070a.jpg,stimuli/objects/070b.jpg,stimuli/objects/070a.jpg,stimuli/objects/030a.jpg,stimuli/objects/030b.jpg,lure,target,dist1,dist2,0,0,0,0,0,76,76,64,,,,,,,,,,,499.00324869999895,None,500.00869389998843,None,500.00869389998843,None,500.00869389998843,None,500.00869389998843,None,503.03614139999263,None,503.03614139999263,None,503.03614139999263,None,503.03614139999263,None,None,None,None,None,None,,,,,,,,,,ST01_112522,2022-11-25_13h08.52.782,Hippopolis_Updating,2021.1.4,59.913389200708764,
Camponello,stimuli/subj_files/ST01_112522_cityB.csv,./stimuli/hallstatt.jpg,./stimuli/street_plate2.png,SZILVA UTCA,stimuli/scenes/090a.jpg,scene,0,stimuli/scenes/090a.jpg,stimuli/scenes/065a.jpg,stimuli/scenes/065b.jpg,stimuli/scenes/090a.jpg,stimuli/scenes/090b.jpg,dist1,dist2,target,lure,0,0,0,0,0,77,77,16,,,,,,,,,,,505.0199022000015,None,506.0199360999977,None,506.0199360999977,None,506.0199360999977,None,506.0199360999977,None,509.0240315000119,None,509.0240315000119,None,509.0240315000119,None,509.0240315000119,None,None,None,None,None,None,,,,,,,,,,ST01_112522,2022-11-25_13h08.52.782,Hippopolis_Updating,2021.1.4,59.913389200708764,
Camponello,stimuli/subj_files/ST01_112522_cityB.csv,./stimuli/hallstatt.jpg,./stimuli/street_plate2.png,HERNYÓ UTCA,stimuli/objects/109a.jpg,object,0,stimuli/objects/109a.jpg,stimuli/scenes/061b.jpg,stimuli/objects/109b.jpg,stimuli/scenes/061a.jpg,stimuli/objects/109a.jpg,dist2,lure,dist1,target,0,0,0,0,0,78,78,31,,,,,,,,,,,511.03695820001303,None,512.0370641000045,None,512.0370641000045,None,512.0370641000045,None,512.0370641000045,None,515.0437781999935,None,515.0437781999935,None,515.0437781999935,None,515.0437781999935,None,None,None,None,None,None,,,,,,,,,,ST01_112522,2022-11-25_13h08.52.782,Hippopolis_Updating,2021.1.4,59.913389200708764,
Camponello,stimuli/subj_files/ST01_112522_cityB.csv,./stimuli/hallstatt.jpg,./stimuli/street_plate2.png,KÖNYVTÁR UTCA,stimuli/scenes/008a.jpg,scene,0,stimuli/scenes/008a.jpg,stimuli/scenes/106b.jpg,stimuli/scenes/106a.jpg,stimuli/scenes/008a.jpg,stimuli/scenes/008b.jpg,dist2,dist1,target,lure,0,0,0,0,0,79,79,51,,,,,,,,,,,517.0532374999893,None,518.0534444999939,None,518.0534444999939,None,518.0534444999939,None,518.0534444999939,None,521.0570382000005,None,521.0570382000005,None,521.0570382000005,None,521.0570382000005,None,None,None,None,None,None,,,,,,,,,,ST01_112522,2022-11-25_13h08.52.782,Hippopolis_Updating,2021.1.4,59.913389200708764,
Hippopolis,stimuli/subj_files/ST01_112522_cityA.csv,./stimuli/seattle.jpg,./stimuli/street_plate1.png,KARTON UTCA,stimuli/objects/074a.jpg,object,1,stimuli/objects/108a.jpg,stimuli/scenes/086b.jpg,stimuli/objects/108a.jpg,stimuli/objects/108b.jpg,stimuli/scenes/086a.jpg,dist2,target,lure,dist1,0,1,1,1,0,0,0,58,,,,,,,539.6941921999969,None,539.6941921999969,None,542.6790982999955,None,543.6800577999966,None,543.6800577999966,None,543.6800577999966,None,543.6800577999966,None,546.6783680999943,None,546.6783680999943,None,546.6783680999943,None,546.6783680999943,None,None,None,None,None,None,,523.0703574999934,None,space,16.561384600005113,523.0703574999934,None,,,ST01_112522,2022-11-25_13h08.52.782,Hippopolis_Updating,2021.1.4,59.913389200708764,
Hippopolis,stimuli/subj_files/ST01_112522_cityA.csv,./stimuli/seattle.jpg,./stimuli/street_plate1.png,ECSET UTCA,stimuli/objects/101a.jpg,object,2,stimuli/scenes/059a.jpg,stimuli/scenes/059b.jpg,stimuli/scenes/059a.jpg,stimuli/objects/116a.jpg,stimuli/objects/116b.jpg,lure,target,dist1,dist2,0,1,1,1,0,1,1,40,,,,,,,,,,,548.6694283999968,None,549.6697650999995,None,549.6697650999995,None,549.6697650999995,None,549.6697650999995,None,552.6778684000019,None,552.6778684000019,None,552.6778684000019,None,552.6778684000019,None,None,None,None,None,None,,,,,,,,,,ST01_112522,2022-11-25_13h08.52.782,Hippopolis_Updating,2021.1.4,59.913389200708764,
Hippopolis,stimuli/subj_files/ST01_112522_cityA.csv,./stimuli/seattle.jpg,./stimuli/street_plate1.png,TÉRKÉP UTCA,stimuli/objects/026a.jpg,object,0,stimuli/objects/026a.jpg,stimuli/objects/026b.jpg,stimuli/objects/085b.jpg,stimuli/objects/085a.jpg,stimuli/objects/026a.jpg,lure,dist2,dist1,target,0,1,1,1,0,2,2,27,,,,,,,,,,,554.685607499996,None,555.6859470999916,None,555.6859470999916,None,555.6859470999916,None,555.6859470999916,None,558.6962858999905,None,558.6962858999905,None,558.6962858999905,None,558.6962858999905,None,None,None,None,None,None,,,,,,,,,,ST01_112522,2022-11-25_13h08.52.782,Hippopolis_Updating,2021.1.4,59.913389200708764,
Hippopolis,stimuli/subj_files/ST01_112522_cityA.csv,./stimuli/seattle.jpg,./stimuli/street_plate1.png,TELEFON UTCA,stimuli/objects/055a.jpg,object,2,stimuli/scenes/029a.jpg,stimuli/scenes/029b.jpg,stimuli/scenes/029a.jpg,stimuli/scenes/020a.jpg,stimuli/scenes/020b.jpg,lure,target,dist1,dist2,0,1,1,1,0,3,3,28,,,,,,,,,,,560.702621000004,None,561.7046292999876,None,561.7046292999876,None,561.7046292999876,None,561.7046292999876,None,564.7263412000029,None,564.7263412000029,None,564.7263412000029,None,564.7263412000029,None,None,None,None,None,None,,,,,,,,,,ST01_112522,2022-11-25_13h08.52.782,Hippopolis_Updating,2021.1.4,59.913389200708764,
Hippopolis,stimuli/subj_files/ST01_112522_cityA.csv,./stimuli/seattle.jpg,./stimuli/street_plate1.png,BOHÓC UTCA,stimuli/objects/022a.jpg,object,0,stimuli/objects/022a.jpg,stimuli/scenes/076a.jpg,stimuli/objects/022b.jpg,stimuli/scenes/076b.jpg,stimuli/objects/022a.jpg,dist1,lure,dist2,target,0,1,1,1,0,4,4,23,,,,,,,,,,,566.7191767999902,None,567.7198310999956,None,567.7198310999956,None,567.7198310999956,None,567.7198310999956,None,570.7245941000001,None,570.7245941000001,None,570.7245941000001,None,570.7245941000001,None,None,None,None,None,None,,,,,,,,,,ST01_112522,2022-11-25_13h08.52.782,Hippopolis_Updating,2021.1.4,59.913389200708764,
Hippopolis,stimuli/subj_files/ST01_112522_cityA.csv,./stimuli/seattle.jpg,./stimuli/street_plate1.png,SZIKLA UTCA,stimuli/objects/010a.jpg,object,2,stimuli/scenes/107a.jpg,stimuli/scenes/107a.jpg,stimuli/scenes/107b.jpg,stimuli/objects/112a.jpg,stimuli/objects/112b.jpg,target,lure,dist1,dist2,0,1,1,1,0,5,5,74,,,,,,,,,,,572.7356561000051,None,573.7358848000003,None,573.7358848000003,None,573.7358848000003,None,573.7358848000003,None,576.7462582000007,None,576.7462582000007,None,576.7462582000007,None,576.7462582000007,None,None,None,None,None,None,,,,,,,,,,ST01_112522,2022-11-25_13h08.52.782,Hippopolis_Updating,2021.1.4,59.913389200708764,
Hippopolis,stimuli/subj_files/ST01_112522_cityA.csv,./stimuli/seattle.jpg,./stimuli/street_plate1.png,KIRAKÓ UTCA,stimuli/objects/009a.jpg,object,2,stimuli/scenes/068a.jpg,stimuli/scenes/004a.jpg,stimuli/scenes/068a.jpg,stimuli/scenes/004b.jpg,stimuli/scenes/068b.jpg,dist1,target,dist2,lure,0,1,1,1,0,6,6,5,,,,,,,,,,,578.7517351999995,None,579.7520498000085,None,579.7520498000085,None,579.7520498000085,None,579.7520498000085,None,582.7601484000043,None,582.7601484000043,None,582.7601484000043,None,582.7601484000043,None,None,None,None,None,None,,,,,,,,,,ST01_112522,2022-11-25_13h08.52.782,Hippopolis_Updating,2021.1.4,59.913389200708764,
Hippopolis,stimuli/subj_files/ST01_112522_cityA.csv,./stimuli/seattle.jpg,./stimuli/street_plate1.png,OROSZLÁN UTCA,stimuli/scenes/072a.jpg,scene,0,stimuli/scenes/072a.jpg,stimuli/scenes/072a.jpg,stimuli/objects/086a.jpg,stimuli/objects/086b.jpg,stimuli/scenes/072b.jpg,target,dist1,dist2,lure,0,1,1,1,0,7,7,61,,,,,,,,,,,584.7684768000036,None,585.7687828000053,None,585.7687828000053,None,585.7687828000053,None,585.7687828000053,None,588.7714411999914,None,588.7714411999914,None,588.7714411999914,None,588.7714411999914,None,None,None,None,None,None,,,,,,,,,,ST01_112522,2022-11-25_13h08.52.782,Hippopolis_Updating,2021.1.4,59.913389200708764,
Hippopolis,stimuli/subj_files/ST01_112522_cityA.csv,./stimuli/seattle.jpg,./stimuli/street_plate1.png,SALÁTA UTCA,stimuli/objects/027a.jpg,object,1,stimuli/objects/059a.jpg,stimuli/objects/059a.jpg,stimuli/scenes/098a.jpg,stimuli/scenes/098b.jpg,stimuli/objects/059b.jpg,target,dist1,dist2,lure,0,1,1,1,0,8,8,62,,,,,,,,,,,590.7853303999873,None,591.7856897999882,None,591.7856897999882,None,591.7856897999882,None,591.7856897999882,None,594.8028693000088,None,594.8028693000088,None,594.8028693000088,None,594.8028693000088,None,None,None,None,None,None,,,,,,,,,,ST01_112522,2022-11-25_13h08.52.782,Hippopolis_Updating,2021.1.4,59.913389200708764,
Hippopolis,stimuli/subj_files/ST01_112522_cityA.csv,./stimuli/seattle.jpg,./stimuli/street_plate1.png,MANDARIN UTCA,stimuli/scenes/116a.jpg,scene,1,stimuli/scenes/056a.jpg,stimuli/scenes/056a.jpg,stimuli/scenes/056b.jpg,stimuli/scenes/113a.jpg,stimuli/scenes/113b.jpg,target,lure,dist1,dist2,0,1,1,1,0,9,9,51,,,,,,,,,,,596.8014183999912,None,597.8026215000136,None,597.8026215000136,None,597.8026215000136,None,597.8026215000136,None,600.810101799987,None,600.810101799987,None,600.810101799987,None,600.810101799987,None,None,None,None,None,None,,,,,,,,,,ST01_112522,2022-11-25_13h08.52.782,Hippopolis_Updating,2021.1.4,59.913389200708764,
Hippopolis,stimuli/subj_files/ST01_112522_cityA.csv,./stimuli/seattle.jpg,./stimuli/street_plate1.png,MUSTÁR UTCA,stimuli/objects/020a.jpg,object,2,stimuli/scenes/033a.jpg,stimuli/scenes/069a.jpg,stimuli/scenes/033b.jpg,stimuli/scenes/069b.jpg,stimuli/scenes/033a.jpg,dist1,lure,dist2,target,0,1,1,1,0,10,10,20,,,,,,,,,,,602.817930499994,None,603.8187555999903,None,603.8187555999903,None,603.8187555999903,None,603.8187555999903,None,606.8280827999988,None,606.8280827999988,None,606.8280827999988,None,606.8280827999988,None,None,None,None,None,None,,,,,,,,,,ST01_112522,2022-11-25_13h08.52.782,Hippopolis_Updating,2021.1.4,59.913389200708764,
Hippopolis,stimuli/subj_files/ST01_112522_cityA.csv,./stimuli/seattle.jpg,./stimuli/street_plate1.png,SUGÁR UTCA,stimuli/objects/096a.jpg,object,0,stimuli/objects/096a.jpg,stimuli/scenes/063a.jpg,stimuli/scenes/063b.jpg,stimuli/objects/096b.jpg,stimuli/objects/096a.jpg,dist1,dist2,lure,target,0,1,1,1,0,11,11,70,,,,,,,,,,,608.8349948000105,None,609.8351292999869,None,609.8351292999869,None,609.8351292999869,None,609.8351292999869,None,612.8477987000078,None,612.8477987000078,None,612.8477987000078,None,612.8477987000078,None,None,None,None,None,None,,,,,,,,,,ST01_112522,2022-11-25_13h08.52.782,Hippopolis_Updating,2021.1.4,59.913389200708764,
Hippopolis,stimuli/subj_files/ST01_112522_cityA.csv,./stimuli/seattle.jpg,./stimuli/street_plate1.png,KANÁL UTCA,stimuli/objects/017a.jpg,object,2,stimuli/scenes/054a.jpg,stimuli/scenes/002a.jpg,stimuli/scenes/054a.jpg,stimuli/scenes/002b.jpg,stimuli/scenes/054b.jpg,dist1,target,dist2,lure,0,1,1,1,0,12,12,12,,,,,,,,,,,614.8510951999924,None,615.8550634999992,None,615.8550634999992,None,615.8550634999992,None,615.8550634999992,None,618.877636899997,None,618.877636899997,None,618.877636899997,None,618.877636899997,None,None,None,None,None,None,,,,,,,,,,ST01_112522,2022-11-25_13h08.52.782,Hippopolis_Updating,2021.1.4,59.913389200708764,
Hippopolis,stimuli/subj_files/ST01_112522_cityA.csv,./stimuli/seattle.jpg,./stimuli/street_plate1.png,ÁLOM UTCA,stimuli/scenes/031a.jpg,scene,1,stimuli/scenes/032a.jpg,stimuli/scenes/032a.jpg,stimuli/scenes/111b.jpg,stimuli/scenes/111a.jpg,stimuli/scenes/032b.jpg,target,dist2,dist1,lure,0,1,1,1,0,13,13,44,,,,,,,,,,,620.8676024999877,None,621.8682142999896,None,621.8682142999896,None,621.8682142999896,None,621.8682142999896,None,624.8747097000014,None,624.8747097000014,None,624.8747097000014,None,624.8747097000014,None,None,None,None,None,None,,,,,,,,,,ST01_112522,2022-11-25_13h08.52.782,Hippopolis_Updating,2021.1.4,59.913389200708764,
Hippopolis,stimuli/subj_files/ST01_112522_cityA.csv,./stimuli/seattle.jpg,./stimuli/street_plate1.png,TELEP UTCA,stimuli/scenes/057a.jpg,scene,0,stimuli/scenes/057a.jpg,stimuli/objects/042b.jpg,stimuli/scenes/057a.jpg,stimuli/objects/042a.jpg,stimuli/scenes/057b.jpg,dist2,target,dist1,lure,0,1,1,1,0,14,14,76,,,,,,,,,,,626.8842929000093,None,627.8847032999911,None,627.8847032999911,None,627.8847032999911,None,627.8847032999911,None,630.8883184999868,None,630.8883184999868,None,630.8883184999868,None,630.8883184999868,None,None,None,None,None,None,,,,,,,,,,ST01_112522,2022-11-25_13h08.52.782,Hippopolis_Updating,2021.1.4,59.913389200708764,
Hippopolis,stimuli/subj_files/ST01_112522_cityA.csv,./stimuli/seattle.jpg,./stimuli/street_plate1.png,TORONY UTCA,stimuli/scenes/040a.jpg,scene,0,stimuli/scenes/040a.jpg,stimuli/scenes/040b.jpg,stimuli/objects/035b.jpg,stimuli/objects/035a.jpg,stimuli/scenes/040a.jpg,lure,dist2,dist1,target,0,1,1,1,0,15,15,2,,,,,,,,,,,632.9008885000076,None,633.9013855000085,None,633.9013855000085,None,633.9013855000085,None,633.9013855000085,None,636.9055820000067,None,636.9055820000067,None,636.9055820000067,None,636.9055820000067,None,None,None,None,None,None,,,,,,,,,,ST01_112522,2022-11-25_13h08.52.782,Hippopolis_Updating,2021.1.4,59.913389200708764,
Hippopolis,stimuli/subj_files/ST01_112522_cityA.csv,./stimuli/seattle.jpg,./stimuli/street_plate1.png,TIGRIS UTCA,stimuli/objects/035a.jpg,object,0,stimuli/objects/035a.jpg,stimuli/objects/064b.jpg,stimuli/objects/064a.jpg,stimuli/objects/035b.jpg,stimuli/objects/035a.jpg,dist2,dist1,lure,target,0,1,1,1,0,16,16,6,,,,,,,,,,,638.9171785000071,None,639.918187800009,None,639.918187800009,None,639.918187800009,None,639.918187800009,None,642.9304037000111,None,642.9304037000111,None,642.9304037000111,None,642.9304037000111,None,None,None,None,None,None,,,,,,,,,,ST01_112522,2022-11-25_13h08.52.782,Hippopolis_Updating,2021.1.4,59.913389200708764,
Hippopolis,stimuli/subj_files/ST01_112522_cityA.csv,./stimuli/seattle.jpg,./stimuli/street_plate1.png,BAGOLY UTCA,stimuli/scenes/076a.jpg,scene,0,stimuli/scenes/076a.jpg,stimuli/scenes/014a.jpg,stimuli/scenes/014b.jpg,stimuli/scenes/076a.jpg,stimuli/scenes/076b.jpg,dist1,dist2,target,lure,0,1,1,1,0,17,17,0,,,,,,,,,,,644.9344240000064,None,645.9347090999945,None,645.9347090999945,None,645.9347090999945,None,645.9347090999945,None,648.9350187999953,None,648.9350187999953,None,648.9350187999953,None,648.9350187999953,None,None,None,None,None,None,,,,,,,,,,ST01_112522,2022-11-25_13h08.52.782,Hippopolis_Updating,2021.1.4,59.913389200708764,
Hippopolis,stimuli/subj_files/ST01_112522_cityA.csv,./stimuli/seattle.jpg,./stimuli/street_plate1.png,SÜTEMÉNY UTCA,stimuli/objects/119a.jpg,object,1,stimuli/objects/019a.jpg,stimuli/scenes/103b.jpg,stimuli/objects/019a.jpg,stimuli/objects/019b.jpg,stimuli/scenes/103a.jpg,dist2,target,lure,dist1,0,1,1,1,0,18,18,54,,,,,,,,,,,650.9342578999931,None,651.934881299996,None,651.934881299996,None,651.934881299996,None,651.934881299996,None,654.9531998999882,None,654.9531998999882,None,654.9531998999882,None,654.9531998999882,None,None,None,None,None,None,,,,,,,,,,ST01_112522,2022-11-25_13h08.52.782,Hippopolis_Updating,2021.1.4,59.913389200708764,
Hippopolis,stimuli/subj_files/ST01_112522_cityA.csv,./stimuli/seattle.jpg,./stimuli/street_plate1.png,LABDA UTCA,stimuli/scenes/046a.jpg,scene,2,stimuli/objects/028a.jpg,stimuli/scenes/068b.jpg,stimuli/objects/028b.jpg,stimuli/objects/028a.jpg,stimuli/scenes/068a.jpg,dist2,lure,target,dist1,0,1,1,1,0,19,19,9,,,,,,,,,,,656.9502669000067,None,657.9503235000011,None,657.9503235000011,None,657.9503235000011,None,657.9503235000011,None,660.9612572999904,None,660.9612572999904,None,660.9612572999904,None,660.9612572999904,None,None,None,None,None,None,,,,,,,,,,ST01_112522,2022-11-25_13h08.52.782,Hippopolis_Updating,2021.1.4,59.913389200708764,
Hippopolis,stimuli/subj_files/ST01_112522_cityA.csv,./stimuli/seattle.jpg,./stimuli/street_plate1.png,FIÓK UTCA,stimuli/objects/064a.jpg,object,0,stimuli/objects/064a.jpg,stimuli/objects/064b.jpg,stimuli/scenes/112a.jpg,stimuli/scenes/112b.jpg,stimuli/objects/064a.jpg,lure,dist1,dist2,target,0,1,1,1,0,20,20,45,,,,,,,,,,,662.967373499996,None,663.9680053000047,None,663.9680053000047,None,663.9680053000047,None,663.9680053000047,None,666.9712261999957,None,666.9712261999957,None,666.9712261999957,None,666.9712261999957,None,None,None,None,None,None,,,,,,,,,,ST01_112522,2022-11-25_13h08.52.782,Hippopolis_Updating,2021.1.4,59.913389200708764,
Hippopolis,stimuli/subj_files/ST01_112522_cityA.csv,./stimuli/seattle.jpg,./stimuli/street_plate1.png,BANÁN UTCA,stimuli/objects/015a.jpg,object,1,stimuli/objects/049a.jpg,stimuli/objects/019b.jpg,stimuli/objects/049b.jpg,stimuli/objects/019a.jpg,stimuli/objects/049a.jpg,dist2,lure,dist1,target,0,1,1,1,0,21,21,4,,,,,,,,,,,668.9834948999924,None,669.984380400012,None,669.984380400012,None,669.984380400012,None,669.984380400012,None,672.9952734000108,None,672.9952734000108,None,672.9952734000108,None,672.9952734000108,None,None,None,None,None,None,,,,,,,,,,ST01_112522,2022-11-25_13h08.52.782,Hippopolis_Updating,2021.1.4,59.913389200708764,
Hippopolis,stimuli/subj_files/ST01_112522_cityA.csv,./stimuli/seattle.jpg,./stimuli/street_plate1.png,FEJSZE UTCA,stimuli/scenes/003a.jpg,scene,2,stimuli/objects/001a.jpg,stimuli/scenes/107b.jpg,stimuli/objects/001a.jpg,stimuli/scenes/107a.jpg,stimuli/objects/001b.jpg,dist2,target,dist1,lure,0,1,1,1,0,22,22,60,,,,,,,,,,,675.000471700012,None,676.0011184999894,None,676.0011184999894,None,676.0011184999894,None,676.0011184999894,None,679.0167985000007,None,679.0167985000007,None,679.0167985000007,None,679.0167985000007,None,None,None,None,None,None,,,,,,,,,,ST01_112522,2022-11-25_13h08.52.782,Hippopolis_Updating,2021.1.4,59.913389200708764,
Hippopolis,stimuli/subj_files/ST01_112522_cityA.csv,./stimuli/seattle.jpg,./stimuli/street_plate1.png,VÖDÖR UTCA,stimuli/objects/063a.jpg,object,1,stimuli/objects/073a.jpg,stimuli/objects/073a.jpg,stimuli/objects/073b.jpg,stimuli/objects/089b.jpg,stimuli/objects/089a.jpg,target,lure,dist2,dist1,0,1,1,1,0,23,23,15,,,,,,,,,,,681.0163816999993,None,682.016919799993,None,682.016919799993,None,682.016919799993,None,682.016919799993,None,685.0316752000072,None,685.0316752000072,None,685.0316752000072,None,685.0316752000072,None,None,None,None,None,None,,,,,,,,,,ST01_112522,2022-11-25_13h08.52.782,Hippopolis_Updating,2021.1.4,59.913389200708764,
Hippopolis,stimuli/subj_files/ST01_112522_cityA.csv,./stimuli/seattle.jpg,./stimuli/street_plate1.png,ZSEMLE UTCA,stimuli/scenes/077a.jpg,scene,2,stimuli/objects/112a.jpg,stimuli/objects/079b.jpg,stimuli/objects/112a.jpg,stimuli/objects/079a.jpg,stimuli/objects/112b.jpg,dist2,target,dist1,lure,0,1,1,1,0,24,24,39,,,,,,,,,,,687.0330792999885,None,688.0335910999856,None,688.0335910999856,None,688.0335910999856,None,688.0335910999856,None,691.0446954999934,None,691.0446954999934,None,691.0446954999934,None,691.0446954999934,None,None,None,None,None,None,,,,,,,,,,ST01_112522,2022-11-25_13h08.52.782,Hippopolis_Updating,2021.1.4,59.913389200708764,
Hippopolis,stimuli/subj_files/ST01_112522_cityA.csv,./stimuli/seattle.jpg,./stimuli/street_plate1.png,FÜZET UTCA,stimuli/objects/043a.jpg,object,0,stimuli/objects/043a.jpg,stimuli/scenes/115a.jpg,stimuli/objects/043b.jpg,stimuli/objects/043a.jpg,stimuli/scenes/115b.jpg,dist1,lure,target,dist2,0,1,1,1,0,25,25,57,,,,,,,,,,,693.0501402000082,None,694.050595800014,None,694.050595800014,None,694.050595800014,None,694.050595800014,None,697.0508810000028,None,697.0508810000028,None,697.0508810000028,None,697.0508810000028,None,None,None,None,None,None,,,,,,,,,,ST01_112522,2022-11-25_13h08.52.782,Hippopolis_Updating,2021.1.4,59.913389200708764,
Hippopolis,stimuli/subj_files/ST01_112522_cityA.csv,./stimuli/seattle.jpg,./stimuli/street_plate1.png,PADLÓ UTCA,stimuli/scenes/067a.jpg,scene,1,stimuli/scenes/086a.jpg,stimuli/scenes/005b.jpg,stimuli/scenes/086a.jpg,stimuli/scenes/086b.jpg,stimuli/scenes/005a.jpg,dist2,target,lure,dist1,0,1,1,1,0,26,26,21,,,,,,,,,,,699.0496634999872,None,700.0503060999908,None,700.0503060999908,None,700.0503060999908,None,700.0503060999908,None,703.0618865999859,None,703.0618865999859,None,703.0618865999859,None,703.0618865999859,None,None,None,None,None,None,,,,,,,,,,ST01_112522,2022-11-25_13h08.52.782,Hippopolis_Updating,2021.1.4,59.913389200708764,
Hippopolis,stimuli/subj_files/ST01_112522_cityA.csv,./stimuli/seattle.jpg,./stimuli/street_plate1.png,DOMINÓ UTCA,stimuli/objects/061a.jpg,object,2,stimuli/scenes/020a.jpg,stimuli/scenes/033a.jpg,stimuli/scenes/020b.jpg,stimuli/scenes/020a.jpg,stimuli/scenes/033b.jpg,dist1,lure,target,dist2,0,1,1,1,0,27,27,11,,,,,,,,,,,705.066739700007,None,706.0665750000044,None,706.0665750000044,None,706.0665750000044,None,706.0665750000044,None,709.0736898999894,None,709.0736898999894,None,709.0736898999894,None,709.0736898999894,None,None,None,None,None,None,,,,,,,,,,ST01_112522,2022-11-25_13h08.52.782,Hippopolis_Updating,2021.1.4,59.913389200708764,
Hippopolis,stimuli/subj_files/ST01_112522_cityA.csv,./stimuli/seattle.jpg,./stimuli/street_plate1.png,PAPAGÁJ UTCA,stimuli/scenes/100a.jpg,scene,2,stimuli/objects/079a.jpg,stimuli/objects/117a.jpg,stimuli/objects/079a.jpg,stimuli/objects/079b.jpg,stimuli/objects/117b.jpg,dist1,target,lure,dist2,0,1,1,1,0,28,28,78,,,,,,,,,,,711.0827955999994,None,712.0832324000075,None,712.0832324000075,None,712.0832324000075,None,712.0832324000075,None,715.1002548999968,None,715.1002548999968,None,715.1002548999968,None,715.1002548999968,None,None,None,None,None,None,,,,,,,,,,ST01_112522,2022-11-25_13h08.52.782,Hippopolis_Updating,2021.1.4,59.913389200708764,
Hippopolis,stimuli/subj_files/ST01_112522_cityA.csv,./stimuli/seattle.jpg,./stimuli/street_plate1.png,ZEBRA UTCA,stimuli/objects/012a.jpg,object,2,stimuli/scenes/101a.jpg,stimuli/scenes/101b.jpg,stimuli/scenes/062b.jpg,stimuli/scenes/062a.jpg,stimuli/scenes/101a.jpg,lure,dist2,dist1,target,0,1,1,1,0,29,29,25,,,,,,,,,,,717.0994683000026,None,718.099735900003,None,718.099735900003,None,718.099735900003,None,718.099735900003,None,721.1064469999983,None,721.1064469999983,None,721.1064469999983,None,721.1064469999983,None,None,None,None,None,None,,,,,,,,,,ST01_112522,2022-11-25_13h08.52.782,Hippopolis_Updating,2021.1.4,59.913389200708764,
Hippopolis,stimuli/subj_files/ST01_112522_cityA.csv,./stimuli/seattle.jpg,./stimuli/street_plate1.png,ORVOS UTCA,stimuli/objects/056a.jpg,object,2,stimuli/scenes/069a.jpg,stimuli/objects/060a.jpg,stimuli/scenes/069a.jpg,stimuli/objects/060b.jpg,stimuli/scenes/069b.jpg,dist1,target,dist2,lure,0,1,1,1,0,30,30,77,,,,,,,,,,,723.116277299996,None,724.1167980000027,None,724.1167980000027,None,724.1167980000027,None,724.1167980000027,None,727.1167577999877,None,727.1167577999877,None,727.1167577999877,None,727.1167577999877,None,None,None,None,None,None,,,,,,,,,,ST01_112522,2022-11-25_13h08.52.782,Hippopolis_Updating,2021.1.4,59.913389200708764,
Hippopolis,stimuli/subj_files/ST01_112522_cityA.csv,./stimuli/seattle.jpg,./stimuli/street_plate1.png,BÖGRE UTCA,stimuli/scenes/058a.jpg,scene,1,stimuli/scenes/034a.jpg,stimuli/objects/108a.jpg,stimuli/scenes/034b.jpg,stimuli/objects/108b.jpg,stimuli/scenes/034a.jpg,dist1,lure,dist2,target,0,1,1,1,0,31,31,22,,,,,,,,,,,729.1154365999973,None,730.1157660000026,None,730.1157660000026,None,730.1157660000026,None,730.1157660000026,None,733.1175174000091,None,733.1175174000091,None,733.1175174000091,None,733.1175174000091,None,None,None,None,None,None,,,,,,,,,,ST01_112522,2022-11-25_13h08.52.782,Hippopolis_Updating,2021.1.4,59.913389200708764,
Hippopolis,stimuli/subj_files/ST01_112522_cityA.csv,./stimuli/seattle.jpg,./stimuli/street_plate1.png,TENISZ UTCA,stimuli/scenes/014a.jpg,scene,0,stimuli/scenes/014a.jpg,stimuli/objects/037a.jpg,stimuli/scenes/014a.jpg,stimuli/objects/037b.jpg,stimuli/scenes/014b.jpg,dist1,target,dist2,lure,0,1,1,1,0,32,32,79,,,,,,,,,,,735.1322704000049,None,736.133133299998,None,736.133133299998,None,736.133133299998,None,736.133133299998,None,739.1433871999907,None,739.1433871999907,None,739.1433871999907,None,739.1433871999907,None,None,None,None,None,None,,,,,,,,,,ST01_112522,2022-11-25_13h08.52.782,Hippopolis_Updating,2021.1.4,59.913389200708764,
Hippopolis,stimuli/subj_files/ST01_112522_cityA.csv,./stimuli/seattle.jpg,./stimuli/street_plate1.png,TÁNYÉR UTCA,stimuli/objects/031a.jpg,object,2,stimuli/scenes/062a.jpg,stimuli/scenes/048b.jpg,stimuli/scenes/048a.jpg,stimuli/scenes/062a.jpg,stimuli/scenes/062b.jpg,dist2,dist1,target,lure,0,1,1,1,0,33,33,42,,,,,,,,,,,741.1494231999968,None,742.1495061999885,None,742.1495061999885,None,742.1495061999885,None,742.1495061999885,None,745.164117999986,None,745.164117999986,None,745.164117999986,None,745.164117999986,None,None,None,None,None,None,,,,,,,,,,ST01_112522,2022-11-25_13h08.52.782,Hippopolis_Updating,2021.1.4,59.913389200708764,
Hippopolis,stimuli/subj_files/ST01_112522_cityA.csv,./stimuli/seattle.jpg,./stimuli/street_plate1.png,SAJTÓ UTCA,stimuli/scenes/015a.jpg,scene,2,stimuli/objects/117a.jpg,stimuli/objects/081b.jpg,stimuli/objects/081a.jpg,stimuli/objects/117b.jpg,stimuli/objects/117a.jpg,dist2,dist1,lure,target,0,1,1,1,0,34,34,26,,,,,,,,,,,747.1654186999949,None,748.1655339999998,None,748.1655339999998,None,748.1655339999998,None,748.1655339999998,None,751.1863431000093,None,751.1863431000093,None,751.1863431000093,None,751.1863431000093,None,None,None,None,None,None,,,,,,,,,,ST01_112522,2022-11-25_13h08.52.782,Hippopolis_Updating,2021.1.4,59.913389200708764,
Hippopolis,stimuli/subj_files/ST01_112522_cityA.csv,./stimuli/seattle.jpg,./stimuli/street_plate1.png,TOLLTARTÓ UTCA,stimuli/scenes/022a.jpg,scene,1,stimuli/scenes/007a.jpg,stimuli/scenes/007b.jpg,stimuli/scenes/071a.jpg,stimuli/scenes/071b.jpg,stimuli/scenes/007a.jpg,lure,dist1,dist2,target,0,1,1,1,0,35,35,43,,,,,,,,,,,753.1819243000064,None,754.182694099989,None,754.182694099989,None,754.182694099989,None,754.182694099989,None,757.1917010000034,None,757.1917010000034,None,757.1917010000034,None,757.1917010000034,None,None,None,None,None,None,,,,,,,,,,ST01_112522,2022-11-25_13h08.52.782,Hippopolis_Updating,2021.1.4,59.913389200708764,
Hippopolis,stimuli/subj_files/ST01_112522_cityA.csv,./stimuli/seattle.jpg,./stimuli/street_plate1.png,LEVÉL UTCA,stimuli/objects/080a.jpg,object,0,stimuli/objects/080a.jpg,stimuli/scenes/091a.jpg,stimuli/scenes/091b.jpg,stimuli/objects/080b.jpg,stimuli/objects/080a.jpg,dist1,dist2,lure,target,0,1,1,1,0,36,36,32,,,,,,,,,,,759.1989857000008,None,760.1998688000022,None,760.1998688000022,None,760.1998688000022,None,760.1998688000022,None,763.2041918000032,None,763.2041918000032,None,763.2041918000032,None,763.2041918000032,None,None,None,None,None,None,,,,,,,,,,ST01_112522,2022-11-25_13h08.52.782,Hippopolis_Updating,2021.1.4,59.913389200708764,
Hippopolis,stimuli/subj_files/ST01_112522_cityA.csv,./stimuli/seattle.jpg,./stimuli/street_plate1.png,KOSÁR UTCA,stimuli/scenes/070a.jpg,scene,0,stimuli/scenes/070a.jpg,stimuli/objects/096b.jpg,stimuli/scenes/070b.jpg,stimuli/objects/096a.jpg,stimuli/scenes/070a.jpg,dist2,lure,dist1,target,0,1,1,1,0,37,37,18,,,,,,,,,,,765.2151246999856,None,766.2152375000005,None,766.2152375000005,None,766.2152375000005,None,766.2152375000005,None,769.2215536999865,None,769.2215536999865,None,769.2215536999865,None,769.2215536999865,None,None,None,None,None,None,,,,,,,,,,ST01_112522,2022-11-25_13h08.52.782,Hippopolis_Updating,2021.1.4,59.913389200708764,
Hippopolis,stimuli/subj_files/ST01_112522_cityA.csv,./stimuli/seattle.jpg,./stimuli/street_plate1.png,MAJOM UTCA,stimuli/scenes/094a.jpg,scene,1,stimuli/scenes/098a.jpg,stimuli/scenes/098a.jpg,stimuli/objects/102b.jpg,stimuli/scenes/098b.jpg,stimuli/objects/102a.jpg,target,dist2,lure,dist1,0,1,1,1,0,38,38,46,,,,,,,,,,,771.2321288000094,None,772.2326652999909,None,772.2326652999909,None,772.2326652999909,None,772.2326652999909,None,775.2370950999903,None,775.2370950999903,None,775.2370950999903,None,775.2370950999903,None,None,None,None,None,None,,,,,,,,,,ST01_112522,2022-11-25_13h08.52.782,Hippopolis_Updating,2021.1.4,59.913389200708764,
Hippopolis,stimuli/subj_files/ST01_112522_cityA.csv,./stimuli/seattle.jpg,./stimuli/street_plate1.png,PAPUCS UTCA,stimuli/scenes/119a.jpg,scene,2,stimuli/objects/039a.jpg,stimuli/objects/088a.jpg,stimuli/objects/088b.jpg,stimuli/objects/039a.jpg,stimuli/objects/039b.jpg,dist1,dist2,target,lure,0,1,1,1,0,39,39,16,,,,,,,,,,,777.2482795999967,None,778.2485541999922,None,778.2485541999922,None,778.2485541999922,None,778.2485541999922,None,781.2681352999934,None,781.2681352999934,None,781.2681352999934,None,781.2681352999934,None,None,None,None,None,None,,,,,,,,,,ST01_112522,2022-11-25_13h08.52.782,Hippopolis_Updating,2021.1.4,59.913389200708764,
Hippopolis,stimuli/subj_files/ST01_112522_cityA.csv,./stimuli/seattle.jpg,./stimuli/street_plate1.png,KECSKE UTCA,stimuli/scenes/114a.jpg,scene,2,stimuli/objects/088a.jpg,stimuli/scenes/029b.jpg,stimuli/scenes/029a.jpg,stimuli/objects/088b.jpg,stimuli/objects/088a.jpg,dist2,dist1,lure,target,0,1,1,1,0,40,40,33,,,,,,,,,,,783.2645035999885,None,784.2658622000017,None,784.2658622000017,None,784.2658622000017,None,784.2658622000017,None,787.2742855999968,None,787.2742855999968,None,787.2742855999968,None,787.2742855999968,None,None,None,None,None,None,,,,,,,,,,ST01_112522,2022-11-25_13h08.52.782,Hippopolis_Updating,2021.1.4,59.913389200708764,
Hippopolis,stimuli/subj_files/ST01_112522_cityA.csv,./stimuli/seattle.jpg,./stimuli/street_plate1.png,SÜTŐ UTCA,stimuli/objects/111a.jpg,object,1,stimuli/objects/054a.jpg,stimuli/objects/054a.jpg,stimuli/objects/054b.jpg,stimuli/scenes/056b.jpg,stimuli/scenes/056a.jpg,target,lure,dist2,dist1,0,1,1,1,0,41,41,75,,,,,,,,,,,789.2817820000055,None,790.2820696000126,None,790.2820696000126,None,790.2820696000126,None,790.2820696000126,None,793.2954346000042,None,793.2954346000042,None,793.2954346000042,None,793.2954346000042,None,None,None,None,None,None,,,,,,,,,,ST01_112522,2022-11-25_13h08.52.782,Hippopolis_Updating,2021.1.4,59.913389200708764,
Hippopolis,stimuli/subj_files/ST01_112522_cityA.csv,./stimuli/seattle.jpg,./stimuli/street_plate1.png,REPÜLŐ UTCA,stimuli/objects/086a.jpg,object,0,stimuli/objects/086a.jpg,stimuli/objects/086b.jpg,stimuli/objects/080a.jpg,stimuli/objects/086a.jpg,stimuli/objects/080b.jpg,lure,dist1,target,dist2,0,1,1,1,0,42,42,3,,,,,,,,,,,795.2985249999911,None,796.299954999995,None,796.299954999995,None,796.299954999995,None,796.299954999995,None,799.301518399996,None,799.301518399996,None,799.301518399996,None,799.301518399996,None,None,None,None,None,None,,,,,,,,,,ST01_112522,2022-11-25_13h08.52.782,Hippopolis_Updating,2021.1.4,59.913389200708764,
Hippopolis,stimuli/subj_files/ST01_112522_cityA.csv,./stimuli/seattle.jpg,./stimuli/street_plate1.png,VÁSÁR UTCA,stimuli/scenes/060a.jpg,scene,2,stimuli/objects/024a.jpg,stimuli/scenes/059b.jpg,stimuli/objects/024b.jpg,stimuli/scenes/059a.jpg,stimuli/objects/024a.jpg,dist2,lure,dist1,target,0,1,1,1,0,43,43,52,,,,,,,,,,,801.3150989999995,None,802.3149893000082,None,802.3149893000082,None,802.3149893000082,None,802.3149893000082,None,805.3353124000132,None,805.3353124000132,None,805.3353124000132,None,805.3353124000132,None,None,None,None,None,None,,,,,,,,,,ST01_112522,2022-11-25_13h08.52.782,Hippopolis_Updating,2021.1.4,59.913389200708764,
Hippopolis,stimuli/subj_files/ST01_112522_cityA.csv,./stimuli/seattle.jpg,./stimuli/street_plate1.png,KORONG UTCA,stimuli/objects/083a.jpg,object,1,stimuli/objects/008a.jpg,stimuli/objects/008b.jpg,stimuli/objects/005b.jpg,stimuli/objects/008a.jpg,stimuli/objects/005a.jpg,lure,dist2,target,dist1,0,1,1,1,0,44,44,68,,,,,,,,,,,807.3311488000036,None,808.3311963999877,None,808.3311963999877,None,808.3311963999877,None,808.3311963999877,None,811.3357168000075,None,811.3357168000075,None,811.3357168000075,None,811.3357168000075,None,813.3478516000032,None,space,813.3478516000032,None,3.730653300008271,,,,,,,,,ST01_112522,2022-11-25_13h08.52.782,Hippopolis_Updating,2021.1.4,59.913389200708764,
Hippopolis,stimuli/subj_files/ST01_112522_cityA.csv,./stimuli/seattle.jpg,./stimuli/street_plate1.png,HEGESZTŐ UTCA,stimuli/scenes/088a.jpg,scene,1,stimuli/scenes/005a.jpg,stimuli/objects/114a.jpg,stimuli/objects/114b.jpg,stimuli/scenes/005a.jpg,stimuli/scenes/005b.jpg,dist1,dist2,target,lure,0,1,1,1,0,45,45,41,,,,,,,,,,,817.0976379000058,None,818.0981196000066,None,818.0981196000066,None,818.0981196000066,None,818.0981196000066,None,821.1063732999901,None,821.1063732999901,None,821.1063732999901,None,821.1063732999901,None,None,None,None,None,None,,,,,,,,,,ST01_112522,2022-11-25_13h08.52.782,Hippopolis_Updating,2021.1.4,59.913389200708764,
Hippopolis,stimuli/subj_files/ST01_112522_cityA.csv,./stimuli/seattle.jpg,./stimuli/street_plate1.png,ÁLLOMÁS UTCA,stimuli/objects/002a.jpg,object,1,stimuli/objects/102a.jpg,stimuli/objects/102b.jpg,stimuli/objects/102a.jpg,stimuli/scenes/034a.jpg,stimuli/scenes/034b.jpg,lure,target,dist1,dist2,0,1,1,1,0,46,46,49,,,,,,,,,,,823.1139786000131,None,824.1165536000044,None,824.1165536000044,None,824.1165536000044,None,824.1165536000044,None,827.1496330999944,None,827.1496330999944,None,827.1496330999944,None,827.1496330999944,None,None,None,None,None,None,,,,,,,,,,ST01_112522,2022-11-25_13h08.52.782,Hippopolis_Updating,2021.1.4,59.913389200708764,
Hippopolis,stimuli/subj_files/ST01_112522_cityA.csv,./stimuli/seattle.jpg,./stimuli/street_plate1.png,KALAPÁCS UTCA,stimuli/objects/021a.jpg,object,1,stimuli/objects/047a.jpg,stimuli/objects/047a.jpg,stimuli/objects/073a.jpg,stimuli/objects/073b.jpg,stimuli/objects/047b.jpg,target,dist1,dist2,lure,0,1,1,1,0,47,47,59,,,,,,,,,,,829.131146700005,None,830.1334152999916,None,830.1334152999916,None,830.1334152999916,None,830.1334152999916,None,833.153961700009,None,833.153961700009,None,833.153961700009,None,833.153961700009,None,None,None,None,None,None,,,,,,,,,,ST01_112522,2022-11-25_13h08.52.782,Hippopolis_Updating,2021.1.4,59.913389200708764,
Hippopolis,stimuli/subj_files/ST01_112522_cityA.csv,./stimuli/seattle.jpg,./stimuli/street_plate1.png,FOLYÓ UTCA,stimuli/objects/069a.jpg,object,2,stimuli/scenes/002a.jpg,stimuli/scenes/054a.jpg,stimuli/scenes/002a.jpg,stimuli/scenes/002b.jpg,stimuli/scenes/054b.jpg,dist1,target,lure,dist2,0,1,1,1,0,48,48,8,,,,,,,,,,,835.1472651000076,None,836.1529573999869,None,836.1529573999869,None,836.1529573999869,None,836.1529573999869,None,839.1755787000002,None,839.1755787000002,None,839.1755787000002,None,839.1755787000002,None,None,None,None,None,None,,,,,,,,,,ST01_112522,2022-11-25_13h08.52.782,Hippopolis_Updating,2021.1.4,59.913389200708764,
Hippopolis,stimuli/subj_files/ST01_112522_cityA.csv,./stimuli/seattle.jpg,./stimuli/street_plate1.png,KORONA UTCA,stimuli/scenes/091a.jpg,scene,0,stimuli/scenes/091a.jpg,stimuli/scenes/040b.jpg,stimuli/scenes/091b.jpg,stimuli/scenes/040a.jpg,stimuli/scenes/091a.jpg,dist2,lure,dist1,target,0,1,1,1,0,49,49,17,,,,,,,,,,,841.1642124000064,None,842.1660923000018,None,842.1660923000018,None,842.1660923000018,None,842.1660923000018,None,845.1952653999906,None,845.1952653999906,None,845.1952653999906,None,845.1952653999906,None,None,None,None,None,None,,,,,,,,,,ST01_112522,2022-11-25_13h08.52.782,Hippopolis_Updating,2021.1.4,59.913389200708764,
Hippopolis,stimuli/subj_files/ST01_112522_cityA.csv,./stimuli/seattle.jpg,./stimuli/street_plate1.png,HARCSA UTCA,stimuli/scenes/042a.jpg,scene,2,stimuli/objects/046a.jpg,stimuli/objects/046b.jpg,stimuli/scenes/009a.jpg,stimuli/objects/046a.jpg,stimuli/scenes/009b.jpg,lure,dist1,target,dist2,0,1,1,1,0,50,50,48,,,,,,,,,,,847.1807744000107,None,848.1811069000105,None,848.1811069000105,None,848.1811069000105,None,848.1811069000105,None,851.202606100007,None,851.202606100007,None,851.202606100007,None,851.202606100007,None,None,None,None,None,None,,,,,,,,,,ST01_112522,2022-11-25_13h08.52.782,Hippopolis_Updating,2021.1.4,59.913389200708764,
Hippopolis,stimuli/subj_files/ST01_112522_cityA.csv,./stimuli/seattle.jpg,./stimuli/street_plate1.png,RÓZSA UTCA,stimuli/scenes/084a.jpg,scene,2,stimuli/objects/081a.jpg,stimuli/objects/095a.jpg,stimuli/objects/095b.jpg,stimuli/objects/081a.jpg,stimuli/objects/081b.jpg,dist1,dist2,target,lure,0,1,1,1,0,51,51,63,,,,,,,,,,,853.1968172999914,None,854.1974476999894,None,854.1974476999894,None,854.1974476999894,None,854.1974476999894,None,857.2121566999995,None,857.2121566999995,None,857.2121566999995,None,857.2121566999995,None,None,None,None,None,None,,,,,,,,,,ST01_112522,2022-11-25_13h08.52.782,Hippopolis_Updating,2021.1.4,59.913389200708764,
Hippopolis,stimuli/subj_files/ST01_112522_cityA.csv,./stimuli/seattle.jpg,./stimuli/street_plate1.png,SZÖCSKE UTCA,stimuli/scenes/085a.jpg,scene,1,stimuli/scenes/001a.jpg,stimuli/scenes/001b.jpg,stimuli/scenes/001a.jpg,stimuli/scenes/018a.jpg,stimuli/scenes/018b.jpg,lure,target,dist1,dist2,0,1,1,1,0,52,52,64,,,,,,,,,,,859.2134746999945,None,860.2140933999908,None,860.2140933999908,None,860.2140933999908,None,860.2140933999908,None,863.2190589999955,None,863.2190589999955,None,863.2190589999955,None,863.2190589999955,None,None,None,None,None,None,,,,,,,,,,ST01_112522,2022-11-25_13h08.52.782,Hippopolis_Updating,2021.1.4,59.913389200708764,
Hippopolis,stimuli/subj_files/ST01_112522_cityA.csv,./stimuli/seattle.jpg,./stimuli/street_plate1.png,PIZSAMA UTCA,stimuli/objects/052a.jpg,object,2,stimuli/scenes/009a.jpg,stimuli/scenes/009a.jpg,stimuli/objects/001a.jpg,stimuli/objects/001b.jpg,stimuli/scenes/009b.jpg,target,dist1,dist2,lure,0,1,1,1,0,53,53,53,,,,,,,,,,,865.2300184000051,None,866.2302830000117,None,866.2302830000117,None,866.2302830000117,None,866.2302830000117,None,869.2355373000028,None,869.2355373000028,None,869.2355373000028,None,869.2355373000028,None,None,None,None,None,None,,,,,,,,,,ST01_112522,2022-11-25_13h08.52.782,Hippopolis_Updating,2021.1.4,59.913389200708764,
Hippopolis,stimuli/subj_files/ST01_112522_cityA.csv,./stimuli/seattle.jpg,./stimuli/street_plate1.png,SZAPPAN UTCA,stimuli/scenes/112a.jpg,scene,0,stimuli/scenes/112a.jpg,stimuli/scenes/112a.jpg,stimuli/scenes/057a.jpg,stimuli/scenes/057b.jpg,stimuli/scenes/112b.jpg,target,dist1,dist2,lure,0,1,1,1,0,54,54,71,,,,,,,,,,,871.246970600012,None,872.2467483000073,None,872.2467483000073,None,872.2467483000073,None,872.2467483000073,None,875.2618533000059,None,875.2618533000059,None,875.2618533000059,None,875.2618533000059,None,None,None,None,None,None,,,,,,,,,,ST01_112522,2022-11-25_13h08.52.782,Hippopolis_Updating,2021.1.4,59.913389200708764,
Hippopolis,stimuli/subj_files/ST01_112522_cityA.csv,./stimuli/seattle.jpg,./stimuli/street_plate1.png,VASALÓ UTCA,stimuli/scenes/115a.jpg,scene,0,stimuli/scenes/115a.jpg,stimuli/scenes/115b.jpg,stimuli/objects/026b.jpg,stimuli/objects/026a.jpg,stimuli/scenes/115a.jpg,lure,dist2,dist1,target,0,1,1,1,0,55,55,7,,,,,,,,,,,877.2635761999991,None,878.263341599988,None,878.263341599988,None,878.263341599988,None,878.263341599988,None,881.2676121999975,None,881.2676121999975,None,881.2676121999975,None,881.2676121999975,None,None,None,None,None,None,,,,,,,,,,ST01_112522,2022-11-25_13h08.52.782,Hippopolis_Updating,2021.1.4,59.913389200708764,
Hippopolis,stimuli/subj_files/ST01_112522_cityA.csv,./stimuli/seattle.jpg,./stimuli/street_plate1.png,KESELYŰ UTCA,stimuli/objects/085a.jpg,object,0,stimuli/objects/085a.jpg,stimuli/scenes/078b.jpg,stimuli/scenes/078a.jpg,stimuli/objects/085a.jpg,stimuli/objects/085b.jpg,dist2,dist1,target,lure,0,1,1,1,0,56,56,47,,,,,,,,,,,883.2801689000044,None,884.2802219000005,None,884.2802219000005,None,884.2802219000005,None,884.2802219000005,None,887.2957799999858,None,887.2957799999858,None,887.2957799999858,None,887.2957799999858,None,None,None,None,None,None,,,,,,,,,,ST01_112522,2022-11-25_13h08.52.782,Hippopolis_Updating,2021.1.4,59.913389200708764,
Hippopolis,stimuli/subj_files/ST01_112522_cityA.csv,./stimuli/seattle.jpg,./stimuli/street_plate1.png,PULÓVER UTCA,stimuli/scenes/064a.jpg,scene,1,stimuli/scenes/111a.jpg,stimuli/objects/049a.jpg,stimuli/objects/049b.jpg,stimuli/scenes/111b.jpg,stimuli/scenes/111a.jpg,dist1,dist2,lure,target,0,1,1,1,0,57,57,69,,,,,,,,,,,889.2960648000007,None,890.2969299000106,None,890.2969299000106,None,890.2969299000106,None,890.2969299000106,None,893.3159485000069,None,893.3159485000069,None,893.3159485000069,None,893.3159485000069,None,None,None,None,None,None,,,,,,,,,,ST01_112522,2022-11-25_13h08.52.782,Hippopolis_Updating,2021.1.4,59.913389200708764,
Hippopolis,stimuli/subj_files/ST01_112522_cityA.csv,./stimuli/seattle.jpg,./stimuli/street_plate1.png,PÁLMAFA UTCA,stimuli/scenes/087a.jpg,scene,1,stimuli/scenes/018a.jpg,stimuli/objects/036b.jpg,stimuli/scenes/018b.jpg,stimuli/objects/036a.jpg,stimuli/scenes/018a.jpg,dist2,lure,dist1,target,0,1,1,1,0,58,58,66,,,,,,,,,,,895.3132436999877,None,896.3156978999905,None,896.3156978999905,None,896.3156978999905,None,896.3156978999905,None,899.3442809999979,None,899.3442809999979,None,899.3442809999979,None,899.3442809999979,None,None,None,None,None,None,,,,,,,,,,ST01_112522,2022-11-25_13h08.52.782,Hippopolis_Updating,2021.1.4,59.913389200708764,
Hippopolis,stimuli/subj_files/ST01_112522_cityA.csv,./stimuli/seattle.jpg,./stimuli/street_plate1.png,CUKOR UTCA,stimuli/scenes/063a.jpg,scene,0,stimuli/scenes/063a.jpg,stimuli/scenes/063a.jpg,stimuli/scenes/063b.jpg,stimuli/objects/113a.jpg,stimuli/objects/113b.jpg,target,lure,dist1,dist2,0,1,1,1,0,59,59,37,,,,,,,,,,,901.3298014999891,None,902.3304258999997,None,902.3304258999997,None,902.3304258999997,None,902.3304258999997,None,905.3326448999869,None,905.3326448999869,None,905.3326448999869,None,905.3326448999869,None,None,None,None,None,None,,,,,,,,,,ST01_112522,2022-11-25_13h08.52.782,Hippopolis_Updating,2021.1.4,59.913389200708764,
Hippopolis,stimuli/subj_files/ST01_112522_cityA.csv,./stimuli/seattle.jpg,./stimuli/street_plate1.png,TISZTÁS UTCA,stimuli/objects/042a.jpg,object,0,stimuli/objects/042a.jpg,stimuli/scenes/072a.jpg,stimuli/scenes/072b.jpg,stimuli/objects/042a.jpg,stimuli/objects/042b.jpg,dist1,dist2,target,lure,0,1,1,1,0,60,60,67,,,,,,,,,,,907.346383199998,None,908.3463215999946,None,908.3463215999946,None,908.3463215999946,None,908.3463215999946,None,911.3685001000122,None,911.3685001000122,None,911.3685001000122,None,911.3685001000122,None,None,None,None,None,None,,,,,,,,,,ST01_112522,2022-11-25_13h08.52.782,Hippopolis_Updating,2021.1.4,59.913389200708764,
Hippopolis,stimuli/subj_files/ST01_112522_cityA.csv,./stimuli/seattle.jpg,./stimuli/street_plate1.png,ÜVEG UTCA,stimuli/scenes/078a.jpg,scene,0,stimuli/scenes/078a.jpg,stimuli/scenes/078a.jpg,stimuli/scenes/108a.jpg,stimuli/scenes/108b.jpg,stimuli/scenes/078b.jpg,target,dist1,dist2,lure,0,1,1,1,0,61,61,36,,,,,,,,,,,913.3631602000096,None,914.3660935999942,None,914.3660935999942,None,914.3660935999942,None,914.3660935999942,None,917.3926318000013,None,917.3926318000013,None,917.3926318000013,None,917.3926318000013,None,None,None,None,None,None,,,,,,,,,,ST01_112522,2022-11-25_13h08.52.782,Hippopolis_Updating,2021.1.4,59.913389200708764,
Hippopolis,stimuli/subj_files/ST01_112522_cityA.csv,./stimuli/seattle.jpg,./stimuli/street_plate1.png,KÍGYÓ UTCA,stimuli/scenes/073a.jpg,scene,2,stimuli/objects/095a.jpg,stimuli/objects/029b.jpg,stimuli/objects/029a.jpg,stimuli/objects/095a.jpg,stimuli/objects/095b.jpg,dist2,dist1,target,lure,0,1,1,1,0,62,62,31,,,,,,,,,,,919.3795031000045,None,920.3817039999994,None,920.3817039999994,None,920.3817039999994,None,920.3817039999994,None,923.4091035999882,None,923.4091035999882,None,923.4091035999882,None,923.4091035999882,None,None,None,None,None,None,,,,,,,,,,ST01_112522,2022-11-25_13h08.52.782,Hippopolis_Updating,2021.1.4,59.913389200708764,
Hippopolis,stimuli/subj_files/ST01_112522_cityA.csv,./stimuli/seattle.jpg,./stimuli/street_plate1.png,KÖTÉNY UTCA,stimuli/objects/082a.jpg,object,1,stimuli/objects/005a.jpg,stimuli/objects/005b.jpg,stimuli/objects/005a.jpg,stimuli/objects/008b.jpg,stimuli/objects/008a.jpg,lure,target,dist2,dist1,0,1,1,1,0,63,63,19,,,,,,,,,,,925.3956466999953,None,926.3961589999963,None,926.3961589999963,None,926.3961589999963,None,926.3961589999963,None,929.4145099000016,None,929.4145099000016,None,929.4145099000016,None,929.4145099000016,None,None,None,None,None,None,,,,,,,,,,ST01_112522,2022-11-25_13h08.52.782,Hippopolis_Updating,2021.1.4,59.913389200708764,
Hippopolis,stimuli/subj_files/ST01_112522_cityA.csv,./stimuli/seattle.jpg,./stimuli/street_plate1.png,KATONA UTCA,stimuli/scenes/027a.jpg,scene,1,stimuli/scenes/050a.jpg,stimuli/objects/071a.jpg,stimuli/scenes/050a.jpg,stimuli/scenes/050b.jpg,stimuli/objects/071b.jpg,dist1,target,lure,dist2,0,1,1,1,0,64,64,65,,,,,,,,,,,931.4120608000085,None,932.4127063000051,None,932.4127063000051,None,932.4127063000051,None,932.4127063000051,None,935.4211915000051,None,935.4211915000051,None,935.4211915000051,None,935.4211915000051,None,None,None,None,None,None,,,,,,,,,,ST01_112522,2022-11-25_13h08.52.782,Hippopolis_Updating,2021.1.4,59.913389200708764,
Hippopolis,stimuli/subj_files/ST01_112522_cityA.csv,./stimuli/seattle.jpg,./stimuli/street_plate1.png,CSILLAG UTCA,stimuli/scenes/117a.jpg,scene,2,stimuli/objects/116a.jpg,stimuli/objects/024b.jpg,stimuli/objects/024a.jpg,stimuli/objects/116b.jpg,stimuli/objects/116a.jpg,dist2,dist1,lure,target,0,1,1,1,0,65,65,29,,,,,,,,,,,937.4289634999877,None,938.4293377999857,None,938.4293377999857,None,938.4293377999857,None,938.4293377999857,None,941.4383577000117,None,941.4383577000117,None,941.4383577000117,None,941.4383577000117,None,None,None,None,None,None,,,,,,,,,,ST01_112522,2022-11-25_13h08.52.782,Hippopolis_Updating,2021.1.4,59.913389200708764,
Hippopolis,stimuli/subj_files/ST01_112522_cityA.csv,./stimuli/seattle.jpg,./stimuli/street_plate1.png,FÉSŰ UTCA,stimuli/objects/077a.jpg,object,2,stimuli/scenes/048a.jpg,stimuli/scenes/048a.jpg,stimuli/scenes/048b.jpg,stimuli/objects/039a.jpg,stimuli/objects/039b.jpg,target,lure,dist1,dist2,0,1,1,1,0,66,66,34,,,,,,,,,,,943.4456354999857,None,944.4457898999972,None,944.4457898999972,None,944.4457898999972,None,944.4457898999972,None,947.4598272999865,None,947.4598272999865,None,947.4598272999865,None,947.4598272999865,None,None,None,None,None,None,,,,,,,,,,ST01_112522,2022-11-25_13h08.52.782,Hippopolis_Updating,2021.1.4,59.913389200708764,
Hippopolis,stimuli/subj_files/ST01_112522_cityA.csv,./stimuli/seattle.jpg,./stimuli/street_plate1.png,KAKAÓ UTCA,stimuli/scenes/096a.jpg,scene,1,stimuli/scenes/071a.jpg,stimuli/scenes/071a.jpg,stimuli/scenes/071b.jpg,stimuli/scenes/050b.jpg,stimuli/scenes/050a.jpg,target,lure,dist2,dist1,0,1,1,1,0,67,67,73,,,,,,,,,,,949.4618004999938,None,950.4631579999987,None,950.4631579999987,None,950.4631579999987,None,950.4631579999987,None,953.4693486999895,None,953.4693486999895,None,953.4693486999895,None,953.4693486999895,None,None,None,None,None,None,,,,,,,,,,ST01_112522,2022-11-25_13h08.52.782,Hippopolis_Updating,2021.1.4,59.913389200708764,
Hippopolis,stimuli/subj_files/ST01_112522_cityA.csv,./stimuli/seattle.jpg,./stimuli/street_plate1.png,SZAXOFON UTCA,stimuli/scenes/055a.jpg,scene,1,stimuli/scenes/103a.jpg,stimuli/scenes/103a.jpg,stimuli/scenes/103b.jpg,stimuli/objects/054b.jpg,stimuli/objects/054a.jpg,target,lure,dist2,dist1,0,1,1,1,0,68,68,10,,,,,,,,,,,955.4788709999993,None,956.4830021999951,None,956.4830021999951,None,956.4830021999951,None,956.4830021999951,None,959.5041885999963,None,959.5041885999963,None,959.5041885999963,None,959.5041885999963,None,None,None,None,None,None,,,,,,,,,,ST01_112522,2022-11-25_13h08.52.782,Hippopolis_Updating,2021.1.4,59.913389200708764,
Hippopolis,stimuli/subj_files/ST01_112522_cityA.csv,./stimuli/seattle.jpg,./stimuli/street_plate1.png,KUTYA UTCA,stimuli/scenes/006a.jpg,scene,1,stimuli/scenes/113a.jpg,stimuli/scenes/113b.jpg,stimuli/scenes/001a.jpg,stimuli/scenes/001b.jpg,stimuli/scenes/113a.jpg,lure,dist1,dist2,target,0,1,1,1,0,69,69,72,,,,,,,,,,,961.4954816999962,None,962.4958570000017,None,962.4958570000017,None,962.4958570000017,None,962.4958570000017,None,965.5121046999993,None,965.5121046999993,None,965.5121046999993,None,965.5121046999993,None,None,None,None,None,None,,,,,,,,,,ST01_112522,2022-11-25_13h08.52.782,Hippopolis_Updating,2021.1.4,59.913389200708764,
