Cue,Image,Category,CorrectResponse,CityName,Novelty,UpdateImage,TestImage1,TestImage2,TestImage3,TestImage4,TestImage1Type,TestImage2Type,TestImage3Type,TestImage4Type,trials_4afct.thisRepN,trials_4afct.thisTrialN,trials_4afct.thisN,trials_4afct.thisIndex,learning_instructions_text.started,intro_key.started,intro_key.keys,intro_key.rt,fx_cross.started,street_text_updating.started,test_image1.started,test_image2.started,test_image3.started,test_image4.started,button_d.started,button_f.started,button_j.started,button_k.started,key_resp.started,clock0.started,key_resp.keys,key_resp.rt,test_resp,short_break_key.keys,fx_cross.stopped,short_break_text.started,short_break_key.started,short_break_key.rt,clock0.stopped,n_targets,n_lures,n_dist1s,n_dist2s,break_text.started,break_key_resp.started,break_key_resp.keys,break_key_resp.rt,end_text.started,participant,date,expName,psychopyVersion,frameRate,
,,,,,,,,,,,,,,,,,,,14.408197443932295,14.408197443932295,space,7.8176183216273785,,,,,,,,,,,,,,,,,,,,,,,,,,,,,,,ST01_120922,2022-12-09_13h16.31.340,Hippopolis_4AFCT,2022.2.2,59.94839268076782,
SÜTŐ UTCA,stimuli/scenes/015a.jpg,scene,right,Camponello,2,stimuli/objects/118a.jpg,stimuli/scenes/079a.jpg,stimuli/objects/118a.jpg,stimuli/scenes/079b.jpg,stimuli/objects/118b.jpg,dist1,target,dist2,lure,0,0,0,156,,,,,22.280539583414793,23.30069062113762,23.30069062113762,23.30069062113762,23.30069062113762,23.30069062113762,23.30069062113762,23.30069062113762,23.30069062113762,23.30069062113762,23.30069062113762,26.73179524205625,k,4.045028991997242,lure,None,,,,,,,,,,,,,,,ST01_120922,2022-12-09_13h16.31.340,Hippopolis_4AFCT,2022.2.2,59.94839268076782,
MANDARIN UTCA,stimuli/objects/009a.jpg,object,left,Hippopolis,0,stimuli/objects/009a.jpg,stimuli/objects/009b.jpg,stimuli/objects/009a.jpg,stimuli/scenes/006a.jpg,stimuli/scenes/006b.jpg,lure,target,dist1,dist2,0,1,1,68,,,,,27.367176324129105,28.41792230308056,28.41792230308056,28.41792230308056,28.41792230308056,28.41792230308056,28.41792230308056,28.41792230308056,28.41792230308056,28.41792230308056,28.41792230308056,,f,2.528028452768922,target,None,,,,,,,,,,,,,,,ST01_120922,2022-12-09_13h16.31.340,Hippopolis_4AFCT,2022.2.2,59.94839268076782,
TOLMÁCS UTCA,stimuli/scenes/092a.jpg,scene,right,Camponello,0,stimuli/scenes/092a.jpg,stimuli/objects/032a.jpg,stimuli/objects/032b.jpg,stimuli/scenes/092b.jpg,stimuli/scenes/092a.jpg,dist1,dist2,lure,target,0,2,2,111,,,,,30.96375873684883,32.03402783162892,32.03402783162892,32.03402783162892,32.03402783162892,32.03402783162892,32.03402783162892,32.03402783162892,32.03402783162892,32.03402783162892,32.03402783162892,,d,3.1683607548475266,dist1,None,,,,,,,,,,,,,,,ST01_120922,2022-12-09_13h16.31.340,Hippopolis_4AFCT,2022.2.2,59.94839268076782,
TENISZ UTCA,stimuli/scenes/058a.jpg,scene,right,Camponello,1,stimuli/scenes/099a.jpg,stimuli/scenes/099b.jpg,stimuli/objects/027a.jpg,stimuli/scenes/099a.jpg,stimuli/objects/027b.jpg,lure,dist1,target,dist2,0,3,3,155,,,,,35.23070236481726,36.277808325365186,36.277808325365186,36.277808325365186,36.277808325365186,36.277808325365186,36.277808325365186,36.277808325365186,36.277808325365186,36.277808325365186,36.277808325365186,,k,3.228043192997575,dist2,None,,,,,,,,,,,,,,,ST01_120922,2022-12-09_13h16.31.340,Hippopolis_4AFCT,2022.2.2,59.94839268076782,
HORGONY UTCA,stimuli/scenes/008a.jpg,scene,right,Camponello,1,stimuli/scenes/051a.jpg,stimuli/scenes/051b.jpg,stimuli/scenes/034a.jpg,stimuli/scenes/034b.jpg,stimuli/scenes/051a.jpg,lure,dist1,dist2,target,0,4,4,95,,,,,39.530416425317526,40.56144086830318,40.56144086830318,40.56144086830318,40.56144086830318,40.56144086830318,40.56144086830318,40.56144086830318,40.56144086830318,40.56144086830318,40.56144086830318,,f,3.024999560788274,dist1,None,,,,,,,,,,,,,,,ST01_120922,2022-12-09_13h16.31.340,Hippopolis_4AFCT,2022.2.2,59.94839268076782,
TÉRKÉP UTCA,stimuli/scenes/033a.jpg,scene,right,Camponello,0,stimuli/scenes/033a.jpg,stimuli/scenes/033a.jpg,stimuli/scenes/022b.jpg,stimuli/scenes/022a.jpg,stimuli/scenes/033b.jpg,target,dist2,dist1,lure,0,5,5,151,,,,,43.616589454934,44.65179133601487,44.65179133601487,44.65179133601487,44.65179133601487,44.65179133601487,44.65179133601487,44.65179133601487,44.65179133601487,44.65179133601487,44.65179133601487,,d,2.501842023804784,target,None,,,,,,,,,,,,,,,ST01_120922,2022-12-09_13h16.31.340,Hippopolis_4AFCT,2022.2.2,59.94839268076782,
KESZTYŰ UTCA,stimuli/scenes/050a.jpg,scene,right,Hippopolis,1,stimuli/scenes/098a.jpg,stimuli/scenes/098a.jpg,stimuli/scenes/020a.jpg,stimuli/scenes/098b.jpg,stimuli/scenes/020b.jpg,target,dist1,lure,dist2,0,6,6,15,,,,,47.18018839508295,48.20319136232138,48.20319136232138,48.20319136232138,48.20319136232138,48.20319136232138,48.20319136232138,48.20319136232138,48.20319136232138,48.20319136232138,48.20319136232138,,f,3.3034572657197714,dist1,None,,,,,,,,,,,,,,,ST01_120922,2022-12-09_13h16.31.340,Hippopolis_4AFCT,2022.2.2,59.94839268076782,
MAJOM UTCA,stimuli/objects/085a.jpg,object,left,Camponello,0,stimuli/objects/085a.jpg,stimuli/scenes/112b.jpg,stimuli/scenes/112a.jpg,stimuli/objects/085a.jpg,stimuli/objects/085b.jpg,dist2,dist1,target,lure,0,7,7,91,,,,,51.53344998136163,52.59830632247031,52.59830632247031,52.59830632247031,52.59830632247031,52.59830632247031,52.59830632247031,52.59830632247031,52.59830632247031,52.59830632247031,52.59830632247031,,k,3.019611995667219,lure,None,,,,,,,,,,,,,,,ST01_120922,2022-12-09_13h16.31.340,Hippopolis_4AFCT,2022.2.2,59.94839268076782,
FÜZET UTCA,stimuli/scenes/019a.jpg,scene,right,Hippopolis,1,stimuli/scenes/038a.jpg,stimuli/scenes/038b.jpg,stimuli/scenes/018b.jpg,stimuli/scenes/038a.jpg,stimuli/scenes/018a.jpg,lure,dist2,target,dist1,0,8,8,45,,,,,55.64686903730035,56.672737615182996,56.672737615182996,56.672737615182996,56.672737615182996,56.672737615182996,56.672737615182996,56.672737615182996,56.672737615182996,56.672737615182996,56.672737615182996,60.14720461331308,k,3.712752252817154,dist1,None,,,,,,,,,,,,,,,ST01_120922,2022-12-09_13h16.31.340,Hippopolis_4AFCT,2022.2.2,59.94839268076782,
FEJSZE UTCA,stimuli/scenes/007a.jpg,scene,right,Hippopolis,1,stimuli/scenes/028a.jpg,stimuli/scenes/028b.jpg,stimuli/objects/113b.jpg,stimuli/objects/113a.jpg,stimuli/scenes/028a.jpg,lure,dist2,dist1,target,0,9,9,41,,,,,60.4166294503957,61.49147189408541,61.49147189408541,61.49147189408541,61.49147189408541,61.49147189408541,61.49147189408541,61.49147189408541,61.49147189408541,61.49147189408541,61.49147189408541,,k,2.846710791811347,target,None,,,,,,,,,,,,,,,ST01_120922,2022-12-09_13h16.31.340,Hippopolis_4AFCT,2022.2.2,59.94839268076782,
BOHÓC UTCA,stimuli/objects/044a.jpg,object,left,Camponello,1,stimuli/objects/027a.jpg,stimuli/scenes/113a.jpg,stimuli/scenes/113b.jpg,stimuli/objects/027a.jpg,stimuli/objects/027b.jpg,dist1,dist2,target,lure,0,10,10,144,,,,,64.37099019438028,65.45208759978414,65.45208759978414,65.45208759978414,65.45208759978414,65.45208759978414,65.45208759978414,65.45208759978414,65.45208759978414,65.45208759978414,65.45208759978414,,f,2.965660162270069,dist2,None,,,,,,,,,,,,,,,ST01_120922,2022-12-09_13h16.31.340,Hippopolis_4AFCT,2022.2.2,59.94839268076782,
KAKAÓ UTCA,stimuli/scenes/107a.jpg,scene,right,Hippopolis,2,stimuli/objects/054a.jpg,stimuli/objects/102a.jpg,stimuli/objects/102b.jpg,stimuli/objects/054a.jpg,stimuli/objects/054b.jpg,dist1,dist2,target,lure,0,11,11,13,,,,,68.44661544263363,69.47950312495232,69.47950312495232,69.47950312495232,69.47950312495232,69.47950312495232,69.47950312495232,69.47950312495232,69.47950312495232,69.47950312495232,69.47950312495232,,d,1.9622198082506657,dist1,None,69.47950312495232,,,,,,,,,,,,,,ST01_120922,2022-12-09_13h16.31.340,Hippopolis_4AFCT,2022.2.2,59.94839268076782,
KOKTÉL UTCA,stimuli/scenes/010a.jpg,scene,right,Hippopolis,0,stimuli/scenes/010a.jpg,stimuli/scenes/010b.jpg,stimuli/objects/009b.jpg,stimuli/scenes/010a.jpg,stimuli/objects/009a.jpg,lure,dist2,target,dist1,0,12,12,22,,,,,71.47630193457007,72.53247280046344,72.53247280046344,72.53247280046344,72.53247280046344,72.53247280046344,72.53247280046344,72.53247280046344,72.53247280046344,72.53247280046344,72.53247280046344,75.97477147355676,k,3.6771137174218893,dist1,None,,,,,,,,,,,,,,,ST01_120922,2022-12-09_13h16.31.340,Hippopolis_4AFCT,2022.2.2,59.94839268076782,
HORDÓ UTCA,stimuli/scenes/004a.jpg,scene,right,Camponello,1,stimuli/scenes/034a.jpg,stimuli/scenes/099b.jpg,stimuli/scenes/034b.jpg,stimuli/scenes/034a.jpg,stimuli/scenes/099a.jpg,dist2,lure,target,dist1,0,13,13,83,,,,,76.2301422432065,77.26200236007571,77.26200236007571,77.26200236007571,77.26200236007571,77.26200236007571,77.26200236007571,77.26200236007571,77.26200236007571,77.26200236007571,77.26200236007571,,f,2.9795179832726717,lure,None,,,,,,,,,,,,,,,ST01_120922,2022-12-09_13h16.31.340,Hippopolis_4AFCT,2022.2.2,59.94839268076782,
SZILVA UTCA,stimuli/scenes/072a.jpg,scene,right,Hippopolis,1,stimuli/scenes/075a.jpg,stimuli/scenes/054b.jpg,stimuli/scenes/054a.jpg,stimuli/scenes/075a.jpg,stimuli/scenes/075b.jpg,dist2,dist1,target,lure,0,14,14,9,,,,,80.270881280303,81.28380297496915,81.28380297496915,81.28380297496915,81.28380297496915,81.28380297496915,81.28380297496915,81.28380297496915,81.28380297496915,81.28380297496915,81.28380297496915,,j,2.7657297030091286,target,None,,,,,,,,,,,,,,,ST01_120922,2022-12-09_13h16.31.340,Hippopolis_4AFCT,2022.2.2,59.94839268076782,
HENTES UTCA,stimuli/objects/033a.jpg,object,left,Hippopolis,0,stimuli/objects/033a.jpg,stimuli/objects/101a.jpg,stimuli/objects/033b.jpg,stimuli/objects/033a.jpg,stimuli/objects/101b.jpg,dist1,lure,target,dist2,0,15,15,36,,,,,84.07984062843025,85.13769496977329,85.13769496977329,85.13769496977329,85.13769496977329,85.13769496977329,85.13769496977329,85.13769496977329,85.13769496977329,85.13769496977329,85.13769496977329,,d,2.8796504121273756,dist1,None,,,,,,,,,,,,,,,ST01_120922,2022-12-09_13h16.31.340,Hippopolis_4AFCT,2022.2.2,59.94839268076782,
PÁRNA UTCA,stimuli/objects/041a.jpg,object,left,Hippopolis,1,stimuli/objects/071a.jpg,stimuli/objects/071a.jpg,stimuli/objects/071b.jpg,stimuli/objects/055a.jpg,stimuli/objects/055b.jpg,target,lure,dist1,dist2,0,16,16,53,,,,,88.04708170332015,89.08360411599278,89.08360411599278,89.08360411599278,89.08360411599278,89.08360411599278,89.08360411599278,89.08360411599278,89.08360411599278,89.08360411599278,89.08360411599278,,j,2.853789608925581,dist1,None,,,,,,,,,,,,,,,ST01_120922,2022-12-09_13h16.31.340,Hippopolis_4AFCT,2022.2.2,59.94839268076782,
KÍGYÓ UTCA,stimuli/objects/087a.jpg,object,left,Hippopolis,1,stimuli/objects/110a.jpg,stimuli/objects/008b.jpg,stimuli/objects/008a.jpg,stimuli/objects/110b.jpg,stimuli/objects/110a.jpg,dist2,dist1,lure,target,0,17,17,47,,,,,91.96305275149643,93.01464311406016,93.01464311406016,93.01464311406016,93.01464311406016,93.01464311406016,93.01464311406016,93.01464311406016,93.01464311406016,93.01464311406016,93.01464311406016,,k,1.9146834164857864,target,None,93.01464311406016,,,,,,,,,,,,,,ST01_120922,2022-12-09_13h16.31.340,Hippopolis_4AFCT,2022.2.2,59.94839268076782,
KÖTÉL UTCA,stimuli/objects/104a.jpg,object,left,Camponello,0,stimuli/objects/104a.jpg,stimuli/objects/104a.jpg,stimuli/scenes/049b.jpg,stimuli/scenes/049a.jpg,stimuli/objects/104b.jpg,target,dist2,dist1,lure,0,18,18,149,,,,,94.94847370497882,96.02271373011172,96.02271373011172,96.02271373011172,96.02271373011172,96.02271373011172,96.02271373011172,96.02271373011172,96.02271373011172,96.02271373011172,96.02271373011172,,d,2.810194907709956,target,None,,,,,,,,,,,,,,,ST01_120922,2022-12-09_13h16.31.340,Hippopolis_4AFCT,2022.2.2,59.94839268076782,
RIBIZLI UTCA,stimuli/objects/086a.jpg,object,left,Hippopolis,1,stimuli/objects/068a.jpg,stimuli/objects/015a.jpg,stimuli/objects/068a.jpg,stimuli/objects/068b.jpg,stimuli/objects/015b.jpg,dist1,target,lure,dist2,0,19,19,76,,,,,98.85852350480855,99.91825197078288,99.91825197078288,99.91825197078288,99.91825197078288,99.91825197078288,99.91825197078288,99.91825197078288,99.91825197078288,99.91825197078288,99.91825197078288,103.34696681797504,k,3.6030857991427183,dist2,None,,,,,,,,,,,,,,,ST01_120922,2022-12-09_13h16.31.340,Hippopolis_4AFCT,2022.2.2,59.94839268076782,
BÖGRE UTCA,stimuli/scenes/111a.jpg,scene,right,Camponello,2,stimuli/objects/018a.jpg,stimuli/objects/018b.jpg,stimuli/objects/007a.jpg,stimuli/objects/018a.jpg,stimuli/objects/007b.jpg,lure,dist1,target,dist2,0,20,20,147,,,,,103.54675950109959,104.59996087662876,104.59996087662876,104.59996087662876,104.59996087662876,104.59996087662876,104.59996087662876,104.59996087662876,104.59996087662876,104.59996087662876,104.59996087662876,,d,1.9772087633609772,lure,None,,,,,,,,,,,,,,,ST01_120922,2022-12-09_13h16.31.340,Hippopolis_4AFCT,2022.2.2,59.94839268076782,
SZÖCSKE UTCA,stimuli/scenes/097a.jpg,scene,right,Camponello,1,stimuli/scenes/023a.jpg,stimuli/scenes/023a.jpg,stimuli/objects/014a.jpg,stimuli/scenes/023b.jpg,stimuli/objects/014b.jpg,target,dist1,lure,dist2,0,21,21,150,,,,,106.59631650336087,107.64544369466603,107.64544369466603,107.64544369466603,107.64544369466603,107.64544369466603,107.64544369466603,107.64544369466603,107.64544369466603,107.64544369466603,107.64544369466603,,d,2.755958193913102,target,None,,,,,,,,,,,,,,,ST01_120922,2022-12-09_13h16.31.340,Hippopolis_4AFCT,2022.2.2,59.94839268076782,
SZŐLŐ UTCA,stimuli/objects/095a.jpg,object,left,Camponello,0,stimuli/objects/095a.jpg,stimuli/objects/095a.jpg,stimuli/scenes/083a.jpg,stimuli/objects/095b.jpg,stimuli/scenes/083b.jpg,target,dist1,lure,dist2,0,22,22,107,,,,,110.42948490008712,111.49963176809251,111.49963176809251,111.49963176809251,111.49963176809251,111.49963176809251,111.49963176809251,111.49963176809251,111.49963176809251,111.49963176809251,111.49963176809251,114.92921898886561,k,3.733788102865219,dist2,None,,,,,,,,,,,,,,,ST01_120922,2022-12-09_13h16.31.340,Hippopolis_4AFCT,2022.2.2,59.94839268076782,
TERÍTŐ UTCA,stimuli/scenes/027a.jpg,scene,right,Hippopolis,2,stimuli/objects/098a.jpg,stimuli/scenes/030b.jpg,stimuli/objects/098a.jpg,stimuli/scenes/030a.jpg,stimuli/objects/098b.jpg,dist2,target,dist1,lure,0,23,23,29,,,,,115.25341329537332,116.31431114673615,116.31431114673615,116.31431114673615,116.31431114673615,116.31431114673615,116.31431114673615,116.31431114673615,116.31431114673615,116.31431114673615,116.31431114673615,119.7391477432102,j,3.8312823865562677,dist1,None,,,,,,,,,,,,,,,ST01_120922,2022-12-09_13h16.31.340,Hippopolis_4AFCT,2022.2.2,59.94839268076782,
KÖNYVTÁR UTCA,stimuli/objects/077a.jpg,object,left,Hippopolis,2,stimuli/scenes/052a.jpg,stimuli/scenes/052b.jpg,stimuli/scenes/056a.jpg,stimuli/scenes/052a.jpg,stimuli/scenes/056b.jpg,lure,dist1,target,dist2,0,24,24,24,,,,,120.16273876093328,121.19137000851333,121.19137000851333,121.19137000851333,121.19137000851333,121.19137000851333,121.19137000851333,121.19137000851333,121.19137000851333,121.19137000851333,121.19137000851333,,f,2.953564191237092,dist1,None,,,,,,,,,,,,,,,ST01_120922,2022-12-09_13h16.31.340,Hippopolis_4AFCT,2022.2.2,59.94839268076782,
SZOMSZÉD UTCA,stimuli/scenes/091a.jpg,scene,right,Hippopolis,0,stimuli/scenes/091a.jpg,stimuli/scenes/091a.jpg,stimuli/scenes/091b.jpg,stimuli/objects/089a.jpg,stimuli/objects/089b.jpg,target,lure,dist1,dist2,0,25,25,4,,,,,124.16270112805068,125.21217167191207,125.21217167191207,125.21217167191207,125.21217167191207,125.21217167191207,125.21217167191207,125.21217167191207,125.21217167191207,125.21217167191207,125.21217167191207,,f,3.2849654499441385,lure,None,,,,,,,,,,,,,,,ST01_120922,2022-12-09_13h16.31.340,Hippopolis_4AFCT,2022.2.2,59.94839268076782,
MUSTÁR UTCA,stimuli/scenes/044a.jpg,scene,right,Hippopolis,0,stimuli/scenes/044a.jpg,stimuli/objects/047b.jpg,stimuli/scenes/044a.jpg,stimuli/objects/047a.jpg,stimuli/scenes/044b.jpg,dist2,target,dist1,lure,0,26,26,37,,,,,128.5293586924672,129.59445823915303,129.59445823915303,129.59445823915303,129.59445823915303,129.59445823915303,129.59445823915303,129.59445823915303,129.59445823915303,129.59445823915303,129.59445823915303,133.029816493392,f,3.8950458504259586,target,None,,,,,,,,,,,,,,,ST01_120922,2022-12-09_13h16.31.340,Hippopolis_4AFCT,2022.2.2,59.94839268076782,
MOCSÁR UTCA,stimuli/objects/101a.jpg,object,left,Hippopolis,0,stimuli/objects/101a.jpg,stimuli/scenes/090b.jpg,stimuli/objects/101b.jpg,stimuli/scenes/090a.jpg,stimuli/objects/101a.jpg,dist2,lure,dist1,target,0,27,27,17,,,,,133.5126144196838,134.53193849138916,134.53193849138916,134.53193849138916,134.53193849138916,134.53193849138916,134.53193849138916,134.53193849138916,134.53193849138916,134.53193849138916,134.53193849138916,,d,2.5088791642338037,dist2,None,134.53193849138916,,,,,,,,,,,,,,ST01_120922,2022-12-09_13h16.31.340,Hippopolis_4AFCT,2022.2.2,59.94839268076782,
HÁRFA UTCA,stimuli/scenes/117a.jpg,scene,right,Camponello,1,stimuli/scenes/080a.jpg,stimuli/scenes/051a.jpg,stimuli/scenes/080b.jpg,stimuli/scenes/080a.jpg,stimuli/scenes/051b.jpg,dist1,lure,target,dist2,0,28,28,85,,,,,137.0625987444073,138.11041411198676,138.11041411198676,138.11041411198676,138.11041411198676,138.11041411198676,138.11041411198676,138.11041411198676,138.11041411198676,138.11041411198676,138.11041411198676,,j,2.7707213554531336,target,None,,,,,,,,,,,,,,,ST01_120922,2022-12-09_13h16.31.340,Hippopolis_4AFCT,2022.2.2,59.94839268076782,
TISZTÁS UTCA,stimuli/objects/017a.jpg,object,left,Camponello,0,stimuli/objects/017a.jpg,stimuli/objects/017b.jpg,stimuli/objects/088a.jpg,stimuli/objects/088b.jpg,stimuli/objects/017a.jpg,lure,dist1,dist2,target,0,29,29,157,,,,,140.91257081739604,141.97878469899297,141.97878469899297,141.97878469899297,141.97878469899297,141.97878469899297,141.97878469899297,141.97878469899297,141.97878469899297,141.97878469899297,141.97878469899297,145.41321739926934,k,3.65427278727293,target,None,,,,,,,,,,,,,,,ST01_120922,2022-12-09_13h16.31.340,Hippopolis_4AFCT,2022.2.2,59.94839268076782,
TERASZ UTCA,stimuli/objects/016a.jpg,object,left,Camponello,0,stimuli/objects/016a.jpg,stimuli/objects/016b.jpg,stimuli/objects/016a.jpg,stimuli/objects/081a.jpg,stimuli/objects/081b.jpg,lure,target,dist1,dist2,0,30,30,102,,,,,145.66256552934647,146.71683832257986,146.71683832257986,146.71683832257986,146.71683832257986,146.71683832257986,146.71683832257986,146.71683832257986,146.71683832257986,146.71683832257986,146.71683832257986,150.1630164887756,j,3.4442582577466965,dist1,None,,,,,,,,,,,,,,,ST01_120922,2022-12-09_13h16.31.340,Hippopolis_4AFCT,2022.2.2,59.94839268076782,
MARTINI UTCA,stimuli/scenes/001a.jpg,scene,right,Camponello,0,stimuli/scenes/001a.jpg,stimuli/scenes/001a.jpg,stimuli/objects/053b.jpg,stimuli/objects/053a.jpg,stimuli/scenes/001b.jpg,target,dist2,dist1,lure,0,31,31,130,,,,,150.17919815145433,151.23947896435857,151.23947896435857,151.23947896435857,151.23947896435857,151.23947896435857,151.23947896435857,151.23947896435857,151.23947896435857,151.23947896435857,151.23947896435857,,d,3.3052281383424997,target,None,,,,,,,,,,,,,,,ST01_120922,2022-12-09_13h16.31.340,Hippopolis_4AFCT,2022.2.2,59.94839268076782,
CSILLAG UTCA,stimuli/objects/119a.jpg,object,left,Camponello,0,stimuli/objects/119a.jpg,stimuli/scenes/062a.jpg,stimuli/scenes/062b.jpg,stimuli/objects/119a.jpg,stimuli/objects/119b.jpg,dist1,dist2,target,lure,0,32,32,115,,,,,154.5622808970511,155.5864837244153,155.5864837244153,155.5864837244153,155.5864837244153,155.5864837244153,155.5864837244153,155.5864837244153,155.5864837244153,155.5864837244153,155.5864837244153,,f,2.5101406071335077,dist2,None,155.5864837244153,,,,,,,,,,,,,,ST01_120922,2022-12-09_13h16.31.340,Hippopolis_4AFCT,2022.2.2,59.94839268076782,
ÁLLOMÁS UTCA,stimuli/scenes/053a.jpg,scene,right,Hippopolis,0,stimuli/scenes/053a.jpg,stimuli/objects/091a.jpg,stimuli/scenes/053b.jpg,stimuli/scenes/053a.jpg,stimuli/objects/091b.jpg,dist1,lure,target,dist2,0,33,33,7,,,,,158.1289538256824,159.1961871869862,159.1961871869862,159.1961871869862,159.1961871869862,159.1961871869862,159.1961871869862,159.1961871869862,159.1961871869862,159.1961871869862,159.1961871869862,162.62946511991322,j,4.131819682195783,target,None,159.1961871869862,,,,,,,,,,,,,,ST01_120922,2022-12-09_13h16.31.340,Hippopolis_4AFCT,2022.2.2,59.94839268076782,
FOGAS UTCA,stimuli/scenes/115a.jpg,scene,right,Hippopolis,1,stimuli/scenes/018a.jpg,stimuli/scenes/018a.jpg,stimuli/objects/110a.jpg,stimuli/objects/110b.jpg,stimuli/scenes/018b.jpg,target,dist1,dist2,lure,0,34,34,5,,,,,163.36217129789293,164.39434522017837,164.39434522017837,164.39434522017837,164.39434522017837,164.39434522017837,164.39434522017837,164.39434522017837,164.39434522017837,164.39434522017837,164.39434522017837,,d,3.2857302129268646,target,None,,,,,,,,,,,,,,,ST01_120922,2022-12-09_13h16.31.340,Hippopolis_4AFCT,2022.2.2,59.94839268076782,
TALICSKA UTCA,stimuli/scenes/088a.jpg,scene,right,Camponello,0,stimuli/scenes/088a.jpg,stimuli/scenes/095a.jpg,stimuli/scenes/095b.jpg,stimuli/scenes/088a.jpg,stimuli/scenes/088b.jpg,dist1,dist2,target,lure,0,35,35,89,,,,,167.71229824982584,168.75833559408784,168.75833559408784,168.75833559408784,168.75833559408784,168.75833559408784,168.75833559408784,168.75833559408784,168.75833559408784,168.75833559408784,168.75833559408784,,j,2.3302140794694424,target,None,,,,,,,,,,,,,,,ST01_120922,2022-12-09_13h16.31.340,Hippopolis_4AFCT,2022.2.2,59.94839268076782,
HARCSA UTCA,stimuli/objects/051a.jpg,object,left,Camponello,0,stimuli/objects/051a.jpg,stimuli/scenes/001b.jpg,stimuli/scenes/001a.jpg,stimuli/objects/051a.jpg,stimuli/objects/051b.jpg,dist2,dist1,target,lure,0,36,36,90,,,,,171.11255663447082,172.15298373438418,172.15298373438418,172.15298373438418,172.15298373438418,172.15298373438418,172.15298373438418,172.15298373438418,172.15298373438418,172.15298373438418,172.15298373438418,,j,2.6639018561691046,target,None,,,,,,,,,,,,,,,ST01_120922,2022-12-09_13h16.31.340,Hippopolis_4AFCT,2022.2.2,59.94839268076782,
ZÁSZLÓ UTCA,stimuli/objects/005a.jpg,object,left,Hippopolis,1,stimuli/objects/013a.jpg,stimuli/objects/071b.jpg,stimuli/objects/013a.jpg,stimuli/objects/013b.jpg,stimuli/objects/071a.jpg,dist2,target,lure,dist1,0,37,37,70,,,,,174.84656095318496,175.91523583047092,175.91523583047092,175.91523583047092,175.91523583047092,175.91523583047092,175.91523583047092,175.91523583047092,175.91523583047092,175.91523583047092,175.91523583047092,179.3459006883204,f,3.765359604731202,target,None,,,,,,,,,,,,,,,ST01_120922,2022-12-09_13h16.31.340,Hippopolis_4AFCT,2022.2.2,59.94839268076782,
BÚJÓCSKA UTCA,stimuli/objects/109a.jpg,object,left,Camponello,1,stimuli/objects/052a.jpg,stimuli/objects/052b.jpg,stimuli/objects/052a.jpg,stimuli/objects/100a.jpg,stimuli/objects/100b.jpg,lure,target,dist1,dist2,0,38,38,141,,,,,179.69818913377821,180.75296046957374,180.75296046957374,180.75296046957374,180.75296046957374,180.75296046957374,180.75296046957374,180.75296046957374,180.75296046957374,180.75296046957374,180.75296046957374,,d,2.8001770824193954,lure,None,,,,,,,,,,,,,,,ST01_120922,2022-12-09_13h16.31.340,Hippopolis_4AFCT,2022.2.2,59.94839268076782,
FÉSŰ UTCA,stimuli/scenes/114a.jpg,scene,right,Hippopolis,0,stimuli/scenes/114a.jpg,stimuli/scenes/077a.jpg,stimuli/scenes/077b.jpg,stimuli/scenes/114b.jpg,stimuli/scenes/114a.jpg,dist1,dist2,lure,target,0,39,39,12,,,,,183.58011618070304,184.6541724000126,184.6541724000126,184.6541724000126,184.6541724000126,184.6541724000126,184.6541724000126,184.6541724000126,184.6541724000126,184.6541724000126,184.6541724000126,,k,2.9941122699528933,target,None,,,,,,,,,,,,,,,ST01_120922,2022-12-09_13h16.31.340,Hippopolis_4AFCT,2022.2.2,59.94839268076782,
PÁLMAFA UTCA,stimuli/objects/080a.jpg,object,left,Hippopolis,2,stimuli/scenes/009a.jpg,stimuli/objects/098a.jpg,stimuli/objects/098b.jpg,stimuli/scenes/009b.jpg,stimuli/scenes/009a.jpg,dist1,dist2,lure,target,0,40,40,56,,,,,187.6720005311072,188.7007941249758,188.7007941249758,188.7007941249758,188.7007941249758,188.7007941249758,188.7007941249758,188.7007941249758,188.7007941249758,188.7007941249758,188.7007941249758,,k,2.899267140775919,target,None,,,,,,,,,,,,,,,ST01_120922,2022-12-09_13h16.31.340,Hippopolis_4AFCT,2022.2.2,59.94839268076782,
LEGELŐ UTCA,stimuli/objects/037a.jpg,object,left,Camponello,0,stimuli/objects/037a.jpg,stimuli/objects/037b.jpg,stimuli/scenes/021a.jpg,stimuli/objects/037a.jpg,stimuli/scenes/021b.jpg,lure,dist1,target,dist2,0,41,41,123,,,,,191.62846523337066,192.65346610546112,192.65346610546112,192.65346610546112,192.65346610546112,192.65346610546112,192.65346610546112,192.65346610546112,192.65346610546112,192.65346610546112,192.65346610546112,,j,2.6907308232039213,target,None,,,,,,,,,,,,,,,ST01_120922,2022-12-09_13h16.31.340,Hippopolis_4AFCT,2022.2.2,59.94839268076782,
SÜTEMÉNY UTCA,stimuli/objects/117a.jpg,object,left,Hippopolis,1,stimuli/objects/008a.jpg,stimuli/objects/008a.jpg,stimuli/objects/115a.jpg,stimuli/objects/115b.jpg,stimuli/objects/008b.jpg,target,dist1,dist2,lure,0,42,42,14,,,,,195.36203134432435,196.40901197120547,196.40901197120547,196.40901197120547,196.40901197120547,196.40901197120547,196.40901197120547,196.40901197120547,196.40901197120547,196.40901197120547,196.40901197120547,,f,2.759658547118306,dist1,None,,,,,,,,,,,,,,,ST01_120922,2022-12-09_13h16.31.340,Hippopolis_4AFCT,2022.2.2,59.94839268076782,
TÁSKA UTCA,stimuli/scenes/083a.jpg,scene,right,Camponello,0,stimuli/scenes/083a.jpg,stimuli/objects/119a.jpg,stimuli/scenes/083b.jpg,stimuli/scenes/083a.jpg,stimuli/objects/119b.jpg,dist1,lure,target,dist2,0,43,43,96,,,,,199.19516584090889,200.23368211649358,200.23368211649358,200.23368211649358,200.23368211649358,200.23368211649358,200.23368211649358,200.23368211649358,200.23368211649358,200.23368211649358,200.23368211649358,,j,3.3665859661996365,target,None,,,,,,,,,,,,,,,ST01_120922,2022-12-09_13h16.31.340,Hippopolis_4AFCT,2022.2.2,59.94839268076782,
POLIP UTCA,stimuli/scenes/090a.jpg,scene,right,Hippopolis,0,stimuli/scenes/090a.jpg,stimuli/objects/024a.jpg,stimuli/scenes/090b.jpg,stimuli/scenes/090a.jpg,stimuli/objects/024b.jpg,dist1,lure,target,dist2,0,44,44,10,,,,,203.63349265232682,204.66533752903342,204.66533752903342,204.66533752903342,204.66533752903342,204.66533752903342,204.66533752903342,204.66533752903342,204.66533752903342,204.66533752903342,204.66533752903342,208.1372782215476,j,3.7025913633406162,target,space,,208.38641486875713,208.38641486875713,5.790032675489783,,,,,,,,,,,ST01_120922,2022-12-09_13h16.31.340,Hippopolis_4AFCT,2022.2.2,59.94839268076782,
EGÉR UTCA,stimuli/objects/029a.jpg,object,left,Hippopolis,2,stimuli/scenes/017a.jpg,stimuli/scenes/016b.jpg,stimuli/scenes/017b.jpg,stimuli/scenes/016a.jpg,stimuli/scenes/017a.jpg,dist2,lure,dist1,target,0,45,45,54,,,,,214.2033303808421,215.22076415643096,215.22076415643096,215.22076415643096,215.22076415643096,215.22076415643096,215.22076415643096,215.22076415643096,215.22076415643096,215.22076415643096,215.22076415643096,218.69544108211994,k,3.5952185839414597,target,None,215.22076415643096,,,,,,,,,,,,,,ST01_120922,2022-12-09_13h16.31.340,Hippopolis_4AFCT,2022.2.2,59.94839268076782,
CITROM UTCA,stimuli/scenes/005a.jpg,scene,right,Camponello,0,stimuli/scenes/005a.jpg,stimuli/objects/069b.jpg,stimuli/scenes/005b.jpg,stimuli/objects/069a.jpg,stimuli/scenes/005a.jpg,dist2,lure,dist1,target,0,46,46,92,,,,,218.8449319023639,219.869225544855,219.869225544855,219.869225544855,219.869225544855,219.869225544855,219.869225544855,219.869225544855,219.869225544855,219.869225544855,219.869225544855,,d,1.9863265361636877,dist2,None,,,,,,,,,,,,,,,ST01_120922,2022-12-09_13h16.31.340,Hippopolis_4AFCT,2022.2.2,59.94839268076782,
FÓKA UTCA,stimuli/scenes/086a.jpg,scene,right,Camponello,0,stimuli/scenes/086a.jpg,stimuli/scenes/086a.jpg,stimuli/objects/026b.jpg,stimuli/scenes/086b.jpg,stimuli/objects/026a.jpg,target,dist2,lure,dist1,0,47,47,139,,,,,221.878101978451,222.90216298773885,222.90216298773885,222.90216298773885,222.90216298773885,222.90216298773885,222.90216298773885,222.90216298773885,222.90216298773885,222.90216298773885,222.90216298773885,226.3768218755722,f,4.649160776287317,dist2,None,222.90216298773885,,,,,,,,,,,,,,ST01_120922,2022-12-09_13h16.31.340,Hippopolis_4AFCT,2022.2.2,59.94839268076782,
NARANCS UTCA,stimuli/objects/099a.jpg,object,left,Camponello,0,stimuli/objects/099a.jpg,stimuli/objects/099a.jpg,stimuli/objects/099b.jpg,stimuli/scenes/037b.jpg,stimuli/scenes/037a.jpg,target,lure,dist2,dist1,0,48,48,99,,,,,227.58149238303304,228.62085304036736,228.62085304036736,228.62085304036736,228.62085304036736,228.62085304036736,228.62085304036736,228.62085304036736,228.62085304036736,228.62085304036736,228.62085304036736,,d,1.955339103937149,target,None,,,,,,,,,,,,,,,ST01_120922,2022-12-09_13h16.31.340,Hippopolis_4AFCT,2022.2.2,59.94839268076782,
FÜGE UTCA,stimuli/scenes/076a.jpg,scene,right,Hippopolis,2,stimuli/objects/059a.jpg,stimuli/objects/059b.jpg,stimuli/scenes/101a.jpg,stimuli/scenes/101b.jpg,stimuli/objects/059a.jpg,lure,dist1,dist2,target,0,49,49,33,,,,,230.59498072974384,231.63110225647688,231.63110225647688,231.63110225647688,231.63110225647688,231.63110225647688,231.63110225647688,231.63110225647688,231.63110225647688,231.63110225647688,231.63110225647688,,f,2.48027528449893,dist1,None,,,,,,,,,,,,,,,ST01_120922,2022-12-09_13h16.31.340,Hippopolis_4AFCT,2022.2.2,59.94839268076782,
PAPUCS UTCA,stimuli/objects/097a.jpg,object,left,Hippopolis,0,stimuli/objects/097a.jpg,stimuli/objects/097a.jpg,stimuli/objects/066a.jpg,stimuli/objects/097b.jpg,stimuli/objects/066b.jpg,target,dist1,lure,dist2,0,50,50,43,,,,,234.13206046819687,235.2095536198467,235.2095536198467,235.2095536198467,235.2095536198467,235.2095536198467,235.2095536198467,235.2095536198467,235.2095536198467,235.2095536198467,235.2095536198467,,j,2.758654309436679,lure,None,,,,,,,,,,,,,,,ST01_120922,2022-12-09_13h16.31.340,Hippopolis_4AFCT,2022.2.2,59.94839268076782,
SZAPPAN UTCA,stimuli/objects/092a.jpg,object,left,Hippopolis,2,stimuli/scenes/061a.jpg,stimuli/scenes/061b.jpg,stimuli/objects/036a.jpg,stimuli/objects/036b.jpg,stimuli/scenes/061a.jpg,lure,dist1,dist2,target,0,51,51,42,,,,,237.99484195932746,239.06698020361364,239.06698020361364,239.06698020361364,239.06698020361364,239.06698020361364,239.06698020361364,239.06698020361364,239.06698020361364,239.06698020361364,239.06698020361364,242.49520956911147,f,3.588435221463442,dist1,None,,,,,,,,,,,,,,,ST01_120922,2022-12-09_13h16.31.340,Hippopolis_4AFCT,2022.2.2,59.94839268076782,
TELEFON UTCA,stimuli/objects/076a.jpg,object,left,Hippopolis,1,stimuli/objects/094a.jpg,stimuli/scenes/045a.jpg,stimuli/objects/094b.jpg,stimuli/objects/094a.jpg,stimuli/scenes/045b.jpg,dist1,lure,target,dist2,0,52,52,67,,,,,242.67808101698756,243.69783054478467,243.69783054478467,243.69783054478467,243.69783054478467,243.69783054478467,243.69783054478467,243.69783054478467,243.69783054478467,243.69783054478467,243.69783054478467,,f,1.966411553323269,lure,None,,,,,,,,,,,,,,,ST01_120922,2022-12-09_13h16.31.340,Hippopolis_4AFCT,2022.2.2,59.94839268076782,
TOLLTARTÓ UTCA,stimuli/scenes/106a.jpg,scene,right,Hippopolis,2,stimuli/objects/050a.jpg,stimuli/objects/025b.jpg,stimuli/objects/050a.jpg,stimuli/objects/050b.jpg,stimuli/objects/025a.jpg,dist2,target,lure,dist1,0,53,53,64,,,,,245.6929014045745,246.75000373274088,246.75000373274088,246.75000373274088,246.75000373274088,246.75000373274088,246.75000373274088,246.75000373274088,246.75000373274088,246.75000373274088,246.75000373274088,,j,1.649904079735279,lure,None,,,,,,,,,,,,,,,ST01_120922,2022-12-09_13h16.31.340,Hippopolis_4AFCT,2022.2.2,59.94839268076782,
LÁNDZSA UTCA,stimuli/scenes/055a.jpg,scene,right,Hippopolis,2,stimuli/objects/070a.jpg,stimuli/objects/070b.jpg,stimuli/scenes/061b.jpg,stimuli/objects/070a.jpg,stimuli/scenes/061a.jpg,lure,dist2,target,dist1,0,54,54,69,,,,,248.42816654406488,249.45300537906587,249.45300537906587,249.45300537906587,249.45300537906587,249.45300537906587,249.45300537906587,249.45300537906587,249.45300537906587,249.45300537906587,249.45300537906587,,j,3.2662033662199974,target,None,,,,,,,,,,,,,,,ST01_120922,2022-12-09_13h16.31.340,Hippopolis_4AFCT,2022.2.2,59.94839268076782,
BONBON UTCA,stimuli/scenes/071a.jpg,scene,right,Hippopolis,2,stimuli/objects/078a.jpg,stimuli/objects/111b.jpg,stimuli/objects/078a.jpg,stimuli/objects/078b.jpg,stimuli/objects/111a.jpg,dist2,target,lure,dist1,0,55,55,52,,,,,252.74470045231283,253.7825990691781,253.7825990691781,253.7825990691781,253.7825990691781,253.7825990691781,253.7825990691781,253.7825990691781,253.7825990691781,253.7825990691781,253.7825990691781,257.242929270491,j,3.464632907882333,lure,None,,,,,,,,,,,,,,,ST01_120922,2022-12-09_13h16.31.340,Hippopolis_4AFCT,2022.2.2,59.94839268076782,
DOMINÓ UTCA,stimuli/objects/091a.jpg,object,left,Hippopolis,0,stimuli/objects/091a.jpg,stimuli/scenes/119b.jpg,stimuli/objects/091a.jpg,stimuli/scenes/119a.jpg,stimuli/objects/091b.jpg,dist2,target,dist1,lure,0,56,56,21,,,,,257.28561116568744,258.331781309098,258.331781309098,258.331781309098,258.331781309098,258.331781309098,258.331781309098,258.331781309098,258.331781309098,258.331781309098,258.331781309098,261.7788495756686,j,4.148207852616906,dist1,None,,,,,,,,,,,,,,,ST01_120922,2022-12-09_13h16.31.340,Hippopolis_4AFCT,2022.2.2,59.94839268076782,
HEGESZTŐ UTCA,stimuli/objects/031a.jpg,object,left,Camponello,0,stimuli/objects/031a.jpg,stimuli/objects/003a.jpg,stimuli/objects/031a.jpg,stimuli/objects/031b.jpg,stimuli/objects/003b.jpg,dist1,target,lure,dist2,0,57,57,93,,,,,262.4971172828227,263.55779525078833,263.55779525078833,263.55779525078833,263.55779525078833,263.55779525078833,263.55779525078833,263.55779525078833,263.55779525078833,263.55779525078833,263.55779525078833,,d,1.9139058999717236,dist1,None,,,,,,,,,,,,,,,ST01_120922,2022-12-09_13h16.31.340,Hippopolis_4AFCT,2022.2.2,59.94839268076782,
TORONY UTCA,stimuli/scenes/112a.jpg,scene,right,Camponello,0,stimuli/scenes/112a.jpg,stimuli/scenes/112b.jpg,stimuli/scenes/112a.jpg,stimuli/scenes/086a.jpg,stimuli/scenes/086b.jpg,lure,target,dist1,dist2,0,58,58,145,,,,,265.4942995645106,266.5295412540436,266.5295412540436,266.5295412540436,266.5295412540436,266.5295412540436,266.5295412540436,266.5295412540436,266.5295412540436,266.5295412540436,266.5295412540436,269.9813887551427,f,4.109321478754282,target,None,,,,,,,,,,,,,,,ST01_120922,2022-12-09_13h16.31.340,Hippopolis_4AFCT,2022.2.2,59.94839268076782,
GYŰRŰ UTCA,stimuli/objects/079a.jpg,object,left,Camponello,0,stimuli/objects/079a.jpg,stimuli/objects/079a.jpg,stimuli/objects/037b.jpg,stimuli/objects/037a.jpg,stimuli/objects/079b.jpg,target,dist2,dist1,lure,0,59,59,100,,,,,270.6692503001541,271.7141664661467,271.7141664661467,271.7141664661467,271.7141664661467,271.7141664661467,271.7141664661467,271.7141664661467,271.7141664661467,271.7141664661467,271.7141664661467,,d,2.8934105783700943,target,None,,,,,,,,,,,,,,,ST01_120922,2022-12-09_13h16.31.340,Hippopolis_4AFCT,2022.2.2,59.94839268076782,
ZONGORA UTCA,stimuli/objects/064a.jpg,object,left,Camponello,2,stimuli/scenes/094a.jpg,stimuli/scenes/108b.jpg,stimuli/scenes/094b.jpg,stimuli/scenes/108a.jpg,stimuli/scenes/094a.jpg,dist2,lure,dist1,target,0,60,60,101,,,,,274.62748774141073,275.6977904252708,275.6977904252708,275.6977904252708,275.6977904252708,275.6977904252708,275.6977904252708,275.6977904252708,275.6977904252708,275.6977904252708,275.6977904252708,279.12804972939193,k,3.4531539734452963,target,None,,,,,,,,,,,,,,,ST01_120922,2022-12-09_13h16.31.340,Hippopolis_4AFCT,2022.2.2,59.94839268076782,
LOVAGLÁS UTCA,stimuli/scenes/048a.jpg,scene,right,Camponello,2,stimuli/objects/057a.jpg,stimuli/objects/019b.jpg,stimuli/objects/057a.jpg,stimuli/objects/019a.jpg,stimuli/objects/057b.jpg,dist2,target,dist1,lure,0,61,61,135,,,,,279.1789608541876,280.2335004899651,280.2335004899651,280.2335004899651,280.2335004899651,280.2335004899651,280.2335004899651,280.2335004899651,280.2335004899651,280.2335004899651,280.2335004899651,,j,2.6134404465556145,dist1,None,,,,,,,,,,,,,,,ST01_120922,2022-12-09_13h16.31.340,Hippopolis_4AFCT,2022.2.2,59.94839268076782,
MOSODA UTCA,stimuli/objects/024a.jpg,object,left,Hippopolis,0,stimuli/objects/024a.jpg,stimuli/objects/024b.jpg,stimuli/objects/024a.jpg,stimuli/objects/112a.jpg,stimuli/objects/112b.jpg,lure,target,dist1,dist2,0,62,62,23,,,,,282.87742491811514,283.91473697684705,283.91473697684705,283.91473697684705,283.91473697684705,283.91473697684705,283.91473697684705,283.91473697684705,283.91473697684705,283.91473697684705,283.91473697684705,,f,3.236904075369239,target,None,,,,,,,,,,,,,,,ST01_120922,2022-12-09_13h16.31.340,Hippopolis_4AFCT,2022.2.2,59.94839268076782,
SAJTÓ UTCA,stimuli/objects/106a.jpg,object,left,Hippopolis,2,stimuli/scenes/087a.jpg,stimuli/objects/054b.jpg,stimuli/scenes/087a.jpg,stimuli/objects/054a.jpg,stimuli/scenes/087b.jpg,dist2,target,dist1,lure,0,63,63,34,,,,,287.1774247922003,288.21540427207947,288.21540427207947,288.21540427207947,288.21540427207947,288.21540427207947,288.21540427207947,288.21540427207947,288.21540427207947,288.21540427207947,288.21540427207947,,k,1.944139763712883,lure,None,,,,,,,,,,,,,,,ST01_120922,2022-12-09_13h16.31.340,Hippopolis_4AFCT,2022.2.2,59.94839268076782,
BAGOLY UTCA,stimuli/objects/116a.jpg,object,left,Camponello,0,stimuli/objects/116a.jpg,stimuli/objects/016a.jpg,stimuli/objects/016b.jpg,stimuli/objects/116a.jpg,stimuli/objects/116b.jpg,dist1,dist2,target,lure,0,64,64,116,,,,,290.17759429104626,291.21596470475197,291.21596470475197,291.21596470475197,291.21596470475197,291.21596470475197,291.21596470475197,291.21596470475197,291.21596470475197,291.21596470475197,291.21596470475197,,j,2.046786490827799,target,None,,,,,,,,,,,,,,,ST01_120922,2022-12-09_13h16.31.340,Hippopolis_4AFCT,2022.2.2,59.94839268076782,
TRIATLON UTCA,stimuli/scenes/059a.jpg,scene,right,Camponello,0,stimuli/scenes/059a.jpg,stimuli/scenes/059b.jpg,stimuli/scenes/120a.jpg,stimuli/scenes/120b.jpg,stimuli/scenes/059a.jpg,lure,dist1,dist2,target,0,65,65,148,,,,,293.29411594569683,294.333237439394,294.333237439394,294.333237439394,294.333237439394,294.333237439394,294.333237439394,294.333237439394,294.333237439394,294.333237439394,294.333237439394,,f,2.866238260641694,dist1,None,,,,,,,,,,,,,,,ST01_120922,2022-12-09_13h16.31.340,Hippopolis_4AFCT,2022.2.2,59.94839268076782,
PAPAGÁJ UTCA,stimuli/objects/082a.jpg,object,left,Camponello,0,stimuli/objects/082a.jpg,stimuli/scenes/092a.jpg,stimuli/objects/082a.jpg,stimuli/scenes/092b.jpg,stimuli/objects/082b.jpg,dist1,target,dist2,lure,0,66,66,124,,,,,297.2273021321744,298.26475258916616,298.26475258916616,298.26475258916616,298.26475258916616,298.26475258916616,298.26475258916616,298.26475258916616,298.26475258916616,298.26475258916616,298.26475258916616,301.7278320863843,f,4.694848237559199,target,None,,,,,,,,,,,,,,,ST01_120922,2022-12-09_13h16.31.340,Hippopolis_4AFCT,2022.2.2,59.94839268076782,
HERNYÓ UTCA,stimuli/objects/010a.jpg,object,left,Hippopolis,2,stimuli/scenes/081a.jpg,stimuli/scenes/063a.jpg,stimuli/scenes/081b.jpg,stimuli/scenes/081a.jpg,stimuli/scenes/063b.jpg,dist1,lure,target,dist2,0,67,67,73,,,,,302.98712557926774,304.04230619966984,304.04230619966984,304.04230619966984,304.04230619966984,304.04230619966984,304.04230619966984,304.04230619966984,304.04230619966984,304.04230619966984,304.04230619966984,307.4776675645262,j,4.804262151941657,target,None,,,,,,,,,,,,,,,ST01_120922,2022-12-09_13h16.31.340,Hippopolis_4AFCT,2022.2.2,59.94839268076782,
VÖDÖR UTCA,stimuli/objects/093a.jpg,object,left,Camponello,1,stimuli/objects/014a.jpg,stimuli/objects/022a.jpg,stimuli/objects/014b.jpg,stimuli/objects/014a.jpg,stimuli/objects/022b.jpg,dist1,lure,target,dist2,0,68,68,97,,,,,308.868636187166,309.9310455285013,309.9310455285013,309.9310455285013,309.9310455285013,309.9310455285013,309.9310455285013,309.9310455285013,309.9310455285013,309.9310455285013,309.9310455285013,,d,2.94781088270247,dist1,None,,,,,,,,,,,,,,,ST01_120922,2022-12-09_13h16.31.340,Hippopolis_4AFCT,2022.2.2,59.94839268076782,
SZŐNYEG UTCA,stimuli/objects/026a.jpg,object,left,Camponello,0,stimuli/objects/026a.jpg,stimuli/objects/026a.jpg,stimuli/objects/099a.jpg,stimuli/objects/026b.jpg,stimuli/objects/099b.jpg,target,dist1,lure,dist2,0,69,69,117,,,,,312.90196549892426,313.9497625157237,313.9497625157237,313.9497625157237,313.9497625157237,313.9497625157237,313.9497625157237,313.9497625157237,313.9497625157237,313.9497625157237,313.9497625157237,317.39320196025074,d,4.081319397315383,target,None,313.9497625157237,,,,,,,,,,,,,,ST01_120922,2022-12-09_13h16.31.340,Hippopolis_4AFCT,2022.2.2,59.94839268076782,
KÁRTYA UTCA,stimuli/objects/061a.jpg,object,left,Camponello,2,stimuli/scenes/032a.jpg,stimuli/objects/118a.jpg,stimuli/objects/118b.jpg,stimuli/scenes/032b.jpg,stimuli/scenes/032a.jpg,dist1,dist2,lure,target,0,70,70,82,,,,,318.06046088784933,319.11498497240245,319.11498497240245,319.11498497240245,319.11498497240245,319.11498497240245,319.11498497240245,319.11498497240245,319.11498497240245,319.11498497240245,319.11498497240245,322.5700206011534,k,3.6838358100503683,target,None,,,,,,,,,,,,,,,ST01_120922,2022-12-09_13h16.31.340,Hippopolis_4AFCT,2022.2.2,59.94839268076782,
KANÁL UTCA,stimuli/objects/006a.jpg,object,left,Hippopolis,1,stimuli/objects/114a.jpg,stimuli/objects/114a.jpg,stimuli/objects/094b.jpg,stimuli/objects/094a.jpg,stimuli/objects/114b.jpg,target,dist2,dist1,lure,0,71,71,32,,,,,322.8267324306071,323.86505339480937,323.86505339480937,323.86505339480937,323.86505339480937,323.86505339480937,323.86505339480937,323.86505339480937,323.86505339480937,323.86505339480937,323.86505339480937,,d,2.4860015343874693,target,None,,,,,,,,,,,,,,,ST01_120922,2022-12-09_13h16.31.340,Hippopolis_4AFCT,2022.2.2,59.94839268076782,
SIVATAG UTCA,stimuli/scenes/084a.jpg,scene,right,Hippopolis,2,stimuli/objects/102a.jpg,stimuli/objects/102b.jpg,stimuli/objects/102a.jpg,stimuli/objects/059a.jpg,stimuli/objects/059b.jpg,lure,target,dist1,dist2,0,72,72,19,,,,,326.3771555852145,327.42451781593263,327.42451781593263,327.42451781593263,327.42451781593263,327.42451781593263,327.42451781593263,327.42451781593263,327.42451781593263,327.42451781593263,327.42451781593263,,d,2.5422775205224752,lure,None,,,,,,,,,,,,,,,ST01_120922,2022-12-09_13h16.31.340,Hippopolis_4AFCT,2022.2.2,59.94839268076782,
RÓZSA UTCA,stimuli/objects/028a.jpg,object,left,Hippopolis,0,stimuli/objects/028a.jpg,stimuli/scenes/044a.jpg,stimuli/objects/028b.jpg,stimuli/scenes/044b.jpg,stimuli/objects/028a.jpg,dist1,lure,dist2,target,0,73,73,78,,,,,329.99373415485024,331.0473482348025,331.0473482348025,331.0473482348025,331.0473482348025,331.0473482348025,331.0473482348025,331.0473482348025,331.0473482348025,331.0473482348025,331.0473482348025,,f,3.2549698166549206,lure,None,,,,,,,,,,,,,,,ST01_120922,2022-12-09_13h16.31.340,Hippopolis_4AFCT,2022.2.2,59.94839268076782,
KULLANCS UTCA,stimuli/scenes/074a.jpg,scene,right,Hippopolis,1,stimuli/scenes/045a.jpg,stimuli/scenes/098b.jpg,stimuli/scenes/045b.jpg,stimuli/scenes/045a.jpg,stimuli/scenes/098a.jpg,dist2,lure,target,dist1,0,74,74,50,,,,,334.32714575715363,335.3566129915416,335.3566129915416,335.3566129915416,335.3566129915416,335.3566129915416,335.3566129915416,335.3566129915416,335.3566129915416,335.3566129915416,335.3566129915416,,k,2.6739047560840845,dist1,None,,,,,,,,,,,,,,,ST01_120922,2022-12-09_13h16.31.340,Hippopolis_4AFCT,2022.2.2,59.94839268076782,
TULIPÁN UTCA,stimuli/objects/088a.jpg,object,left,Camponello,0,stimuli/objects/088a.jpg,stimuli/objects/085a.jpg,stimuli/objects/088b.jpg,stimuli/objects/088a.jpg,stimuli/objects/085b.jpg,dist1,lure,target,dist2,0,75,75,103,,,,,338.0604639966041,339.10070760175586,339.10070760175586,339.10070760175586,339.10070760175586,339.10070760175586,339.10070760175586,339.10070760175586,339.10070760175586,339.10070760175586,339.10070760175586,,j,1.4897457417100668,target,None,,,,,,,,,,,,,,,ST01_120922,2022-12-09_13h16.31.340,Hippopolis_4AFCT,2022.2.2,59.94839268076782,
LABDA UTCA,stimuli/objects/062a.jpg,object,left,Hippopolis,1,stimuli/objects/120a.jpg,stimuli/scenes/075a.jpg,stimuli/scenes/075b.jpg,stimuli/objects/120b.jpg,stimuli/objects/120a.jpg,dist1,dist2,lure,target,0,76,76,55,,,,,340.61007635854185,341.64371325448155,341.64371325448155,341.64371325448155,341.64371325448155,341.64371325448155,341.64371325448155,341.64371325448155,341.64371325448155,341.64371325448155,341.64371325448155,,d,2.5628664530813694,dist1,None,,,,,,,,,,,,,,,ST01_120922,2022-12-09_13h16.31.340,Hippopolis_4AFCT,2022.2.2,59.94839268076782,
TOBOZ UTCA,stimuli/objects/096a.jpg,object,left,Hippopolis,2,stimuli/scenes/036a.jpg,stimuli/scenes/036b.jpg,stimuli/scenes/036a.jpg,stimuli/scenes/081b.jpg,stimuli/scenes/081a.jpg,lure,target,dist2,dist1,0,77,77,58,,,,,344.226941363886,345.2556404117495,345.2556404117495,345.2556404117495,345.2556404117495,345.2556404117495,345.2556404117495,345.2556404117495,345.2556404117495,345.2556404117495,345.2556404117495,,j,3.0947424322366714,dist2,None,,,,,,,,,,,,,,,ST01_120922,2022-12-09_13h16.31.340,Hippopolis_4AFCT,2022.2.2,59.94839268076782,
KECSKE UTCA,stimuli/scenes/116a.jpg,scene,right,Camponello,0,stimuli/scenes/116a.jpg,stimuli/scenes/024a.jpg,stimuli/scenes/116b.jpg,stimuli/scenes/116a.jpg,stimuli/scenes/024b.jpg,dist1,lure,target,dist2,0,78,78,110,,,,,348.3768629282713,349.4115137066692,349.4115137066692,349.4115137066692,349.4115137066692,349.4115137066692,349.4115137066692,349.4115137066692,349.4115137066692,349.4115137066692,349.4115137066692,,j,1.9310022331774235,target,None,,,,,,,,,,,,,,,ST01_120922,2022-12-09_13h16.31.340,Hippopolis_4AFCT,2022.2.2,59.94839268076782,
ZEBRA UTCA,stimuli/scenes/035a.jpg,scene,right,Camponello,0,stimuli/scenes/035a.jpg,stimuli/scenes/035b.jpg,stimuli/objects/090b.jpg,stimuli/scenes/035a.jpg,stimuli/objects/090a.jpg,lure,dist2,target,dist1,0,79,79,86,,,,,351.3753458391875,352.425629042089,352.425629042089,352.425629042089,352.425629042089,352.425629042089,352.425629042089,352.425629042089,352.425629042089,352.425629042089,352.425629042089,,f,2.708979746326804,dist2,None,,,,,,,,,,,,,,,ST01_120922,2022-12-09_13h16.31.340,Hippopolis_4AFCT,2022.2.2,59.94839268076782,
MOTOR UTCA,stimuli/objects/004a.jpg,object,left,Camponello,2,stimuli/scenes/079a.jpg,stimuli/objects/073a.jpg,stimuli/scenes/079a.jpg,stimuli/scenes/079b.jpg,stimuli/objects/073b.jpg,dist1,target,lure,dist2,0,80,80,122,,,,,355.15516824275255,356.1954342406243,356.1954342406243,356.1954342406243,356.1954342406243,356.1954342406243,356.1954342406243,356.1954342406243,356.1954342406243,356.1954342406243,356.1954342406243,,k,3.1307358238846064,dist2,None,,,,,,,,,,,,,,,ST01_120922,2022-12-09_13h16.31.340,Hippopolis_4AFCT,2022.2.2,59.94839268076782,
HAJÓ UTCA,stimuli/scenes/110a.jpg,scene,right,Hippopolis,0,stimuli/scenes/110a.jpg,stimuli/scenes/110a.jpg,stimuli/scenes/053a.jpg,stimuli/scenes/110b.jpg,stimuli/scenes/053b.jpg,target,dist1,lure,dist2,0,81,81,2,,,,,359.35430501401424,360.4202539194375,360.4202539194375,360.4202539194375,360.4202539194375,360.4202539194375,360.4202539194375,360.4202539194375,360.4202539194375,360.4202539194375,360.4202539194375,363.8437419924885,j,3.8498982954770327,lure,None,,,,,,,,,,,,,,,ST01_120922,2022-12-09_13h16.31.340,Hippopolis_4AFCT,2022.2.2,59.94839268076782,
SZIKLA UTCA,stimuli/scenes/102a.jpg,scene,right,Hippopolis,2,stimuli/objects/111a.jpg,stimuli/objects/078b.jpg,stimuli/objects/111a.jpg,stimuli/objects/111b.jpg,stimuli/objects/078a.jpg,dist2,target,lure,dist1,0,82,82,59,,,,,364.2882814668119,365.3361441064626,365.3361441064626,365.3361441064626,365.3361441064626,365.3361441064626,365.3361441064626,365.3361441064626,365.3361441064626,365.3361441064626,365.3361441064626,,k,2.502430759370327,dist1,None,,,,,,,,,,,,,,,ST01_120922,2022-12-09_13h16.31.340,Hippopolis_4AFCT,2022.2.2,59.94839268076782,
ÜVEG UTCA,stimuli/scenes/066a.jpg,scene,right,Hippopolis,2,stimuli/objects/025a.jpg,stimuli/objects/025b.jpg,stimuli/objects/065a.jpg,stimuli/objects/025a.jpg,stimuli/objects/065b.jpg,lure,dist1,target,dist2,0,83,83,51,,,,,367.8616786636412,368.92509131133556,368.92509131133556,368.92509131133556,368.92509131133556,368.92509131133556,368.92509131133556,368.92509131133556,368.92509131133556,368.92509131133556,368.92509131133556,,j,2.2895185835659504,target,None,,,,,,,,,,,,,,,ST01_120922,2022-12-09_13h16.31.340,Hippopolis_4AFCT,2022.2.2,59.94839268076782,
BETON UTCA,stimuli/scenes/031a.jpg,scene,right,Camponello,0,stimuli/scenes/031a.jpg,stimuli/scenes/047a.jpg,stimuli/scenes/031a.jpg,stimuli/scenes/047b.jpg,stimuli/scenes/031b.jpg,dist1,target,dist2,lure,0,84,84,128,,,,,371.2433152291924,372.2742398381233,372.2742398381233,372.2742398381233,372.2742398381233,372.2742398381233,372.2742398381233,372.2742398381233,372.2742398381233,372.2742398381233,372.2742398381233,,f,2.1558243986219168,target,None,,,,,,,,,,,,,,,ST01_120922,2022-12-09_13h16.31.340,Hippopolis_4AFCT,2022.2.2,59.94839268076782,
ZSEMLE UTCA,stimuli/scenes/105a.jpg,scene,right,Camponello,0,stimuli/scenes/105a.jpg,stimuli/scenes/105a.jpg,stimuli/objects/038a.jpg,stimuli/objects/038b.jpg,stimuli/scenes/105b.jpg,target,dist1,dist2,lure,0,85,85,120,,,,,374.46808452531695,375.52902684919536,375.52902684919536,375.52902684919536,375.52902684919536,375.52902684919536,375.52902684919536,375.52902684919536,375.52902684919536,375.52902684919536,375.52902684919536,,f,2.4686470683664083,dist1,None,,,,,,,,,,,,,,,ST01_120922,2022-12-09_13h16.31.340,Hippopolis_4AFCT,2022.2.2,59.94839268076782,
KATONA UTCA,stimuli/objects/039a.jpg,object,left,Hippopolis,1,stimuli/objects/115a.jpg,stimuli/objects/063a.jpg,stimuli/objects/063b.jpg,stimuli/objects/115a.jpg,stimuli/objects/115b.jpg,dist1,dist2,target,lure,0,86,86,28,,,,,378.02661312930286,379.0747572295368,379.0747572295368,379.0747572295368,379.0747572295368,379.0747572295368,379.0747572295368,379.0747572295368,379.0747572295368,379.0747572295368,379.0747572295368,,k,3.0511894077062607,lure,None,,,,,,,,,,,,,,,ST01_120922,2022-12-09_13h16.31.340,Hippopolis_4AFCT,2022.2.2,59.94839268076782,
ASZTAL UTCA,stimuli/scenes/047a.jpg,scene,right,Camponello,0,stimuli/scenes/047a.jpg,stimuli/scenes/059a.jpg,stimuli/scenes/047a.jpg,stimuli/scenes/047b.jpg,stimuli/scenes/059b.jpg,dist1,target,lure,dist2,0,87,87,114,,,,,382.1570946164429,383.18624089099467,383.18624089099467,383.18624089099467,383.18624089099467,383.18624089099467,383.18624089099467,383.18624089099467,383.18624089099467,383.18624089099467,383.18624089099467,386.6435505989939,f,3.9638600572943687,target,None,,,,,,,,,,,,,,,ST01_120922,2022-12-09_13h16.31.340,Hippopolis_4AFCT,2022.2.2,59.94839268076782,
SZOBOR UTCA,stimuli/scenes/082a.jpg,scene,right,Camponello,0,stimuli/scenes/082a.jpg,stimuli/scenes/041b.jpg,stimuli/scenes/041a.jpg,stimuli/scenes/082b.jpg,stimuli/scenes/082a.jpg,dist2,dist1,lure,target,0,88,88,159,,,,,387.1761474888772,388.1924669276923,388.1924669276923,388.1924669276923,388.1924669276923,388.1924669276923,388.1924669276923,388.1924669276923,388.1924669276923,388.1924669276923,388.1924669276923,,f,2.637670023366809,dist1,None,388.1924669276923,,,,,,,,,,,,,,ST01_120922,2022-12-09_13h16.31.340,Hippopolis_4AFCT,2022.2.2,59.94839268076782,
FIÓK UTCA,stimuli/scenes/062a.jpg,scene,right,Camponello,0,stimuli/scenes/062a.jpg,stimuli/scenes/062a.jpg,stimuli/objects/011b.jpg,stimuli/objects/011a.jpg,stimuli/scenes/062b.jpg,target,dist2,dist1,lure,0,89,89,129,,,,,390.8594571445137,391.88216931931674,391.88216931931674,391.88216931931674,391.88216931931674,391.88216931931674,391.88216931931674,391.88216931931674,391.88216931931674,391.88216931931674,391.88216931931674,395.36014726758003,f,4.355925910174847,dist2,space,391.88216931931674,396.2594735659659,396.2594735659659,5.16264445707202,,,,,,,,,,,ST01_120922,2022-12-09_13h16.31.340,Hippopolis_4AFCT,2022.2.2,59.94839268076782,
OLDAL UTCA,stimuli/objects/056a.jpg,object,left,Hippopolis,1,stimuli/objects/055a.jpg,stimuli/scenes/078a.jpg,stimuli/scenes/078b.jpg,stimuli/objects/055b.jpg,stimuli/objects/055a.jpg,dist1,dist2,lure,target,0,90,90,16,,,,,401.4531521741301,402.4913033284247,402.4913033284247,402.4913033284247,402.4913033284247,402.4913033284247,402.4913033284247,402.4913033284247,402.4913033284247,402.4913033284247,402.4913033284247,,j,3.362418169155717,lure,None,,,,,,,,,,,,,,,ST01_120922,2022-12-09_13h16.31.340,Hippopolis_4AFCT,2022.2.2,59.94839268076782,
PETÁRDA UTCA,stimuli/objects/047a.jpg,object,left,Hippopolis,0,stimuli/objects/047a.jpg,stimuli/objects/047a.jpg,stimuli/objects/047b.jpg,stimuli/objects/028b.jpg,stimuli/objects/028a.jpg,target,lure,dist2,dist1,0,91,91,6,,,,,405.87335446476936,406.8978798072785,406.8978798072785,406.8978798072785,406.8978798072785,406.8978798072785,406.8978798072785,406.8978798072785,406.8978798072785,406.8978798072785,406.8978798072785,,k,2.3952906131744385,dist1,None,406.8978798072785,,,,,,,,,,,,,,ST01_120922,2022-12-09_13h16.31.340,Hippopolis_4AFCT,2022.2.2,59.94839268076782,
SIRÁLY UTCA,stimuli/scenes/021a.jpg,scene,right,Camponello,0,stimuli/scenes/021a.jpg,stimuli/scenes/021a.jpg,stimuli/scenes/021b.jpg,stimuli/objects/040b.jpg,stimuli/objects/040a.jpg,target,lure,dist2,dist1,0,92,92,80,,,,,409.3245880417526,410.36231280490756,410.36231280490756,410.36231280490756,410.36231280490756,410.36231280490756,410.36231280490756,410.36231280490756,410.36231280490756,410.36231280490756,410.36231280490756,,d,2.8352013770490885,target,None,,,,,,,,,,,,,,,ST01_120922,2022-12-09_13h16.31.340,Hippopolis_4AFCT,2022.2.2,59.94839268076782,
OROSZLÁN UTCA,stimuli/scenes/014a.jpg,scene,right,Hippopolis,1,stimuli/scenes/078a.jpg,stimuli/scenes/100a.jpg,stimuli/scenes/100b.jpg,stimuli/scenes/078a.jpg,stimuli/scenes/078b.jpg,dist1,dist2,target,lure,0,93,93,48,,,,,413.2177172265947,414.2516878321767,414.2516878321767,414.2516878321767,414.2516878321767,414.2516878321767,414.2516878321767,414.2516878321767,414.2516878321767,414.2516878321767,414.2516878321767,,j,2.6894836872816086,target,None,,,,,,,,,,,,,,,ST01_120922,2022-12-09_13h16.31.340,Hippopolis_4AFCT,2022.2.2,59.94839268076782,
MENTA UTCA,stimuli/scenes/022a.jpg,scene,right,Camponello,0,stimuli/scenes/022a.jpg,stimuli/scenes/116b.jpg,stimuli/scenes/022b.jpg,stimuli/scenes/022a.jpg,stimuli/scenes/116a.jpg,dist2,lure,target,dist1,0,94,94,138,,,,,416.95928428694606,417.9832243155688,417.9832243155688,417.9832243155688,417.9832243155688,417.9832243155688,417.9832243155688,417.9832243155688,417.9832243155688,417.9832243155688,417.9832243155688,,j,2.6387112718075514,target,None,417.9832243155688,,,,,,,,,,,,,,ST01_120922,2022-12-09_13h16.31.340,Hippopolis_4AFCT,2022.2.2,59.94839268076782,
SZAXOFON UTCA,stimuli/objects/060a.jpg,object,left,Camponello,0,stimuli/objects/060a.jpg,stimuli/scenes/005b.jpg,stimuli/objects/060a.jpg,stimuli/scenes/005a.jpg,stimuli/objects/060b.jpg,dist2,target,dist1,lure,0,95,95,98,,,,,420.6424368843436,421.6972760204226,421.6972760204226,421.6972760204226,421.6972760204226,421.6972760204226,421.6972760204226,421.6972760204226,421.6972760204226,421.6972760204226,421.6972760204226,,f,2.0119127221405506,target,None,,,,,,,,,,,,,,,ST01_120922,2022-12-09_13h16.31.340,Hippopolis_4AFCT,2022.2.2,59.94839268076782,
PULÓVER UTCA,stimuli/scenes/085a.jpg,scene,right,Hippopolis,2,stimuli/objects/035a.jpg,stimuli/objects/035b.jpg,stimuli/scenes/036b.jpg,stimuli/scenes/036a.jpg,stimuli/objects/035a.jpg,lure,dist2,dist1,target,0,96,96,20,,,,,423.7271024659276,424.76047687232494,424.76047687232494,424.76047687232494,424.76047687232494,424.76047687232494,424.76047687232494,424.76047687232494,424.76047687232494,424.76047687232494,424.76047687232494,,k,2.2129970155656338,target,None,,,,,,,,,,,,,,,ST01_120922,2022-12-09_13h16.31.340,Hippopolis_4AFCT,2022.2.2,59.94839268076782,
AKÁC UTCA,stimuli/scenes/119a.jpg,scene,right,Hippopolis,0,stimuli/scenes/119a.jpg,stimuli/objects/084a.jpg,stimuli/scenes/119a.jpg,stimuli/objects/084b.jpg,stimuli/scenes/119b.jpg,dist1,target,dist2,lure,0,97,97,46,,,,,426.99257192388177,428.0294342674315,428.0294342674315,428.0294342674315,428.0294342674315,428.0294342674315,428.0294342674315,428.0294342674315,428.0294342674315,428.0294342674315,428.0294342674315,,d,2.559752658009529,dist1,None,,,,,,,,,,,,,,,ST01_120922,2022-12-09_13h16.31.340,Hippopolis_4AFCT,2022.2.2,59.94839268076782,
TÜKÖR UTCA,stimuli/objects/081a.jpg,object,left,Camponello,0,stimuli/objects/081a.jpg,stimuli/objects/081b.jpg,stimuli/objects/060a.jpg,stimuli/objects/081a.jpg,stimuli/objects/060b.jpg,lure,dist1,target,dist2,0,98,98,113,,,,,430.6089467834681,431.6431584190577,431.6431584190577,431.6431584190577,431.6431584190577,431.6431584190577,431.6431584190577,431.6431584190577,431.6431584190577,431.6431584190577,431.6431584190577,,j,2.2268016561865807,target,None,431.6431584190577,,,,,,,,,,,,,,ST01_120922,2022-12-09_13h16.31.340,Hippopolis_4AFCT,2022.2.2,59.94839268076782,
TELEP UTCA,stimuli/objects/045a.jpg,object,left,Camponello,1,stimuli/objects/049a.jpg,stimuli/objects/052a.jpg,stimuli/objects/049b.jpg,stimuli/objects/049a.jpg,stimuli/objects/052b.jpg,dist1,lure,target,dist2,0,99,99,152,,,,,433.89592917636037,434.9302135873586,434.9302135873586,434.9302135873586,434.9302135873586,434.9302135873586,434.9302135873586,434.9302135873586,434.9302135873586,434.9302135873586,434.9302135873586,,j,2.9711680859327316,target,None,434.9302135873586,,,,,,,,,,,,,,ST01_120922,2022-12-09_13h16.31.340,Hippopolis_4AFCT,2022.2.2,59.94839268076782,
TOJÁS UTCA,stimuli/objects/107a.jpg,object,left,Hippopolis,2,stimuli/scenes/101a.jpg,stimuli/scenes/009a.jpg,stimuli/scenes/009b.jpg,stimuli/scenes/101a.jpg,stimuli/scenes/101b.jpg,dist1,dist2,target,lure,0,100,100,63,,,,,437.9230915401131,438.95429263450205,438.95429263450205,438.95429263450205,438.95429263450205,438.95429263450205,438.95429263450205,438.95429263450205,438.95429263450205,438.95429263450205,438.95429263450205,,k,2.435508092865348,lure,None,,,,,,,,,,,,,,,ST01_120922,2022-12-09_13h16.31.340,Hippopolis_4AFCT,2022.2.2,59.94839268076782,
KORONG UTCA,stimuli/scenes/025a.jpg,scene,right,Hippopolis,2,stimuli/objects/021a.jpg,stimuli/scenes/087a.jpg,stimuli/scenes/087b.jpg,stimuli/objects/021b.jpg,stimuli/objects/021a.jpg,dist1,dist2,lure,target,0,101,101,27,,,,,441.4091170914471,442.451246637851,442.451246637851,442.451246637851,442.451246637851,442.451246637851,442.451246637851,442.451246637851,442.451246637851,442.451246637851,442.451246637851,,j,2.0095033552497625,lure,None,,,,,,,,,,,,,,,ST01_120922,2022-12-09_13h16.31.340,Hippopolis_4AFCT,2022.2.2,59.94839268076782,
SUGÁR UTCA,stimuli/objects/034a.jpg,object,left,Hippopolis,1,stimuli/objects/063a.jpg,stimuli/objects/063b.jpg,stimuli/objects/063a.jpg,stimuli/scenes/038a.jpg,stimuli/scenes/038b.jpg,lure,target,dist1,dist2,0,102,102,8,,,,,444.5048862211406,445.5640038717538,445.5640038717538,445.5640038717538,445.5640038717538,445.5640038717538,445.5640038717538,445.5640038717538,445.5640038717538,445.5640038717538,445.5640038717538,448.99263536930084,k,3.4892885610461235,dist2,None,,,,,,,,,,,,,,,ST01_120922,2022-12-09_13h16.31.340,Hippopolis_4AFCT,2022.2.2,59.94839268076782,
KOSÁR UTCA,stimuli/objects/048a.jpg,object,left,Hippopolis,2,stimuli/scenes/063a.jpg,stimuli/scenes/063b.jpg,stimuli/scenes/063a.jpg,stimuli/scenes/067b.jpg,stimuli/scenes/067a.jpg,lure,target,dist2,dist1,0,103,103,11,,,,,449.07539883442223,450.0915696118027,450.0915696118027,450.0915696118027,450.0915696118027,450.0915696118027,450.0915696118027,450.0915696118027,450.0915696118027,450.0915696118027,450.0915696118027,,k,2.4334224835038185,dist1,None,450.0915696118027,,,,,,,,,,,,,,ST01_120922,2022-12-09_13h16.31.340,Hippopolis_4AFCT,2022.2.2,59.94839268076782,
KOCKA UTCA,stimuli/objects/032a.jpg,object,left,Camponello,0,stimuli/objects/032a.jpg,stimuli/scenes/035a.jpg,stimuli/scenes/035b.jpg,stimuli/objects/032a.jpg,stimuli/objects/032b.jpg,dist1,dist2,target,lure,0,104,104,142,,,,,452.56315451301634,453.6141492985189,453.6141492985189,453.6141492985189,453.6141492985189,453.6141492985189,453.6141492985189,453.6141492985189,453.6141492985189,453.6141492985189,453.6141492985189,,d,2.270777026191354,dist1,None,,,,,,,,,,,,,,,ST01_120922,2022-12-09_13h16.31.340,Hippopolis_4AFCT,2022.2.2,59.94839268076782,
ÁRNYÉK UTCA,stimuli/objects/053a.jpg,object,left,Camponello,0,stimuli/objects/053a.jpg,stimuli/scenes/109a.jpg,stimuli/objects/053b.jpg,stimuli/objects/053a.jpg,stimuli/scenes/109b.jpg,dist1,lure,target,dist2,0,105,105,140,,,,,455.9089043624699,456.9566852077842,456.9566852077842,456.9566852077842,456.9566852077842,456.9566852077842,456.9566852077842,456.9566852077842,456.9566852077842,456.9566852077842,456.9566852077842,,d,2.4001814983785152,dist1,None,,,,,,,,,,,,,,,ST01_120922,2022-12-09_13h16.31.340,Hippopolis_4AFCT,2022.2.2,59.94839268076782,
VASALÓ UTCA,stimuli/scenes/042a.jpg,scene,right,Hippopolis,2,stimuli/objects/065a.jpg,stimuli/scenes/017b.jpg,stimuli/scenes/017a.jpg,stimuli/objects/065a.jpg,stimuli/objects/065b.jpg,dist2,dist1,target,lure,0,106,106,72,,,,,459.37695623002946,460.4226455576718,460.4226455576718,460.4226455576718,460.4226455576718,460.4226455576718,460.4226455576718,460.4226455576718,460.4226455576718,460.4226455576718,460.4226455576718,463.8757448606193,d,3.974818989634514,dist2,None,,,,,,,,,,,,,,,ST01_120922,2022-12-09_13h16.31.340,Hippopolis_4AFCT,2022.2.2,59.94839268076782,
KIRAKÓ UTCA,stimuli/scenes/093a.jpg,scene,right,Hippopolis,1,stimuli/scenes/100a.jpg,stimuli/objects/114b.jpg,stimuli/scenes/100a.jpg,stimuli/scenes/100b.jpg,stimuli/objects/114a.jpg,dist2,target,lure,dist1,0,107,107,38,,,,,464.42996633797884,465.46957206726074,465.46957206726074,465.46957206726074,465.46957206726074,465.46957206726074,465.46957206726074,465.46957206726074,465.46957206726074,465.46957206726074,465.46957206726074,,k,2.54357286170125,dist1,None,,,,,,,,,,,,,,,ST01_120922,2022-12-09_13h16.31.340,Hippopolis_4AFCT,2022.2.2,59.94839268076782,
SALÁTA UTCA,stimuli/objects/043a.jpg,object,left,Hippopolis,1,stimuli/objects/015a.jpg,stimuli/objects/015b.jpg,stimuli/objects/015a.jpg,stimuli/objects/120a.jpg,stimuli/objects/120b.jpg,lure,target,dist1,dist2,0,108,108,30,,,,,468.04180890135467,469.07520850002766,469.07520850002766,469.07520850002766,469.07520850002766,469.07520850002766,469.07520850002766,469.07520850002766,469.07520850002766,469.07520850002766,469.07520850002766,,j,2.537958573549986,dist1,None,469.07520850002766,,,,,,,,,,,,,,ST01_120922,2022-12-09_13h16.31.340,Hippopolis_4AFCT,2022.2.2,59.94839268076782,
TIGRIS UTCA,stimuli/scenes/006a.jpg,scene,right,Hippopolis,0,stimuli/scenes/006a.jpg,stimuli/scenes/110a.jpg,stimuli/scenes/006a.jpg,stimuli/scenes/110b.jpg,stimuli/scenes/006b.jpg,dist1,target,dist2,lure,0,109,109,71,,,,,471.64478125050664,472.6796914078295,472.6796914078295,472.6796914078295,472.6796914078295,472.6796914078295,472.6796914078295,472.6796914078295,472.6796914078295,472.6796914078295,472.6796914078295,476.1441337354481,f,4.389810990542173,target,None,472.6796914078295,,,,,,,,,,,,,,ST01_120922,2022-12-09_13h16.31.340,Hippopolis_4AFCT,2022.2.2,59.94839268076782,
MUNKA UTCA,stimuli/scenes/057a.jpg,scene,right,Hippopolis,0,stimuli/scenes/057a.jpg,stimuli/scenes/013a.jpg,stimuli/scenes/057b.jpg,stimuli/scenes/057a.jpg,stimuli/scenes/013b.jpg,dist1,lure,target,dist2,0,110,110,79,,,,,477.09177954122424,478.130235793069,478.130235793069,478.130235793069,478.130235793069,478.130235793069,478.130235793069,478.130235793069,478.130235793069,478.130235793069,478.130235793069,,j,2.8426782824099064,target,None,,,,,,,,,,,,,,,ST01_120922,2022-12-09_13h16.31.340,Hippopolis_4AFCT,2022.2.2,59.94839268076782,
LAKAT UTCA,stimuli/scenes/068a.jpg,scene,right,Hippopolis,1,stimuli/scenes/020a.jpg,stimuli/scenes/118a.jpg,stimuli/scenes/020a.jpg,stimuli/scenes/118b.jpg,stimuli/scenes/020b.jpg,dist1,target,dist2,lure,0,111,111,40,,,,,480.9917343836278,482.02758066914976,482.02758066914976,482.02758066914976,482.02758066914976,482.02758066914976,482.02758066914976,482.02758066914976,482.02758066914976,482.02758066914976,482.02758066914976,485.492317520082,d,3.777610769495368,dist1,None,482.02758066914976,,,,,,,,,,,,,,ST01_120922,2022-12-09_13h16.31.340,Hippopolis_4AFCT,2022.2.2,59.94839268076782,
SZALVÉTA UTCA,stimuli/objects/012a.jpg,object,left,Hippopolis,2,stimuli/scenes/012a.jpg,stimuli/objects/103b.jpg,stimuli/scenes/012b.jpg,stimuli/scenes/012a.jpg,stimuli/objects/103a.jpg,dist2,lure,target,dist1,0,112,112,25,,,,,485.8292873483151,486.8839429896325,486.8839429896325,486.8839429896325,486.8839429896325,486.8839429896325,486.8839429896325,486.8839429896325,486.8839429896325,486.8839429896325,486.8839429896325,490.3205350060016,j,3.7842330280691385,target,None,486.8839429896325,,,,,,,,,,,,,,ST01_120922,2022-12-09_13h16.31.340,Hippopolis_4AFCT,2022.2.2,59.94839268076782,
KÓKUSZ UTCA,stimuli/scenes/003a.jpg,scene,right,Camponello,0,stimuli/scenes/003a.jpg,stimuli/scenes/003b.jpg,stimuli/objects/104a.jpg,stimuli/scenes/003a.jpg,stimuli/objects/104b.jpg,lure,dist1,target,dist2,0,113,113,87,,,,,490.6902217734605,491.7490865755826,491.7490865755826,491.7490865755826,491.7490865755826,491.7490865755826,491.7490865755826,491.7490865755826,491.7490865755826,491.7490865755826,491.7490865755826,,f,3.031780121847987,dist1,None,,,,,,,,,,,,,,,ST01_120922,2022-12-09_13h16.31.340,Hippopolis_4AFCT,2022.2.2,59.94839268076782,
HEGEDŰ UTCA,stimuli/scenes/109a.jpg,scene,right,Camponello,0,stimuli/scenes/109a.jpg,stimuli/objects/079b.jpg,stimuli/scenes/109b.jpg,stimuli/objects/079a.jpg,stimuli/scenes/109a.jpg,dist2,lure,dist1,target,0,114,114,112,,,,,494.8084057569504,495.8526072297245,495.8526072297245,495.8526072297245,495.8526072297245,495.8526072297245,495.8526072297245,495.8526072297245,495.8526072297245,495.8526072297245,495.8526072297245,,j,2.9759208858013153,dist1,None,,,,,,,,,,,,,,,ST01_120922,2022-12-09_13h16.31.340,Hippopolis_4AFCT,2022.2.2,59.94839268076782,
HARMONIKA UTCA,stimuli/scenes/026a.jpg,scene,right,Camponello,0,stimuli/scenes/026a.jpg,stimuli/objects/116a.jpg,stimuli/scenes/026b.jpg,stimuli/objects/116b.jpg,stimuli/scenes/026a.jpg,dist1,lure,dist2,target,0,115,115,104,,,,,498.8461709525436,499.87172510288656,499.87172510288656,499.87172510288656,499.87172510288656,499.87172510288656,499.87172510288656,499.87172510288656,499.87172510288656,499.87172510288656,499.87172510288656,503.34195277281106,j,3.6769041009247303,dist2,None,,,,,,,,,,,,,,,ST01_120922,2022-12-09_13h16.31.340,Hippopolis_4AFCT,2022.2.2,59.94839268076782,
POGÁCSA UTCA,stimuli/objects/038a.jpg,object,left,Camponello,0,stimuli/objects/038a.jpg,stimuli/objects/095b.jpg,stimuli/objects/038b.jpg,stimuli/objects/038a.jpg,stimuli/objects/095a.jpg,dist2,lure,target,dist1,0,116,116,153,,,,,503.57476593740284,504.6107549741864,504.6107549741864,504.6107549741864,504.6107549741864,504.6107549741864,504.6107549741864,504.6107549741864,504.6107549741864,504.6107549741864,504.6107549741864,,j,2.489493204280734,target,None,504.6107549741864,,,,,,,,,,,,,,ST01_120922,2022-12-09_13h16.31.340,Hippopolis_4AFCT,2022.2.2,59.94839268076782,
LÉTRA UTCA,stimuli/objects/058a.jpg,object,left,Camponello,2,stimuli/scenes/104a.jpg,stimuli/scenes/104b.jpg,stimuli/scenes/104a.jpg,stimuli/scenes/032b.jpg,stimuli/scenes/032a.jpg,lure,target,dist2,dist1,0,117,117,106,,,,,507.1247574146837,508.1455111838877,508.1455111838877,508.1455111838877,508.1455111838877,508.1455111838877,508.1455111838877,508.1455111838877,508.1455111838877,508.1455111838877,508.1455111838877,,k,2.139327375218272,dist1,None,,,,,,,,,,,,,,,ST01_120922,2022-12-09_13h16.31.340,Hippopolis_4AFCT,2022.2.2,59.94839268076782,
TÁNYÉR UTCA,stimuli/scenes/046a.jpg,scene,right,Hippopolis,1,stimuli/scenes/011a.jpg,stimuli/scenes/011b.jpg,stimuli/scenes/028b.jpg,stimuli/scenes/011a.jpg,stimuli/scenes/028a.jpg,lure,dist2,target,dist1,0,118,118,26,,,,,510.30817716754973,511.3290195707232,511.3290195707232,511.3290195707232,511.3290195707232,511.3290195707232,511.3290195707232,511.3290195707232,511.3290195707232,511.3290195707232,511.3290195707232,514.8085416667163,j,3.7232334800064564,target,None,,,,,,,,,,,,,,,ST01_120922,2022-12-09_13h16.31.340,Hippopolis_4AFCT,2022.2.2,59.94839268076782,
LIGET UTCA,stimuli/objects/108a.jpg,object,left,Camponello,1,stimuli/objects/100a.jpg,stimuli/scenes/080b.jpg,stimuli/objects/100b.jpg,stimuli/objects/100a.jpg,stimuli/scenes/080a.jpg,dist2,lure,target,dist1,0,119,119,88,,,,,515.0748110339046,516.101942608133,516.101942608133,516.101942608133,516.101942608133,516.101942608133,516.101942608133,516.101942608133,516.101942608133,516.101942608133,516.101942608133,,k,2.8544448986649513,dist1,None,,,,,,,,,,,,,,,ST01_120922,2022-12-09_13h16.31.340,Hippopolis_4AFCT,2022.2.2,59.94839268076782,
CSAVAR UTCA,stimuli/scenes/096a.jpg,scene,right,Hippopolis,1,stimuli/scenes/089a.jpg,stimuli/scenes/089a.jpg,stimuli/scenes/043a.jpg,stimuli/scenes/043b.jpg,stimuli/scenes/089b.jpg,target,dist1,dist2,lure,0,120,120,35,,,,,518.9746187683195,519.9903787076473,519.9903787076473,519.9903787076473,519.9903787076473,519.9903787076473,519.9903787076473,519.9903787076473,519.9903787076473,519.9903787076473,519.9903787076473,523.4750927425921,f,4.294184299185872,dist1,None,519.9903787076473,,,,,,,,,,,,,,ST01_120922,2022-12-09_13h16.31.340,Hippopolis_4AFCT,2022.2.2,59.94839268076782,
KAKAS UTCA,stimuli/scenes/095a.jpg,scene,right,Camponello,0,stimuli/scenes/095a.jpg,stimuli/scenes/095a.jpg,stimuli/scenes/033b.jpg,stimuli/scenes/095b.jpg,stimuli/scenes/033a.jpg,target,dist2,lure,dist1,0,121,121,81,,,,,524.3165376409888,525.3450224045664,525.3450224045664,525.3450224045664,525.3450224045664,525.3450224045664,525.3450224045664,525.3450224045664,525.3450224045664,525.3450224045664,525.3450224045664,,d,1.3872171975672245,target,None,,,,,,,,,,,,,,,ST01_120922,2022-12-09_13h16.31.340,Hippopolis_4AFCT,2022.2.2,59.94839268076782,
KARTON UTCA,stimuli/objects/074a.jpg,object,left,Camponello,0,stimuli/objects/074a.jpg,stimuli/objects/074b.jpg,stimuli/objects/074a.jpg,stimuli/scenes/026a.jpg,stimuli/scenes/026b.jpg,lure,target,dist1,dist2,0,122,122,136,,,,,526.7594138532877,527.8132369294763,527.8132369294763,527.8132369294763,527.8132369294763,527.8132369294763,527.8132369294763,527.8132369294763,527.8132369294763,527.8132369294763,527.8132369294763,531.258601192385,f,4.182576857507229,target,None,,,,,,,,,,,,,,,ST01_120922,2022-12-09_13h16.31.340,Hippopolis_4AFCT,2022.2.2,59.94839268076782,
REPÜLŐ UTCA,stimuli/scenes/069a.jpg,scene,right,Hippopolis,2,stimuli/objects/103a.jpg,stimuli/scenes/052b.jpg,stimuli/objects/103b.jpg,stimuli/scenes/052a.jpg,stimuli/objects/103a.jpg,dist2,lure,dist1,target,0,123,123,75,,,,,532.024486778304,533.0488886497915,533.0488886497915,533.0488886497915,533.0488886497915,533.0488886497915,533.0488886497915,533.0488886497915,533.0488886497915,533.0488886497915,533.0488886497915,,j,2.131513651460409,dist1,None,,,,,,,,,,,,,,,ST01_120922,2022-12-09_13h16.31.340,Hippopolis_4AFCT,2022.2.2,59.94839268076782,
KALAPÁCS UTCA,stimuli/objects/011a.jpg,object,left,Camponello,0,stimuli/objects/011a.jpg,stimuli/scenes/003a.jpg,stimuli/scenes/003b.jpg,stimuli/objects/011b.jpg,stimuli/objects/011a.jpg,dist1,dist2,lure,target,0,124,124,127,,,,,535.2080041859299,536.2426848188043,536.2426848188043,536.2426848188043,536.2426848188043,536.2426848188043,536.2426848188043,536.2426848188043,536.2426848188043,536.2426848188043,536.2426848188043,539.6927368808538,k,4.08940027654171,target,None,,,,,,,,,,,,,,,ST01_120922,2022-12-09_13h16.31.340,Hippopolis_4AFCT,2022.2.2,59.94839268076782,
KORONA UTCA,stimuli/scenes/013a.jpg,scene,right,Hippopolis,0,stimuli/scenes/013a.jpg,stimuli/scenes/013b.jpg,stimuli/scenes/010b.jpg,stimuli/scenes/010a.jpg,stimuli/scenes/013a.jpg,lure,dist2,dist1,target,0,125,125,31,,,,,540.354497525841,541.392953466624,541.392953466624,541.392953466624,541.392953466624,541.392953466624,541.392953466624,541.392953466624,541.392953466624,541.392953466624,541.392953466624,544.8454898484051,f,4.763630410656333,dist2,None,,,,,,,,,,,,,,,ST01_120922,2022-12-09_13h16.31.340,Hippopolis_4AFCT,2022.2.2,59.94839268076782,
BANÁN UTCA,stimuli/objects/040a.jpg,object,left,Camponello,0,stimuli/objects/040a.jpg,stimuli/objects/040b.jpg,stimuli/objects/040a.jpg,stimuli/scenes/088a.jpg,stimuli/scenes/088b.jpg,lure,target,dist1,dist2,0,126,126,137,,,,,546.1766031142324,547.2063745111227,547.2063745111227,547.2063745111227,547.2063745111227,547.2063745111227,547.2063745111227,547.2063745111227,547.2063745111227,547.2063745111227,547.2063745111227,,j,2.053969806060195,dist1,None,,,,,,,,,,,,,,,ST01_120922,2022-12-09_13h16.31.340,Hippopolis_4AFCT,2022.2.2,59.94839268076782,
CUKOR UTCA,stimuli/objects/030a.jpg,object,left,Camponello,1,stimuli/objects/022a.jpg,stimuli/objects/022a.jpg,stimuli/objects/049a.jpg,stimuli/objects/049b.jpg,stimuli/objects/022b.jpg,target,dist1,dist2,lure,0,127,127,109,,,,,549.2910447586328,550.3434692397714,550.3434692397714,550.3434692397714,550.3434692397714,550.3434692397714,550.3434692397714,550.3434692397714,550.3434692397714,550.3434692397714,550.3434692397714,,k,3.316527932882309,lure,None,,,,,,,,,,,,,,,ST01_120922,2022-12-09_13h16.31.340,Hippopolis_4AFCT,2022.2.2,59.94839268076782,
PALACK UTCA,stimuli/scenes/024a.jpg,scene,right,Camponello,0,stimuli/scenes/024a.jpg,stimuli/scenes/024b.jpg,stimuli/scenes/031b.jpg,stimuli/scenes/024a.jpg,stimuli/scenes/031a.jpg,lure,dist2,target,dist1,0,128,128,94,,,,,553.6876960899681,554.7166856173426,554.7166856173426,554.7166856173426,554.7166856173426,554.7166856173426,554.7166856173426,554.7166856173426,554.7166856173426,554.7166856173426,554.7166856173426,,j,2.510841615498066,target,None,,,,,,,,,,,,,,,ST01_120922,2022-12-09_13h16.31.340,Hippopolis_4AFCT,2022.2.2,59.94839268076782,
MÁLNA UTCA,stimuli/objects/069a.jpg,object,left,Camponello,0,stimuli/objects/069a.jpg,stimuli/objects/069a.jpg,stimuli/objects/017b.jpg,stimuli/objects/017a.jpg,stimuli/objects/069b.jpg,target,dist2,dist1,lure,0,129,129,133,,,,,557.2576967868954,558.3029578570276,558.3029578570276,558.3029578570276,558.3029578570276,558.3029578570276,558.3029578570276,558.3029578570276,558.3029578570276,558.3029578570276,558.3029578570276,561.7582712154835,j,3.8850846271961927,dist1,None,,,,,,,,,,,,,,,ST01_120922,2022-12-09_13h16.31.340,Hippopolis_4AFCT,2022.2.2,59.94839268076782,
PÁFRÁNY UTCA,stimuli/objects/001a.jpg,object,left,Camponello,0,stimuli/objects/001a.jpg,stimuli/objects/031b.jpg,stimuli/objects/001b.jpg,stimuli/objects/031a.jpg,stimuli/objects/001a.jpg,dist2,lure,dist1,target,0,130,130,105,,,,,562.2075414080173,563.2630759533495,563.2630759533495,563.2630759533495,563.2630759533495,563.2630759533495,563.2630759533495,563.2630759533495,563.2630759533495,563.2630759533495,563.2630759533495,,k,2.9731684774160385,target,None,563.2630759533495,,,,,,,,,,,,,,ST01_120922,2022-12-09_13h16.31.340,Hippopolis_4AFCT,2022.2.2,59.94839268076782,
LEMEZ UTCA,stimuli/objects/067a.jpg,object,left,Hippopolis,1,stimuli/objects/002a.jpg,stimuli/objects/002a.jpg,stimuli/scenes/089b.jpg,stimuli/scenes/089a.jpg,stimuli/objects/002b.jpg,target,dist2,dist1,lure,0,131,131,0,,,,,566.2574573121965,567.288422351703,567.288422351703,567.288422351703,567.288422351703,567.288422351703,567.288422351703,567.288422351703,567.288422351703,567.288422351703,567.288422351703,570.7450074143708,d,3.7156293727457523,target,None,,,,,,,,,,,,,,,ST01_120922,2022-12-09_13h16.31.340,Hippopolis_4AFCT,2022.2.2,59.94839268076782,
PAPRIKA UTCA,stimuli/scenes/077a.jpg,scene,right,Hippopolis,0,stimuli/scenes/077a.jpg,stimuli/scenes/114a.jpg,stimuli/scenes/077b.jpg,stimuli/scenes/114b.jpg,stimuli/scenes/077a.jpg,dist1,lure,dist2,target,0,132,132,39,,,,,571.0402694195509,572.0783792100847,572.0783792100847,572.0783792100847,572.0783792100847,572.0783792100847,572.0783792100847,572.0783792100847,572.0783792100847,572.0783792100847,572.0783792100847,575.52688992396,d,3.677363146096468,dist1,None,,,,,,,,,,,,,,,ST01_120922,2022-12-09_13h16.31.340,Hippopolis_4AFCT,2022.2.2,59.94839268076782,
LEVÉL UTCA,stimuli/scenes/073a.jpg,scene,right,Camponello,1,stimuli/scenes/113a.jpg,stimuli/scenes/113a.jpg,stimuli/scenes/023a.jpg,stimuli/scenes/113b.jpg,stimuli/scenes/023b.jpg,target,dist1,lure,dist2,0,133,133,125,,,,,575.8016105778515,576.8320537507534,576.8320537507534,576.8320537507534,576.8320537507534,576.8320537507534,576.8320537507534,576.8320537507534,576.8320537507534,576.8320537507534,576.8320537507534,,d,3.1795482765883207,target,None,,,,,,,,,,,,,,,ST01_120922,2022-12-09_13h16.31.340,Hippopolis_4AFCT,2022.2.2,59.94839268076782,
ÁLOM UTCA,stimuli/scenes/029a.jpg,scene,right,Hippopolis,1,stimuli/scenes/118a.jpg,stimuli/scenes/118b.jpg,stimuli/objects/002a.jpg,stimuli/objects/002b.jpg,stimuli/scenes/118a.jpg,lure,dist1,dist2,target,0,134,134,3,,,,,580.0341914203018,581.0817038677633,581.0817038677633,581.0817038677633,581.0817038677633,581.0817038677633,581.0817038677633,581.0817038677633,581.0817038677633,581.0817038677633,581.0817038677633,,k,3.377768822014332,target,space,,584.4908019863069,584.4908019863069,2.00041170604527,,,,,,,,,,,ST01_120922,2022-12-09_13h16.31.340,Hippopolis_4AFCT,2022.2.2,59.94839268076782,
MÁRVÁNY UTCA,stimuli/scenes/037a.jpg,scene,right,Camponello,0,stimuli/scenes/037a.jpg,stimuli/objects/051b.jpg,stimuli/scenes/037a.jpg,stimuli/scenes/037b.jpg,stimuli/objects/051a.jpg,dist2,target,lure,dist1,0,135,135,84,,,,,586.5163539610803,587.5599449276924,587.5599449276924,587.5599449276924,587.5599449276924,587.5599449276924,587.5599449276924,587.5599449276924,587.5599449276924,587.5599449276924,587.5599449276924,591.0093193072826,k,4.067722195759416,dist1,None,,,,,,,,,,,,,,,ST01_120922,2022-12-09_13h16.31.340,Hippopolis_4AFCT,2022.2.2,59.94839268076782,
PADLÓ UTCA,stimuli/objects/089a.jpg,object,left,Hippopolis,0,stimuli/objects/089a.jpg,stimuli/scenes/091b.jpg,stimuli/objects/089b.jpg,stimuli/scenes/091a.jpg,stimuli/objects/089a.jpg,dist2,lure,dist1,target,0,136,136,66,,,,,591.6510912589729,592.6844025328755,592.6844025328755,592.6844025328755,592.6844025328755,592.6844025328755,592.6844025328755,592.6844025328755,592.6844025328755,592.6844025328755,592.6844025328755,,j,3.246897643432021,dist1,None,,,,,,,,,,,,,,,ST01_120922,2022-12-09_13h16.31.340,Hippopolis_4AFCT,2022.2.2,59.94839268076782,
AJÁNDÉK UTCA,stimuli/scenes/002a.jpg,scene,right,Hippopolis,2,stimuli/objects/036a.jpg,stimuli/objects/035b.jpg,stimuli/objects/036b.jpg,stimuli/objects/035a.jpg,stimuli/objects/036a.jpg,dist2,lure,dist1,target,0,137,137,65,,,,,595.9632884953171,597.0168148726225,597.0168148726225,597.0168148726225,597.0168148726225,597.0168148726225,597.0168148726225,597.0168148726225,597.0168148726225,597.0168148726225,597.0168148726225,,d,2.49921090900898,dist2,None,,,,,,,,,,,,,,,ST01_120922,2022-12-09_13h16.31.340,Hippopolis_4AFCT,2022.2.2,59.94839268076782,
ECSET UTCA,stimuli/scenes/120a.jpg,scene,right,Camponello,0,stimuli/scenes/120a.jpg,stimuli/scenes/120a.jpg,stimuli/scenes/120b.jpg,stimuli/objects/082b.jpg,stimuli/objects/082a.jpg,target,lure,dist2,dist1,0,138,138,121,,,,,599.5425388328731,600.6067193560302,600.6067193560302,600.6067193560302,600.6067193560302,600.6067193560302,600.6067193560302,600.6067193560302,600.6067193560302,600.6067193560302,600.6067193560302,604.0409900210798,None,,invalid,None,,,,,605.5409517679363,,,,,,,,,,ST01_120922,2022-12-09_13h16.31.340,Hippopolis_4AFCT,2022.2.2,59.94839268076782,
KUTYA UTCA,stimuli/objects/084a.jpg,object,left,Hippopolis,0,stimuli/objects/084a.jpg,stimuli/objects/084b.jpg,stimuli/objects/033b.jpg,stimuli/objects/084a.jpg,stimuli/objects/033a.jpg,lure,dist2,target,dist1,0,139,139,1,,,,,605.557106371969,606.5928752180189,606.5928752180189,606.5928752180189,606.5928752180189,606.5928752180189,606.5928752180189,606.5928752180189,606.5928752180189,606.5928752180189,606.5928752180189,,j,2.1551622673869133,target,None,,,,,,,,,,,,,,,ST01_120922,2022-12-09_13h16.31.340,Hippopolis_4AFCT,2022.2.2,59.94839268076782,
PIZSAMA UTCA,stimuli/scenes/041a.jpg,scene,right,Camponello,0,stimuli/scenes/041a.jpg,stimuli/scenes/082b.jpg,stimuli/scenes/041b.jpg,stimuli/scenes/041a.jpg,stimuli/scenes/082a.jpg,dist2,lure,target,dist1,0,140,140,119,,,,,608.7741558663547,609.8144741132855,609.8144741132855,609.8144741132855,609.8144741132855,609.8144741132855,609.8144741132855,609.8144741132855,609.8144741132855,609.8144741132855,609.8144741132855,,j,2.8848028536885977,target,None,,,,,,,,,,,,,,,ST01_120922,2022-12-09_13h16.31.340,Hippopolis_4AFCT,2022.2.2,59.94839268076782,
FÉNYKÉP UTCA,stimuli/scenes/049a.jpg,scene,right,Camponello,0,stimuli/scenes/049a.jpg,stimuli/scenes/105a.jpg,stimuli/scenes/049b.jpg,stimuli/scenes/049a.jpg,stimuli/scenes/105b.jpg,dist1,lure,target,dist2,0,141,141,126,,,,,612.7329727113247,613.75007837452,613.75007837452,613.75007837452,613.75007837452,613.75007837452,613.75007837452,613.75007837452,613.75007837452,613.75007837452,613.75007837452,,j,2.357043668627739,target,None,613.75007837452,,,,,,,,,,,,,,ST01_120922,2022-12-09_13h16.31.340,Hippopolis_4AFCT,2022.2.2,59.94839268076782,
FOLYÓ UTCA,stimuli/objects/112a.jpg,object,left,Hippopolis,0,stimuli/objects/112a.jpg,stimuli/scenes/057a.jpg,stimuli/objects/112b.jpg,stimuli/objects/112a.jpg,stimuli/scenes/057b.jpg,dist1,lure,target,dist2,0,142,142,77,,,,,616.1235656384379,617.1524049509317,617.1524049509317,617.1524049509317,617.1524049509317,617.1524049509317,617.1524049509317,617.1524049509317,617.1524049509317,617.1524049509317,617.1524049509317,620.6239708811045,None,,invalid,None,,,,,622.1238949950784,,,,,,,,,,ST01_120922,2022-12-09_13h16.31.340,Hippopolis_4AFCT,2022.2.2,59.94839268076782,
VÁSÁR UTCA,stimuli/objects/083a.jpg,object,left,Camponello,2,stimuli/scenes/040a.jpg,stimuli/scenes/040b.jpg,stimuli/objects/018b.jpg,stimuli/scenes/040a.jpg,stimuli/objects/018a.jpg,lure,dist2,target,dist1,0,143,143,158,,,,,622.140328573063,623.1832359470427,623.1832359470427,623.1832359470427,623.1832359470427,623.1832359470427,623.1832359470427,623.1832359470427,623.1832359470427,623.1832359470427,623.1832359470427,,f,2.8595917429775,dist2,None,,,,,,,,,,,,,,,ST01_120922,2022-12-09_13h16.31.340,Hippopolis_4AFCT,2022.2.2,59.94839268076782,
KRÉTA UTCA,stimuli/scenes/064a.jpg,scene,right,Camponello,0,stimuli/scenes/064a.jpg,stimuli/objects/001b.jpg,stimuli/objects/001a.jpg,stimuli/scenes/064b.jpg,stimuli/scenes/064a.jpg,dist2,dist1,lure,target,0,144,144,132,,,,,626.0733318869025,627.1102110240608,627.1102110240608,627.1102110240608,627.1102110240608,627.1102110240608,627.1102110240608,627.1102110240608,627.1102110240608,627.1102110240608,627.1102110240608,,j,2.3564456030726433,lure,None,,,,,,,,,,,,,,,ST01_120922,2022-12-09_13h16.31.340,Hippopolis_4AFCT,2022.2.2,59.94839268076782,
VITORLA UTCA,stimuli/scenes/039a.jpg,scene,right,Hippopolis,1,stimuli/scenes/054a.jpg,stimuli/scenes/054b.jpg,stimuli/scenes/054a.jpg,stimuli/objects/013a.jpg,stimuli/objects/013b.jpg,lure,target,dist1,dist2,0,145,145,57,,,,,629.496828045696,630.5311127696186,630.5311127696186,630.5311127696186,630.5311127696186,630.5311127696186,630.5311127696186,630.5311127696186,630.5311127696186,630.5311127696186,630.5311127696186,,d,2.6638492979109287,lure,None,,,,,,,,,,,,,,,ST01_120922,2022-12-09_13h16.31.340,Hippopolis_4AFCT,2022.2.2,59.94839268076782,
KERÉK UTCA,stimuli/objects/090a.jpg,object,left,Camponello,0,stimuli/objects/090a.jpg,stimuli/objects/090b.jpg,stimuli/objects/074b.jpg,stimuli/objects/090a.jpg,stimuli/objects/074a.jpg,lure,dist2,target,dist1,0,146,146,146,,,,,633.2274641655385,634.2928675673902,634.2928675673902,634.2928675673902,634.2928675673902,634.2928675673902,634.2928675673902,634.2928675673902,634.2928675673902,634.2928675673902,634.2928675673902,,j,2.0865110252052546,target,None,,,,,,,,,,,,,,,ST01_120922,2022-12-09_13h16.31.340,Hippopolis_4AFCT,2022.2.2,59.94839268076782,
BOLYGÓ UTCA,stimuli/objects/066a.jpg,object,left,Hippopolis,0,stimuli/objects/066a.jpg,stimuli/objects/097b.jpg,stimuli/objects/066b.jpg,stimuli/objects/097a.jpg,stimuli/objects/066a.jpg,dist2,lure,dist1,target,0,147,147,61,,,,,636.4090691953897,637.4443270564079,637.4443270564079,637.4443270564079,637.4443270564079,637.4443270564079,637.4443270564079,637.4443270564079,637.4443270564079,637.4443270564079,637.4443270564079,,d,2.5829161014407873,dist2,None,,,,,,,,,,,,,,,ST01_120922,2022-12-09_13h16.31.340,Hippopolis_4AFCT,2022.2.2,59.94839268076782,
KESELYŰ UTCA,stimuli/scenes/103a.jpg,scene,right,Camponello,2,stimuli/objects/073a.jpg,stimuli/scenes/104b.jpg,stimuli/objects/073b.jpg,stimuli/scenes/104a.jpg,stimuli/objects/073a.jpg,dist2,lure,dist1,target,0,148,148,154,,,,,640.0525330230594,641.0934480912983,641.0934480912983,641.0934480912983,641.0934480912983,641.0934480912983,641.0934480912983,641.0934480912983,641.0934480912983,641.0934480912983,641.0934480912983,,f,2.3412554301321507,lure,None,,,,,,,,,,,,,,,ST01_120922,2022-12-09_13h16.31.340,Hippopolis_4AFCT,2022.2.2,59.94839268076782,
FÉSZEK UTCA,stimuli/objects/046a.jpg,object,left,Hippopolis,2,stimuli/scenes/056a.jpg,stimuli/scenes/056b.jpg,stimuli/scenes/012a.jpg,stimuli/scenes/056a.jpg,stimuli/scenes/012b.jpg,lure,dist1,target,dist2,0,149,149,62,,,,,643.4567763321102,644.4749425258487,644.4749425258487,644.4749425258487,644.4749425258487,644.4749425258487,644.4749425258487,644.4749425258487,644.4749425258487,644.4749425258487,644.4749425258487,647.9420277867466,f,4.159495208412409,dist1,None,644.4749425258487,,,,,,,,,,,,,,ST01_120922,2022-12-09_13h16.31.340,Hippopolis_4AFCT,2022.2.2,59.94839268076782,
RÁDIÓ UTCA,stimuli/objects/075a.jpg,object,left,Hippopolis,2,stimuli/scenes/067a.jpg,stimuli/scenes/067b.jpg,stimuli/objects/070b.jpg,stimuli/objects/070a.jpg,stimuli/scenes/067a.jpg,lure,dist2,dist1,target,0,150,150,49,,,,,648.6566293500364,649.6854064613581,649.6854064613581,649.6854064613581,649.6854064613581,649.6854064613581,649.6854064613581,649.6854064613581,649.6854064613581,649.6854064613581,649.6854064613581,,k,2.0376481898128986,target,None,,,,,,,,,,,,,,,ST01_120922,2022-12-09_13h16.31.340,Hippopolis_4AFCT,2022.2.2,59.94839268076782,
KOCSI UTCA,stimuli/objects/003a.jpg,object,left,Camponello,0,stimuli/objects/003a.jpg,stimuli/objects/020a.jpg,stimuli/objects/003b.jpg,stimuli/objects/020b.jpg,stimuli/objects/003a.jpg,dist1,lure,dist2,target,0,151,151,143,,,,,651.7397315017879,652.79676136747,652.79676136747,652.79676136747,652.79676136747,652.79676136747,652.79676136747,652.79676136747,652.79676136747,652.79676136747,652.79676136747,,f,3.2615155670791864,lure,None,,,,,,,,,,,,,,,ST01_120922,2022-12-09_13h16.31.340,Hippopolis_4AFCT,2022.2.2,59.94839268076782,
VIHAR UTCA,stimuli/scenes/065a.jpg,scene,right,Camponello,2,stimuli/objects/019a.jpg,stimuli/scenes/040a.jpg,stimuli/objects/019a.jpg,stimuli/objects/019b.jpg,stimuli/scenes/040b.jpg,dist1,target,lure,dist2,0,152,152,134,,,,,656.0896892677993,657.1307791210711,657.1307791210711,657.1307791210711,657.1307791210711,657.1307791210711,657.1307791210711,657.1307791210711,657.1307791210711,657.1307791210711,657.1307791210711,,j,2.335844850167632,lure,None,,,,,,,,,,,,,,,ST01_120922,2022-12-09_13h16.31.340,Hippopolis_4AFCT,2022.2.2,59.94839268076782,
KÖTÉNY UTCA,stimuli/scenes/060a.jpg,scene,right,Camponello,2,stimuli/objects/007a.jpg,stimuli/objects/007a.jpg,stimuli/objects/057b.jpg,stimuli/objects/057a.jpg,stimuli/objects/007b.jpg,target,dist2,dist1,lure,0,153,153,108,,,,,659.4913490470499,660.5457300692797,660.5457300692797,660.5457300692797,660.5457300692797,660.5457300692797,660.5457300692797,660.5457300692797,660.5457300692797,660.5457300692797,660.5457300692797,,d,2.152733927592635,target,None,,,,,,,,,,,,,,,ST01_120922,2022-12-09_13h16.31.340,Hippopolis_4AFCT,2022.2.2,59.94839268076782,
ORVOS UTCA,stimuli/objects/020a.jpg,object,left,Camponello,0,stimuli/objects/020a.jpg,stimuli/objects/020b.jpg,stimuli/scenes/064a.jpg,stimuli/scenes/064b.jpg,stimuli/objects/020a.jpg,lure,dist1,dist2,target,0,154,154,131,,,,,662.7230497412384,663.758654685691,663.758654685691,663.758654685691,663.758654685691,663.758654685691,663.758654685691,663.758654685691,663.758654685691,663.758654685691,663.758654685691,667.2235607244074,f,3.6119703203439713,dist1,None,,,,,,,,,,,,,,,ST01_120922,2022-12-09_13h16.31.340,Hippopolis_4AFCT,2022.2.2,59.94839268076782,
PÉKSÉG UTCA,stimuli/objects/042a.jpg,object,left,Hippopolis,2,stimuli/scenes/030a.jpg,stimuli/objects/021b.jpg,stimuli/scenes/030a.jpg,stimuli/scenes/030b.jpg,stimuli/objects/021a.jpg,dist2,target,lure,dist1,0,155,155,44,,,,,667.3976723663509,668.4294273629785,668.4294273629785,668.4294273629785,668.4294273629785,668.4294273629785,668.4294273629785,668.4294273629785,668.4294273629785,668.4294273629785,668.4294273629785,,j,3.0531412847340107,lure,None,,,,,,,,,,,,,,,ST01_120922,2022-12-09_13h16.31.340,Hippopolis_4AFCT,2022.2.2,59.94839268076782,
KERET UTCA,stimuli/objects/023a.jpg,object,left,Camponello,2,stimuli/scenes/108a.jpg,stimuli/scenes/108b.jpg,stimuli/scenes/094b.jpg,stimuli/scenes/094a.jpg,stimuli/scenes/108a.jpg,lure,dist2,dist1,target,0,156,156,118,,,,,671.5183779895306,672.5641599968076,672.5641599968076,672.5641599968076,672.5641599968076,672.5641599968076,672.5641599968076,672.5641599968076,672.5641599968076,672.5641599968076,672.5641599968076,,j,2.421804839745164,dist1,None,,,,,,,,,,,,,,,ST01_120922,2022-12-09_13h16.31.340,Hippopolis_4AFCT,2022.2.2,59.94839268076782,
LÉPCSŐ UTCA,stimuli/objects/072a.jpg,object,left,Hippopolis,2,stimuli/scenes/016a.jpg,stimuli/scenes/016b.jpg,stimuli/objects/050b.jpg,stimuli/scenes/016a.jpg,stimuli/objects/050a.jpg,lure,dist2,target,dist1,0,157,157,74,,,,,675.0064555592835,676.0354699678719,676.0354699678719,676.0354699678719,676.0354699678719,676.0354699678719,676.0354699678719,676.0354699678719,676.0354699678719,676.0354699678719,676.0354699678719,679.5044402386993,f,3.7346654534339905,dist2,None,,,,,,,,,,,,,,,ST01_120922,2022-12-09_13h16.31.340,Hippopolis_4AFCT,2022.2.2,59.94839268076782,
MOGYORÓ UTCA,stimuli/objects/105a.jpg,object,left,Hippopolis,1,stimuli/objects/113a.jpg,stimuli/objects/113a.jpg,stimuli/scenes/011a.jpg,stimuli/objects/113b.jpg,stimuli/scenes/011b.jpg,target,dist1,lure,dist2,0,158,158,60,,,,,679.789595156908,680.824836846441,680.824836846441,680.824836846441,680.824836846441,680.824836846441,680.824836846441,680.824836846441,680.824836846441,680.824836846441,680.824836846441,684.2813954744488,f,4.257942104712129,dist1,None,,,,,,,,,,,,,,,ST01_120922,2022-12-09_13h16.31.340,Hippopolis_4AFCT,2022.2.2,59.94839268076782,
KÖMÉNYMAG UTCA,stimuli/scenes/070a.jpg,scene,right,Hippopolis,1,stimuli/scenes/043a.jpg,stimuli/scenes/043a.jpg,stimuli/objects/068a.jpg,stimuli/scenes/043b.jpg,stimuli/objects/068b.jpg,target,dist1,lure,dist2,0,159,159,18,,,,,685.1074934508651,686.1523872241378,686.1523872241378,686.1523872241378,686.1523872241378,686.1523872241378,686.1523872241378,686.1523872241378,686.1523872241378,686.1523872241378,686.1523872241378,689.5925430618227,d,4.594403434544802,target,None,,,,,,,,,,,,,,,ST01_120922,2022-12-09_13h16.31.340,Hippopolis_4AFCT,2022.2.2,59.94839268076782,
,,,,,,,,,,,,,,,,,,,,,,,,,,,,,,,,,,,,,,,,,,,,66,25,47,20,690.7726359795779,690.7726359795779,space,5.638020837679505,,ST01_120922,2022-12-09_13h16.31.340,Hippopolis_4AFCT,2022.2.2,59.94839268076782,
,,,,,,,,,,,,,,,,,,,,,,,,,,,,,,,,,,,,,,,,,,,,,,,,,,,,696.4274981897324,,,,,,
