CityName,StimuliFile,CityImage,StreetSign,LearningVideoFile,UpdatingVideoFile,Cue,Image,Category,CorrectResponse,Novelty,UpdateImage,TestImage1,TestImage2,TestImage3,TestImage4,TestImage1Type,TestImage2Type,TestImage3Type,TestImage4Type,CityBlock.thisRepN,CityBlock.thisTrialN,CityBlock.thisN,CityBlock.thisIndex,UpdatingTrials.thisRepN,UpdatingTrials.thisTrialN,UpdatingTrials.thisN,UpdatingTrials.thisIndex,learning_instructions_text.started,intro_key.started,intro_key.keys,intro_key.rt,cityname_text_intro.started,city_image_update.started,load_video.started,movie.started,end_vid_key.started,end_vid_key.keys,cityname_text.started,city_image.started,fx_cross.started,plate.started,city_text.started,street_text.started,fx_cross_prediction.started,key_resp_update.started,button_image_updating.started,key_resp_update.keys,key_resp_update.corr,key_resp_update.rt,plate_updating.started,city_text_updating.started,street_text_updating.started,updating_image.started,short_break_key.keys,fx_cross.stopped,short_break_text.started,short_break_key.started,short_break_key.rt,break_text.started,break_key_resp.started,break_key_resp.keys,break_key_resp.rt,end_text.started,participant,date,expName,psychopyVersion,frameRate,
,,,,,,,,,,,,,,,,,,,,,,,,,,,,16.77617647498846,16.77617647498846,space,13.240105038508773,,,,,,,,,,,,,,,,,,,,,,,,,,,,,,,,,ST01_120922,2022-12-09_12h55.25.237,Hippopolis_Updating,2022.2.2,59.98227739942304,
Camponello,stimuli/subj_files/ST01_120922_cityB.csv,./stimuli/arnedillo.png,./stimuli/street_plate2.png,./stimuli/videos/camponello_part,./stimuli/videos/campo-satellite.mp4,TISZTÁS UTCA,stimuli/objects/017a.jpg,object,left,0,stimuli/objects/017a.jpg,stimuli/objects/017b.jpg,stimuli/objects/088a.jpg,stimuli/objects/088b.jpg,stimuli/objects/017a.jpg,lure,dist1,dist2,target,0,0,0,0,0,0,0,77,,,,,30.10858041793108,30.10858041793108,0.0645319614559412,33.28512537293136,33.28512537293136,None,40.621245220303535,40.621245220303535,43.084708811715245,44.090659296140075,44.090659296140075,44.090659296140075,44.090659296140075,44.090659296140075,44.090659296140075,left,0,3.2695315312594175,48.06372023373842,48.06372023373842,48.06372023373842,48.06372023373842,None,,,,,,,,,,ST01_120922,2022-12-09_12h55.25.237,Hippopolis_Updating,2022.2.2,59.98227739942304,
Camponello,stimuli/subj_files/ST01_120922_cityB.csv,./stimuli/arnedillo.png,./stimuli/street_plate2.png,./stimuli/videos/camponello_part,./stimuli/videos/campo-satellite.mp4,BÖGRE UTCA,stimuli/scenes/111a.jpg,scene,right,2,stimuli/objects/018a.jpg,stimuli/objects/018b.jpg,stimuli/objects/007a.jpg,stimuli/objects/018a.jpg,stimuli/objects/007b.jpg,lure,dist1,target,dist2,0,0,0,0,0,1,1,67,,,,,,,,,,,,,50.045418130233884,51.06904528476298,51.06904528476298,51.06904528476298,51.06904528476298,51.06904528476298,51.06904528476298,left,0,2.1624374128878117,55.08099135197699,55.08099135197699,55.08099135197699,55.08099135197699,None,,,,,,,,,,ST01_120922,2022-12-09_12h55.25.237,Hippopolis_Updating,2022.2.2,59.98227739942304,
Camponello,stimuli/subj_files/ST01_120922_cityB.csv,./stimuli/arnedillo.png,./stimuli/street_plate2.png,./stimuli/videos/camponello_part,./stimuli/videos/campo-satellite.mp4,LOVAGLÁS UTCA,stimuli/scenes/048a.jpg,scene,right,2,stimuli/objects/057a.jpg,stimuli/objects/019b.jpg,stimuli/objects/057a.jpg,stimuli/objects/019a.jpg,stimuli/objects/057b.jpg,dist2,target,dist1,lure,0,0,0,0,0,2,2,55,,,,,,,,,,,,,57.05170885659754,58.071220465004444,58.071220465004444,58.071220465004444,58.071220465004444,58.071220465004444,58.071220465004444,left,0,1.512781759724021,62.08522228337824,62.08522228337824,62.08522228337824,62.08522228337824,None,,,,,,,,,,ST01_120922,2022-12-09_12h55.25.237,Hippopolis_Updating,2022.2.2,59.98227739942304,
Camponello,stimuli/subj_files/ST01_120922_cityB.csv,./stimuli/arnedillo.png,./stimuli/street_plate2.png,./stimuli/videos/camponello_part,./stimuli/videos/campo-satellite.mp4,MÁRVÁNY UTCA,stimuli/scenes/037a.jpg,scene,right,0,stimuli/scenes/037a.jpg,stimuli/objects/051b.jpg,stimuli/scenes/037a.jpg,stimuli/scenes/037b.jpg,stimuli/objects/051a.jpg,dist2,target,lure,dist1,0,0,0,0,0,3,3,4,,,,,,,,,,,,,64.06373329646885,65.0841402914375,65.0841402914375,65.0841402914375,65.0841402914375,65.0841402914375,65.0841402914375,right,0,1.6040571592748165,69.09105551987886,69.09105551987886,69.09105551987886,69.09105551987886,None,,,,,,,,,,ST01_120922,2022-12-09_12h55.25.237,Hippopolis_Updating,2022.2.2,59.98227739942304,
Camponello,stimuli/subj_files/ST01_120922_cityB.csv,./stimuli/arnedillo.png,./stimuli/street_plate2.png,./stimuli/videos/camponello_part,./stimuli/videos/campo-satellite.mp4,TELEP UTCA,stimuli/objects/045a.jpg,object,left,1,stimuli/objects/049a.jpg,stimuli/objects/052a.jpg,stimuli/objects/049b.jpg,stimuli/objects/049a.jpg,stimuli/objects/052b.jpg,dist1,lure,target,dist2,0,0,0,0,0,4,4,72,,,,,,,,,,,,,71.08017900399864,72.09702808596194,72.09702808596194,72.09702808596194,72.09702808596194,72.09702808596194,72.09702808596194,left,0,1.0552055202424526,76.1120170392096,76.1120170392096,76.1120170392096,76.1120170392096,None,72.09702808596194,,,,,,,,,ST01_120922,2022-12-09_12h55.25.237,Hippopolis_Updating,2022.2.2,59.98227739942304,
Camponello,stimuli/subj_files/ST01_120922_cityB.csv,./stimuli/arnedillo.png,./stimuli/street_plate2.png,./stimuli/videos/camponello_part,./stimuli/videos/campo-satellite.mp4,KAKAS UTCA,stimuli/scenes/095a.jpg,scene,right,0,stimuli/scenes/095a.jpg,stimuli/scenes/095a.jpg,stimuli/scenes/033b.jpg,stimuli/scenes/095b.jpg,stimuli/scenes/033a.jpg,target,dist2,lure,dist1,0,0,0,0,0,5,5,1,,,,,,,,,,,,,78.10097133554518,79.13535900227726,79.13535900227726,79.13535900227726,79.13535900227726,79.13535900227726,79.13535900227726,left,0,1.072652356699109,83.13316702842712,83.13316702842712,83.13316702842712,83.13316702842712,None,,,,,,,,,,ST01_120922,2022-12-09_12h55.25.237,Hippopolis_Updating,2022.2.2,59.98227739942304,
Camponello,stimuli/subj_files/ST01_120922_cityB.csv,./stimuli/arnedillo.png,./stimuli/street_plate2.png,./stimuli/videos/camponello_part,./stimuli/videos/campo-satellite.mp4,KECSKE UTCA,stimuli/scenes/116a.jpg,scene,right,0,stimuli/scenes/116a.jpg,stimuli/scenes/024a.jpg,stimuli/scenes/116b.jpg,stimuli/scenes/116a.jpg,stimuli/scenes/024b.jpg,dist1,lure,target,dist2,0,0,0,0,0,6,6,30,,,,,,,,,,,,,85.11000451631844,86.13343045115471,86.13343045115471,86.13343045115471,86.13343045115471,86.13343045115471,86.13343045115471,right,0,1.6577881779521704,90.13635795377195,90.13635795377195,90.13635795377195,90.13635795377195,None,,,,,,,,,,ST01_120922,2022-12-09_12h55.25.237,Hippopolis_Updating,2022.2.2,59.98227739942304,
Camponello,stimuli/subj_files/ST01_120922_cityB.csv,./stimuli/arnedillo.png,./stimuli/street_plate2.png,./stimuli/videos/camponello_part,./stimuli/videos/campo-satellite.mp4,FIÓK UTCA,stimuli/scenes/062a.jpg,scene,right,0,stimuli/scenes/062a.jpg,stimuli/scenes/062a.jpg,stimuli/objects/011b.jpg,stimuli/objects/011a.jpg,stimuli/scenes/062b.jpg,target,dist2,dist1,lure,0,0,0,0,0,7,7,49,,,,,,,,,,,,,92.12557536177337,93.15275980904698,93.15275980904698,93.15275980904698,93.15275980904698,93.15275980904698,93.15275980904698,left,0,1.2149536404758692,97.15178324840963,97.15178324840963,97.15178324840963,97.15178324840963,None,,,,,,,,,,ST01_120922,2022-12-09_12h55.25.237,Hippopolis_Updating,2022.2.2,59.98227739942304,
Camponello,stimuli/subj_files/ST01_120922_cityB.csv,./stimuli/arnedillo.png,./stimuli/street_plate2.png,./stimuli/videos/camponello_part,./stimuli/videos/campo-satellite.mp4,ZSEMLE UTCA,stimuli/scenes/105a.jpg,scene,right,0,stimuli/scenes/105a.jpg,stimuli/scenes/105a.jpg,stimuli/objects/038a.jpg,stimuli/objects/038b.jpg,stimuli/scenes/105b.jpg,target,dist1,dist2,lure,0,0,0,0,0,8,8,40,,,,,,,,,,,,,99.14324923418462,100.16239883005619,100.16239883005619,100.16239883005619,100.16239883005619,100.16239883005619,100.16239883005619,left,0,1.2128126733005047,104.17054315470159,104.17054315470159,104.17054315470159,104.17054315470159,None,,,,,,,,,,ST01_120922,2022-12-09_12h55.25.237,Hippopolis_Updating,2022.2.2,59.98227739942304,
Camponello,stimuli/subj_files/ST01_120922_cityB.csv,./stimuli/arnedillo.png,./stimuli/street_plate2.png,./stimuli/videos/camponello_part,./stimuli/videos/campo-satellite.mp4,GYŰRŰ UTCA,stimuli/objects/079a.jpg,object,left,0,stimuli/objects/079a.jpg,stimuli/objects/079a.jpg,stimuli/objects/037b.jpg,stimuli/objects/037a.jpg,stimuli/objects/079b.jpg,target,dist2,dist1,lure,0,0,0,0,0,9,9,20,,,,,,,,,,,,,106.14709513820708,107.16850264184177,107.16850264184177,107.16850264184177,107.16850264184177,107.16850264184177,107.16850264184177,left,0,1.0227212123572826,111.17887470498681,111.17887470498681,111.17887470498681,111.17887470498681,None,,,,,,,,,,ST01_120922,2022-12-09_12h55.25.237,Hippopolis_Updating,2022.2.2,59.98227739942304,
Camponello,stimuli/subj_files/ST01_120922_cityB.csv,./stimuli/arnedillo.png,./stimuli/street_plate2.png,./stimuli/videos/camponello_part,./stimuli/videos/campo-satellite.mp4,LEGELŐ UTCA,stimuli/objects/037a.jpg,object,left,0,stimuli/objects/037a.jpg,stimuli/objects/037b.jpg,stimuli/scenes/021a.jpg,stimuli/objects/037a.jpg,stimuli/scenes/021b.jpg,lure,dist1,target,dist2,0,0,0,0,0,10,10,43,,,,,,,,,,,,,113.16401886194944,114.192443292588,114.192443292588,114.192443292588,114.192443292588,114.192443292588,114.192443292588,left,0,2.0152427535504103,118.1918156798929,118.1918156798929,118.1918156798929,118.1918156798929,None,,,,,,,,,,ST01_120922,2022-12-09_12h55.25.237,Hippopolis_Updating,2022.2.2,59.98227739942304,
Camponello,stimuli/subj_files/ST01_120922_cityB.csv,./stimuli/arnedillo.png,./stimuli/street_plate2.png,./stimuli/videos/camponello_part,./stimuli/videos/campo-satellite.mp4,TENISZ UTCA,stimuli/scenes/058a.jpg,scene,right,1,stimuli/scenes/099a.jpg,stimuli/scenes/099b.jpg,stimuli/objects/027a.jpg,stimuli/scenes/099a.jpg,stimuli/objects/027b.jpg,lure,dist1,target,dist2,0,0,0,0,0,11,11,75,,,,,,,,,,,,,120.16769278049469,121.1966555621475,121.1966555621475,121.1966555621475,121.1966555621475,121.1966555621475,121.1966555621475,left,0,1.2986529245972633,125.18857623822987,125.18857623822987,125.18857623822987,125.18857623822987,None,,,,,,,,,,ST01_120922,2022-12-09_12h55.25.237,Hippopolis_Updating,2022.2.2,59.98227739942304,
Camponello,stimuli/subj_files/ST01_120922_cityB.csv,./stimuli/arnedillo.png,./stimuli/street_plate2.png,./stimuli/videos/camponello_part,./stimuli/videos/campo-satellite.mp4,CSILLAG UTCA,stimuli/objects/119a.jpg,object,left,0,stimuli/objects/119a.jpg,stimuli/scenes/062a.jpg,stimuli/scenes/062b.jpg,stimuli/objects/119a.jpg,stimuli/objects/119b.jpg,dist1,dist2,target,lure,0,0,0,0,0,12,12,35,,,,,,,,,,,,,127.18346609175205,128.19979952648282,128.19979952648282,128.19979952648282,128.19979952648282,128.19979952648282,128.19979952648282,left,0,1.8148090858012438,132.2121268864721,132.2121268864721,132.2121268864721,132.2121268864721,None,,,,,,,,,,ST01_120922,2022-12-09_12h55.25.237,Hippopolis_Updating,2022.2.2,59.98227739942304,
Camponello,stimuli/subj_files/ST01_120922_cityB.csv,./stimuli/arnedillo.png,./stimuli/street_plate2.png,./stimuli/videos/camponello_part,./stimuli/videos/campo-satellite.mp4,HÁRFA UTCA,stimuli/scenes/117a.jpg,scene,right,1,stimuli/scenes/080a.jpg,stimuli/scenes/051a.jpg,stimuli/scenes/080b.jpg,stimuli/scenes/080a.jpg,stimuli/scenes/051b.jpg,dist1,lure,target,dist2,0,0,0,0,0,13,13,5,,,,,,,,,,,,,134.2063275501132,135.24153378419578,135.24153378419578,135.24153378419578,135.24153378419578,135.24153378419578,135.24153378419578,left,0,1.349837115034461,139.25329666770995,139.25329666770995,139.25329666770995,139.25329666770995,None,,,,,,,,,,ST01_120922,2022-12-09_12h55.25.237,Hippopolis_Updating,2022.2.2,59.98227739942304,
Camponello,stimuli/subj_files/ST01_120922_cityB.csv,./stimuli/arnedillo.png,./stimuli/street_plate2.png,./stimuli/videos/camponello_part,./stimuli/videos/campo-satellite.mp4,TÉRKÉP UTCA,stimuli/scenes/033a.jpg,scene,right,0,stimuli/scenes/033a.jpg,stimuli/scenes/033a.jpg,stimuli/scenes/022b.jpg,stimuli/scenes/022a.jpg,stimuli/scenes/033b.jpg,target,dist2,dist1,lure,0,0,0,0,0,14,14,71,,,,,,,,,,,,,141.20864174887538,142.2333306800574,142.2333306800574,142.2333306800574,142.2333306800574,142.2333306800574,142.2333306800574,right,0,2.757767092436552,146.22682442702353,146.22682442702353,146.22682442702353,146.22682442702353,None,,,,,,,,,,ST01_120922,2022-12-09_12h55.25.237,Hippopolis_Updating,2022.2.2,59.98227739942304,
Camponello,stimuli/subj_files/ST01_120922_cityB.csv,./stimuli/arnedillo.png,./stimuli/street_plate2.png,./stimuli/videos/camponello_part,./stimuli/videos/campo-satellite.mp4,KALAPÁCS UTCA,stimuli/objects/011a.jpg,object,left,0,stimuli/objects/011a.jpg,stimuli/scenes/003a.jpg,stimuli/scenes/003b.jpg,stimuli/objects/011b.jpg,stimuli/objects/011a.jpg,dist1,dist2,lure,target,0,0,0,0,0,15,15,47,,,,,,,,,,,,,148.22354610823095,149.2499813400209,149.2499813400209,149.2499813400209,149.2499813400209,149.2499813400209,149.2499813400209,right,0,1.5004991851747036,153.25656907819211,153.25656907819211,153.25656907819211,153.25656907819211,None,,,,,,,,,,ST01_120922,2022-12-09_12h55.25.237,Hippopolis_Updating,2022.2.2,59.98227739942304,
Camponello,stimuli/subj_files/ST01_120922_cityB.csv,./stimuli/arnedillo.png,./stimuli/street_plate2.png,./stimuli/videos/camponello_part,./stimuli/videos/campo-satellite.mp4,HARCSA UTCA,stimuli/objects/051a.jpg,object,left,0,stimuli/objects/051a.jpg,stimuli/scenes/001b.jpg,stimuli/scenes/001a.jpg,stimuli/objects/051a.jpg,stimuli/objects/051b.jpg,dist2,dist1,target,lure,0,0,0,0,0,16,16,10,,,,,,,,,,,,,155.2290338166058,156.24649309180677,156.24649309180677,156.24649309180677,156.24649309180677,156.24649309180677,156.24649309180677,left,0,1.7206036932766438,160.25723867490888,160.25723867490888,160.25723867490888,160.25723867490888,None,,,,,,,,,,ST01_120922,2022-12-09_12h55.25.237,Hippopolis_Updating,2022.2.2,59.98227739942304,
Camponello,stimuli/subj_files/ST01_120922_cityB.csv,./stimuli/arnedillo.png,./stimuli/street_plate2.png,./stimuli/videos/camponello_part,./stimuli/videos/campo-satellite.mp4,SZOBOR UTCA,stimuli/scenes/082a.jpg,scene,right,0,stimuli/scenes/082a.jpg,stimuli/scenes/041b.jpg,stimuli/scenes/041a.jpg,stimuli/scenes/082b.jpg,stimuli/scenes/082a.jpg,dist2,dist1,lure,target,0,0,0,0,0,17,17,79,,,,,,,,,,,,,162.237271130085,163.26732181198895,163.26732181198895,163.26732181198895,163.26732181198895,163.26732181198895,163.26732181198895,left,0,2.5708562936633825,167.26463876105845,167.26463876105845,167.26463876105845,167.26463876105845,None,,,,,,,,,,ST01_120922,2022-12-09_12h55.25.237,Hippopolis_Updating,2022.2.2,59.98227739942304,
Camponello,stimuli/subj_files/ST01_120922_cityB.csv,./stimuli/arnedillo.png,./stimuli/street_plate2.png,./stimuli/videos/camponello_part,./stimuli/videos/campo-satellite.mp4,ZEBRA UTCA,stimuli/scenes/035a.jpg,scene,right,0,stimuli/scenes/035a.jpg,stimuli/scenes/035b.jpg,stimuli/objects/090b.jpg,stimuli/scenes/035a.jpg,stimuli/objects/090a.jpg,lure,dist2,target,dist1,0,0,0,0,0,18,18,6,,,,,,,,,,,,,169.25214190222323,170.2821300700307,170.2821300700307,170.2821300700307,170.2821300700307,170.2821300700307,170.2821300700307,left,0,0.8364507779479027,174.27409864217043,174.27409864217043,174.27409864217043,174.27409864217043,None,,,,,,,,,,ST01_120922,2022-12-09_12h55.25.237,Hippopolis_Updating,2022.2.2,59.98227739942304,
Camponello,stimuli/subj_files/ST01_120922_cityB.csv,./stimuli/arnedillo.png,./stimuli/street_plate2.png,./stimuli/videos/camponello_part,./stimuli/videos/campo-satellite.mp4,TERASZ UTCA,stimuli/objects/016a.jpg,object,left,0,stimuli/objects/016a.jpg,stimuli/objects/016b.jpg,stimuli/objects/016a.jpg,stimuli/objects/081a.jpg,stimuli/objects/081b.jpg,lure,target,dist1,dist2,0,0,0,0,0,19,19,22,,,,,,,,,,,,,176.25538258813322,177.28180786781013,177.28180786781013,177.28180786781013,177.28180786781013,177.28180786781013,177.28180786781013,left,0,1.484606757760048,181.2779725380242,181.2779725380242,181.2779725380242,181.2779725380242,None,,,,,,,,,,ST01_120922,2022-12-09_12h55.25.237,Hippopolis_Updating,2022.2.2,59.98227739942304,
Camponello,stimuli/subj_files/ST01_120922_cityB.csv,./stimuli/arnedillo.png,./stimuli/street_plate2.png,./stimuli/videos/camponello_part,./stimuli/videos/campo-satellite.mp4,TORONY UTCA,stimuli/scenes/112a.jpg,scene,right,0,stimuli/scenes/112a.jpg,stimuli/scenes/112b.jpg,stimuli/scenes/112a.jpg,stimuli/scenes/086a.jpg,stimuli/scenes/086b.jpg,lure,target,dist1,dist2,0,0,0,0,0,20,20,65,,,,,,,,,,,,,183.26304889656603,184.29626126773655,184.29626126773655,184.29626126773655,184.29626126773655,184.29626126773655,184.29626126773655,left,0,1.1906802151352167,188.28092336654663,188.28092336654663,188.28092336654663,188.28092336654663,None,,,,,,,,,,ST01_120922,2022-12-09_12h55.25.237,Hippopolis_Updating,2022.2.2,59.98227739942304,
Camponello,stimuli/subj_files/ST01_120922_cityB.csv,./stimuli/arnedillo.png,./stimuli/street_plate2.png,./stimuli/videos/camponello_part,./stimuli/videos/campo-satellite.mp4,HEGEDŰ UTCA,stimuli/scenes/109a.jpg,scene,right,0,stimuli/scenes/109a.jpg,stimuli/objects/079b.jpg,stimuli/scenes/109b.jpg,stimuli/objects/079a.jpg,stimuli/scenes/109a.jpg,dist2,lure,dist1,target,0,0,0,0,0,21,21,32,,,,,,,,,,,,,190.27877835556865,191.29961049556732,191.29961049556732,191.29961049556732,191.29961049556732,191.29961049556732,191.29961049556732,right,0,1.6910876333713531,195.3084866181016,195.3084866181016,195.3084866181016,195.3084866181016,None,,,,,,,,,,ST01_120922,2022-12-09_12h55.25.237,Hippopolis_Updating,2022.2.2,59.98227739942304,
Camponello,stimuli/subj_files/ST01_120922_cityB.csv,./stimuli/arnedillo.png,./stimuli/street_plate2.png,./stimuli/videos/camponello_part,./stimuli/videos/campo-satellite.mp4,BOHÓC UTCA,stimuli/objects/044a.jpg,object,left,1,stimuli/objects/027a.jpg,stimuli/scenes/113a.jpg,stimuli/scenes/113b.jpg,stimuli/objects/027a.jpg,stimuli/objects/027b.jpg,dist1,dist2,target,lure,0,0,0,0,0,22,22,64,,,,,,,,,,,,,197.2961751203984,198.32014935836196,198.32014935836196,198.32014935836196,198.32014935836196,198.32014935836196,198.32014935836196,left,0,1.3735889829695225,202.32406897097826,202.32406897097826,202.32406897097826,202.32406897097826,None,,,,,,,,,,ST01_120922,2022-12-09_12h55.25.237,Hippopolis_Updating,2022.2.2,59.98227739942304,
Camponello,stimuli/subj_files/ST01_120922_cityB.csv,./stimuli/arnedillo.png,./stimuli/street_plate2.png,./stimuli/videos/camponello_part,./stimuli/videos/campo-satellite.mp4,VÁSÁR UTCA,stimuli/objects/083a.jpg,object,left,2,stimuli/scenes/040a.jpg,stimuli/scenes/040b.jpg,stimuli/objects/018b.jpg,stimuli/scenes/040a.jpg,stimuli/objects/018a.jpg,lure,dist2,target,dist1,0,0,0,0,0,23,23,78,,,,,,,,,,,,,204.30251685157418,205.31755214370787,205.31755214370787,205.31755214370787,205.31755214370787,205.31755214370787,205.31755214370787,left,0,1.2572517544031143,209.32807691209018,209.32807691209018,209.32807691209018,209.32807691209018,None,,,,,,,,,,ST01_120922,2022-12-09_12h55.25.237,Hippopolis_Updating,2022.2.2,59.98227739942304,
Camponello,stimuli/subj_files/ST01_120922_cityB.csv,./stimuli/arnedillo.png,./stimuli/street_plate2.png,./stimuli/videos/camponello_part,./stimuli/videos/campo-satellite.mp4,LIGET UTCA,stimuli/objects/108a.jpg,object,left,1,stimuli/objects/100a.jpg,stimuli/scenes/080b.jpg,stimuli/objects/100b.jpg,stimuli/objects/100a.jpg,stimuli/scenes/080a.jpg,dist2,lure,target,dist1,0,0,0,0,0,24,24,8,,,,,,,,,,,,,211.3053967691958,212.33251061849296,212.33251061849296,212.33251061849296,212.33251061849296,212.33251061849296,212.33251061849296,left,0,1.08925667591393,216.3230784162879,216.3230784162879,216.3230784162879,216.3230784162879,None,,,,,,,,,,ST01_120922,2022-12-09_12h55.25.237,Hippopolis_Updating,2022.2.2,59.98227739942304,
Camponello,stimuli/subj_files/ST01_120922_cityB.csv,./stimuli/arnedillo.png,./stimuli/street_plate2.png,./stimuli/videos/camponello_part,./stimuli/videos/campo-satellite.mp4,KERÉK UTCA,stimuli/objects/090a.jpg,object,left,0,stimuli/objects/090a.jpg,stimuli/objects/090b.jpg,stimuli/objects/074b.jpg,stimuli/objects/090a.jpg,stimuli/objects/074a.jpg,lure,dist2,target,dist1,0,0,0,0,0,25,25,66,,,,,,,,,,,,,218.3119583837688,219.32422758452594,219.32422758452594,219.32422758452594,219.32422758452594,219.32422758452594,219.32422758452594,left,0,1.457789920270443,223.3346553184092,223.3346553184092,223.3346553184092,223.3346553184092,None,,,,,,,,,,ST01_120922,2022-12-09_12h55.25.237,Hippopolis_Updating,2022.2.2,59.98227739942304,
Camponello,stimuli/subj_files/ST01_120922_cityB.csv,./stimuli/arnedillo.png,./stimuli/street_plate2.png,./stimuli/videos/camponello_part,./stimuli/videos/campo-satellite.mp4,MOTOR UTCA,stimuli/objects/004a.jpg,object,left,2,stimuli/scenes/079a.jpg,stimuli/objects/073a.jpg,stimuli/scenes/079a.jpg,stimuli/scenes/079b.jpg,stimuli/objects/073b.jpg,dist1,target,lure,dist2,0,0,0,0,0,26,26,42,,,,,,,,,,,,,225.31670776195824,226.3487367555499,226.3487367555499,226.3487367555499,226.3487367555499,226.3487367555499,226.3487367555499,left,0,1.8568114321678877,230.33801107667387,230.33801107667387,230.33801107667387,230.33801107667387,None,,,,,,,,,,ST01_120922,2022-12-09_12h55.25.237,Hippopolis_Updating,2022.2.2,59.98227739942304,
Camponello,stimuli/subj_files/ST01_120922_cityB.csv,./stimuli/arnedillo.png,./stimuli/street_plate2.png,./stimuli/videos/camponello_part,./stimuli/videos/campo-satellite.mp4,SIRÁLY UTCA,stimuli/scenes/021a.jpg,scene,right,0,stimuli/scenes/021a.jpg,stimuli/scenes/021a.jpg,stimuli/scenes/021b.jpg,stimuli/objects/040b.jpg,stimuli/objects/040a.jpg,target,lure,dist2,dist1,0,0,0,0,0,27,27,0,,,,,,,,,,,,,232.31997923739254,233.34844658523798,233.34844658523798,233.34844658523798,233.34844658523798,233.34844658523798,233.34844658523798,left,0,2.5696132015436888,237.3434036169201,237.3434036169201,237.3434036169201,237.3434036169201,None,,,,,,,,,,ST01_120922,2022-12-09_12h55.25.237,Hippopolis_Updating,2022.2.2,59.98227739942304,
Camponello,stimuli/subj_files/ST01_120922_cityB.csv,./stimuli/arnedillo.png,./stimuli/street_plate2.png,./stimuli/videos/camponello_part,./stimuli/videos/campo-satellite.mp4,ASZTAL UTCA,stimuli/scenes/047a.jpg,scene,right,0,stimuli/scenes/047a.jpg,stimuli/scenes/059a.jpg,stimuli/scenes/047a.jpg,stimuli/scenes/047b.jpg,stimuli/scenes/059b.jpg,dist1,target,lure,dist2,0,0,0,0,0,28,28,34,,,,,,,,,,,,,239.32453143782914,240.35686615109444,240.35686615109444,240.35686615109444,240.35686615109444,240.35686615109444,240.35686615109444,left,0,1.2724509481340647,244.35074367932975,244.35074367932975,244.35074367932975,244.35074367932975,None,,,,,,,,,,ST01_120922,2022-12-09_12h55.25.237,Hippopolis_Updating,2022.2.2,59.98227739942304,
Camponello,stimuli/subj_files/ST01_120922_cityB.csv,./stimuli/arnedillo.png,./stimuli/street_plate2.png,./stimuli/videos/camponello_part,./stimuli/videos/campo-satellite.mp4,MARTINI UTCA,stimuli/scenes/001a.jpg,scene,right,0,stimuli/scenes/001a.jpg,stimuli/scenes/001a.jpg,stimuli/objects/053b.jpg,stimuli/objects/053a.jpg,stimuli/scenes/001b.jpg,target,dist2,dist1,lure,0,0,0,0,0,29,29,50,,,,,,,,,,,,,246.3391851261258,247.37011595629156,247.37011595629156,247.37011595629156,247.37011595629156,247.37011595629156,247.37011595629156,left,0,0.9949128869920969,251.35674547962844,251.35674547962844,251.35674547962844,251.35674547962844,None,,,,,,,,,,ST01_120922,2022-12-09_12h55.25.237,Hippopolis_Updating,2022.2.2,59.98227739942304,
Camponello,stimuli/subj_files/ST01_120922_cityB.csv,./stimuli/arnedillo.png,./stimuli/street_plate2.png,./stimuli/videos/camponello_part,./stimuli/videos/campo-satellite.mp4,KÓKUSZ UTCA,stimuli/scenes/003a.jpg,scene,right,0,stimuli/scenes/003a.jpg,stimuli/scenes/003b.jpg,stimuli/objects/104a.jpg,stimuli/scenes/003a.jpg,stimuli/objects/104b.jpg,lure,dist1,target,dist2,0,0,0,0,0,30,30,7,,,,,,,,,,,,,253.35386867076159,254.3727878127247,254.3727878127247,254.3727878127247,254.3727878127247,254.3727878127247,254.3727878127247,left,0,1.4163399208337069,258.36665352247655,258.36665352247655,258.36665352247655,258.36665352247655,None,,,,,,,,,,ST01_120922,2022-12-09_12h55.25.237,Hippopolis_Updating,2022.2.2,59.98227739942304,
Camponello,stimuli/subj_files/ST01_120922_cityB.csv,./stimuli/arnedillo.png,./stimuli/street_plate2.png,./stimuli/videos/camponello_part,./stimuli/videos/campo-satellite.mp4,KOCSI UTCA,stimuli/objects/003a.jpg,object,left,0,stimuli/objects/003a.jpg,stimuli/objects/020a.jpg,stimuli/objects/003b.jpg,stimuli/objects/020b.jpg,stimuli/objects/003a.jpg,dist1,lure,dist2,target,0,0,0,0,0,31,31,63,,,,,,,,,,,,,260.3658340200782,261.3759662974626,261.3759662974626,261.3759662974626,261.3759662974626,261.3759662974626,261.3759662974626,left,0,1.4054531436413527,265.39124479703605,265.39124479703605,265.39124479703605,265.39124479703605,None,,,,,,,,,,ST01_120922,2022-12-09_12h55.25.237,Hippopolis_Updating,2022.2.2,59.98227739942304,
Camponello,stimuli/subj_files/ST01_120922_cityB.csv,./stimuli/arnedillo.png,./stimuli/street_plate2.png,./stimuli/videos/camponello_part,./stimuli/videos/campo-satellite.mp4,FÉNYKÉP UTCA,stimuli/scenes/049a.jpg,scene,right,0,stimuli/scenes/049a.jpg,stimuli/scenes/105a.jpg,stimuli/scenes/049b.jpg,stimuli/scenes/049a.jpg,stimuli/scenes/105b.jpg,dist1,lure,target,dist2,0,0,0,0,0,32,32,46,,,,,,,,,,,,,267.37535019405186,268.3934168666601,268.3934168666601,268.3934168666601,268.3934168666601,268.3934168666601,268.3934168666601,right,0,1.9082652609795332,272.41217677108943,272.41217677108943,272.41217677108943,272.41217677108943,None,268.3934168666601,,,,,,,,,ST01_120922,2022-12-09_12h55.25.237,Hippopolis_Updating,2022.2.2,59.98227739942304,
Camponello,stimuli/subj_files/ST01_120922_cityB.csv,./stimuli/arnedillo.png,./stimuli/street_plate2.png,./stimuli/videos/camponello_part,./stimuli/videos/campo-satellite.mp4,VIHAR UTCA,stimuli/scenes/065a.jpg,scene,right,2,stimuli/objects/019a.jpg,stimuli/scenes/040a.jpg,stimuli/objects/019a.jpg,stimuli/objects/019b.jpg,stimuli/scenes/040b.jpg,dist1,target,lure,dist2,0,0,0,0,0,33,33,54,,,,,,,,,,,,,274.3986439500004,275.42407929711044,275.42407929711044,275.42407929711044,275.42407929711044,275.42407929711044,275.42407929711044,left,0,1.2770423348993063,279.42508229240775,279.42508229240775,279.42508229240775,279.42508229240775,None,,,,,,,,,,ST01_120922,2022-12-09_12h55.25.237,Hippopolis_Updating,2022.2.2,59.98227739942304,
Camponello,stimuli/subj_files/ST01_120922_cityB.csv,./stimuli/arnedillo.png,./stimuli/street_plate2.png,./stimuli/videos/camponello_part,./stimuli/videos/campo-satellite.mp4,ORVOS UTCA,stimuli/objects/020a.jpg,object,left,0,stimuli/objects/020a.jpg,stimuli/objects/020b.jpg,stimuli/scenes/064a.jpg,stimuli/scenes/064b.jpg,stimuli/objects/020a.jpg,lure,dist1,dist2,target,0,0,0,0,0,34,34,51,,,,,,,,,,,,,281.4087074957788,282.42013418115675,282.42013418115675,282.42013418115675,282.42013418115675,282.42013418115675,282.42013418115675,left,0,1.3211900033056736,286.44901796616614,286.44901796616614,286.44901796616614,286.44901796616614,None,,,,,,,,,,ST01_120922,2022-12-09_12h55.25.237,Hippopolis_Updating,2022.2.2,59.98227739942304,
Camponello,stimuli/subj_files/ST01_120922_cityB.csv,./stimuli/arnedillo.png,./stimuli/street_plate2.png,./stimuli/videos/camponello_part,./stimuli/videos/campo-satellite.mp4,CITROM UTCA,stimuli/scenes/005a.jpg,scene,right,0,stimuli/scenes/005a.jpg,stimuli/objects/069b.jpg,stimuli/scenes/005b.jpg,stimuli/objects/069a.jpg,stimuli/scenes/005a.jpg,dist2,lure,dist1,target,0,0,0,0,0,35,35,12,,,,,,,,,,,,,288.41547561623156,289.4301274381578,289.4301274381578,289.4301274381578,289.4301274381578,289.4301274381578,289.4301274381578,left,0,0.9991332441568375,293.4426146559417,293.4426146559417,293.4426146559417,293.4426146559417,None,289.4301274381578,,,,,,,,,ST01_120922,2022-12-09_12h55.25.237,Hippopolis_Updating,2022.2.2,59.98227739942304,
Camponello,stimuli/subj_files/ST01_120922_cityB.csv,./stimuli/arnedillo.png,./stimuli/street_plate2.png,./stimuli/videos/camponello_part,./stimuli/videos/campo-satellite.mp4,PALACK UTCA,stimuli/scenes/024a.jpg,scene,right,0,stimuli/scenes/024a.jpg,stimuli/scenes/024b.jpg,stimuli/scenes/031b.jpg,stimuli/scenes/024a.jpg,stimuli/scenes/031a.jpg,lure,dist2,target,dist1,0,0,0,0,0,36,36,14,,,,,,,,,,,,,295.4263154324144,296.4499960821122,296.4499960821122,296.4499960821122,296.4499960821122,296.4499960821122,296.4499960821122,left,0,1.0509711671620607,300.45135891251266,300.45135891251266,300.45135891251266,300.45135891251266,None,,,,,,,,,,ST01_120922,2022-12-09_12h55.25.237,Hippopolis_Updating,2022.2.2,59.98227739942304,
Camponello,stimuli/subj_files/ST01_120922_cityB.csv,./stimuli/arnedillo.png,./stimuli/street_plate2.png,./stimuli/videos/camponello_part,./stimuli/videos/campo-satellite.mp4,PIZSAMA UTCA,stimuli/scenes/041a.jpg,scene,right,0,stimuli/scenes/041a.jpg,stimuli/scenes/082b.jpg,stimuli/scenes/041b.jpg,stimuli/scenes/041a.jpg,stimuli/scenes/082a.jpg,dist2,lure,target,dist1,0,0,0,0,0,37,37,39,,,,,,,,,,,,,302.4346830602735,303.46489484235644,303.46489484235644,303.46489484235644,303.46489484235644,303.46489484235644,303.46489484235644,right,0,1.3960184529423714,307.4523454234004,307.4523454234004,307.4523454234004,307.4523454234004,None,,,,,,,,,,ST01_120922,2022-12-09_12h55.25.237,Hippopolis_Updating,2022.2.2,59.98227739942304,
Camponello,stimuli/subj_files/ST01_120922_cityB.csv,./stimuli/arnedillo.png,./stimuli/street_plate2.png,./stimuli/videos/camponello_part,./stimuli/videos/campo-satellite.mp4,TULIPÁN UTCA,stimuli/objects/088a.jpg,object,left,0,stimuli/objects/088a.jpg,stimuli/objects/085a.jpg,stimuli/objects/088b.jpg,stimuli/objects/088a.jpg,stimuli/objects/085b.jpg,dist1,lure,target,dist2,0,0,0,0,0,38,38,23,,,,,,,,,,,,,309.44080895371735,310.4640669450164,310.4640669450164,310.4640669450164,310.4640669450164,310.4640669450164,310.4640669450164,left,0,0.9887073766440153,314.45868839882314,314.45868839882314,314.45868839882314,314.45868839882314,None,,,,,,,,,,ST01_120922,2022-12-09_12h55.25.237,Hippopolis_Updating,2022.2.2,59.98227739942304,
Camponello,stimuli/subj_files/ST01_120922_cityB.csv,./stimuli/arnedillo.png,./stimuli/street_plate2.png,./stimuli/videos/camponello_part,./stimuli/videos/campo-satellite.mp4,LEVÉL UTCA,stimuli/scenes/073a.jpg,scene,right,1,stimuli/scenes/113a.jpg,stimuli/scenes/113a.jpg,stimuli/scenes/023a.jpg,stimuli/scenes/113b.jpg,stimuli/scenes/023b.jpg,target,dist1,lure,dist2,0,0,0,0,0,39,39,45,,,,,,,,,,,,,316.4425847996026,317.46284251101315,317.46284251101315,317.46284251101315,317.46284251101315,317.46284251101315,317.46284251101315,left,0,1.0941572040319443,321.4769765082747,321.4769765082747,321.4769765082747,321.4769765082747,None,,,,,,,,,,ST01_120922,2022-12-09_12h55.25.237,Hippopolis_Updating,2022.2.2,59.98227739942304,
Camponello,stimuli/subj_files/ST01_120922_cityB.csv,./stimuli/arnedillo.png,./stimuli/street_plate2.png,./stimuli/videos/camponello_part,./stimuli/videos/campo-satellite.mp4,HORGONY UTCA,stimuli/scenes/008a.jpg,scene,right,1,stimuli/scenes/051a.jpg,stimuli/scenes/051b.jpg,stimuli/scenes/034a.jpg,stimuli/scenes/034b.jpg,stimuli/scenes/051a.jpg,lure,dist1,dist2,target,0,0,0,0,0,40,40,15,,,,,,,,,,,,,323.45871172472835,324.4761100448668,324.4761100448668,324.4761100448668,324.4761100448668,324.4761100448668,324.4761100448668,left,0,2.9442829117178917,328.47572781704366,328.47572781704366,328.47572781704366,328.47572781704366,None,,,,,,,,,,ST01_120922,2022-12-09_12h55.25.237,Hippopolis_Updating,2022.2.2,59.98227739942304,
Camponello,stimuli/subj_files/ST01_120922_cityB.csv,./stimuli/arnedillo.png,./stimuli/street_plate2.png,./stimuli/videos/camponello_part,./stimuli/videos/campo-satellite.mp4,VÖDÖR UTCA,stimuli/objects/093a.jpg,object,left,1,stimuli/objects/014a.jpg,stimuli/objects/022a.jpg,stimuli/objects/014b.jpg,stimuli/objects/014a.jpg,stimuli/objects/022b.jpg,dist1,lure,target,dist2,0,0,0,0,0,41,41,17,,,,,,,,,,,,,330.47581458836794,331.50402380153537,331.50402380153537,331.50402380153537,331.50402380153537,331.50402380153537,331.50402380153537,right,0,1.4841271862387657,335.50509615056217,335.50509615056217,335.50509615056217,335.50509615056217,None,,,,,,,,,,ST01_120922,2022-12-09_12h55.25.237,Hippopolis_Updating,2022.2.2,59.98227739942304,
Camponello,stimuli/subj_files/ST01_120922_cityB.csv,./stimuli/arnedillo.png,./stimuli/street_plate2.png,./stimuli/videos/camponello_part,./stimuli/videos/campo-satellite.mp4,HORDÓ UTCA,stimuli/scenes/004a.jpg,scene,right,1,stimuli/scenes/034a.jpg,stimuli/scenes/099b.jpg,stimuli/scenes/034b.jpg,stimuli/scenes/034a.jpg,stimuli/scenes/099a.jpg,dist2,lure,target,dist1,0,0,0,0,0,42,42,3,,,,,,,,,,,,,337.48727175220847,338.50997708551586,338.50997708551586,338.50997708551586,338.50997708551586,338.50997708551586,338.50997708551586,right,0,1.7103252448141575,342.51400617323816,342.51400617323816,342.51400617323816,342.51400617323816,None,,,,,,,,,,ST01_120922,2022-12-09_12h55.25.237,Hippopolis_Updating,2022.2.2,59.98227739942304,
Camponello,stimuli/subj_files/ST01_120922_cityB.csv,./stimuli/arnedillo.png,./stimuli/street_plate2.png,./stimuli/videos/camponello_part,./stimuli/videos/campo-satellite.mp4,BAGOLY UTCA,stimuli/objects/116a.jpg,object,left,0,stimuli/objects/116a.jpg,stimuli/objects/016a.jpg,stimuli/objects/016b.jpg,stimuli/objects/116a.jpg,stimuli/objects/116b.jpg,dist1,dist2,target,lure,0,0,0,0,0,43,43,36,,,,,,,,,,,,,344.48955298401415,345.509433446452,345.509433446452,345.509433446452,345.509433446452,345.509433446452,345.509433446452,left,0,1.1588073465973139,349.50557976588607,349.50557976588607,349.50557976588607,349.50557976588607,None,,,,,,,,,,ST01_120922,2022-12-09_12h55.25.237,Hippopolis_Updating,2022.2.2,59.98227739942304,
Camponello,stimuli/subj_files/ST01_120922_cityB.csv,./stimuli/arnedillo.png,./stimuli/street_plate2.png,./stimuli/videos/camponello_part,./stimuli/videos/campo-satellite.mp4,KÁRTYA UTCA,stimuli/objects/061a.jpg,object,left,2,stimuli/scenes/032a.jpg,stimuli/objects/118a.jpg,stimuli/objects/118b.jpg,stimuli/scenes/032b.jpg,stimuli/scenes/032a.jpg,dist1,dist2,lure,target,0,0,0,0,0,44,44,2,,,,,,,,,,,,,351.50172297656536,352.5136845931411,352.5136845931411,352.5136845931411,352.5136845931411,352.5136845931411,352.5136845931411,left,0,1.1946240868419409,356.51622707024217,356.51622707024217,356.51622707024217,356.51622707024217,space,,358.50538289919496,358.50538289919496,3.763367073610425,,,,,,ST01_120922,2022-12-09_12h55.25.237,Hippopolis_Updating,2022.2.2,59.98227739942304,
Camponello,stimuli/subj_files/ST01_120922_cityB.csv,./stimuli/arnedillo.png,./stimuli/street_plate2.png,./stimuli/videos/camponello_part,./stimuli/videos/campo-satellite.mp4,NARANCS UTCA,stimuli/objects/099a.jpg,object,left,0,stimuli/objects/099a.jpg,stimuli/objects/099a.jpg,stimuli/objects/099b.jpg,stimuli/scenes/037b.jpg,stimuli/scenes/037a.jpg,target,lure,dist2,dist1,0,0,0,0,0,45,45,19,,,,,,,,,,,,,362.2981133107096,363.327004250139,363.327004250139,363.327004250139,363.327004250139,363.327004250139,363.327004250139,left,0,3.3893862403929234,367.3262205142528,367.3262205142528,367.3262205142528,367.3262205142528,None,,,,,,,,,,ST01_120922,2022-12-09_12h55.25.237,Hippopolis_Updating,2022.2.2,59.98227739942304,
Camponello,stimuli/subj_files/ST01_120922_cityB.csv,./stimuli/arnedillo.png,./stimuli/street_plate2.png,./stimuli/videos/camponello_part,./stimuli/videos/campo-satellite.mp4,MÁLNA UTCA,stimuli/objects/069a.jpg,object,left,0,stimuli/objects/069a.jpg,stimuli/objects/069a.jpg,stimuli/objects/017b.jpg,stimuli/objects/017a.jpg,stimuli/objects/069b.jpg,target,dist2,dist1,lure,0,0,0,0,0,46,46,53,,,,,,,,,,,,,369.3064038082957,370.32799200713634,370.32799200713634,370.32799200713634,370.32799200713634,370.32799200713634,370.32799200713634,left,0,1.6518081482499838,374.32411220110953,374.32411220110953,374.32411220110953,374.32411220110953,None,,,,,,,,,,ST01_120922,2022-12-09_12h55.25.237,Hippopolis_Updating,2022.2.2,59.98227739942304,
Camponello,stimuli/subj_files/ST01_120922_cityB.csv,./stimuli/arnedillo.png,./stimuli/street_plate2.png,./stimuli/videos/camponello_part,./stimuli/videos/campo-satellite.mp4,SÜTŐ UTCA,stimuli/scenes/015a.jpg,scene,right,2,stimuli/objects/118a.jpg,stimuli/scenes/079a.jpg,stimuli/objects/118a.jpg,stimuli/scenes/079b.jpg,stimuli/objects/118b.jpg,dist1,target,dist2,lure,0,0,0,0,0,47,47,76,,,,,,,,,,,,,376.31787092611194,377.34705234505236,377.34705234505236,377.34705234505236,377.34705234505236,377.34705234505236,377.34705234505236,right,0,3.2413667924702168,381.3400217331946,381.3400217331946,381.3400217331946,381.3400217331946,None,,,,,,,,,,ST01_120922,2022-12-09_12h55.25.237,Hippopolis_Updating,2022.2.2,59.98227739942304,
Camponello,stimuli/subj_files/ST01_120922_cityB.csv,./stimuli/arnedillo.png,./stimuli/street_plate2.png,./stimuli/videos/camponello_part,./stimuli/videos/campo-satellite.mp4,KRÉTA UTCA,stimuli/scenes/064a.jpg,scene,right,0,stimuli/scenes/064a.jpg,stimuli/objects/001b.jpg,stimuli/objects/001a.jpg,stimuli/scenes/064b.jpg,stimuli/scenes/064a.jpg,dist2,dist1,lure,target,0,0,0,0,0,48,48,52,,,,,,,,,,,,,383.3182388469577,384.34642131254077,384.34642131254077,384.34642131254077,384.34642131254077,384.34642131254077,384.34642131254077,left,0,0.9614784568548203,388.33571491762996,388.33571491762996,388.33571491762996,388.33571491762996,None,,,,,,,,,,ST01_120922,2022-12-09_12h55.25.237,Hippopolis_Updating,2022.2.2,59.98227739942304,
Camponello,stimuli/subj_files/ST01_120922_cityB.csv,./stimuli/arnedillo.png,./stimuli/street_plate2.png,./stimuli/videos/camponello_part,./stimuli/videos/campo-satellite.mp4,BÚJÓCSKA UTCA,stimuli/objects/109a.jpg,object,left,1,stimuli/objects/052a.jpg,stimuli/objects/052b.jpg,stimuli/objects/052a.jpg,stimuli/objects/100a.jpg,stimuli/objects/100b.jpg,lure,target,dist1,dist2,0,0,0,0,0,49,49,61,,,,,,,,,,,,,390.3242092356086,391.35481475293636,391.35481475293636,391.35481475293636,391.35481475293636,391.35481475293636,391.35481475293636,left,0,3.3128180224448442,395.3568111024797,395.3568111024797,395.3568111024797,395.3568111024797,None,,,,,,,,,,ST01_120922,2022-12-09_12h55.25.237,Hippopolis_Updating,2022.2.2,59.98227739942304,
Camponello,stimuli/subj_files/ST01_120922_cityB.csv,./stimuli/arnedillo.png,./stimuli/street_plate2.png,./stimuli/videos/camponello_part,./stimuli/videos/campo-satellite.mp4,POGÁCSA UTCA,stimuli/objects/038a.jpg,object,left,0,stimuli/objects/038a.jpg,stimuli/objects/095b.jpg,stimuli/objects/038b.jpg,stimuli/objects/038a.jpg,stimuli/objects/095a.jpg,dist2,lure,target,dist1,0,0,0,0,0,50,50,73,,,,,,,,,,,,,397.33401246741414,398.3627301771194,398.3627301771194,398.3627301771194,398.3627301771194,398.3627301771194,398.3627301771194,left,0,1.9376432374119759,402.359454035759,402.359454035759,402.359454035759,402.359454035759,None,,,,,,,,,,ST01_120922,2022-12-09_12h55.25.237,Hippopolis_Updating,2022.2.2,59.98227739942304,
Camponello,stimuli/subj_files/ST01_120922_cityB.csv,./stimuli/arnedillo.png,./stimuli/street_plate2.png,./stimuli/videos/camponello_part,./stimuli/videos/campo-satellite.mp4,KESELYŰ UTCA,stimuli/scenes/103a.jpg,scene,right,2,stimuli/objects/073a.jpg,stimuli/scenes/104b.jpg,stimuli/objects/073b.jpg,stimuli/scenes/104a.jpg,stimuli/objects/073a.jpg,dist2,lure,dist1,target,0,0,0,0,0,51,51,74,,,,,,,,,,,,,404.34249547868967,405.36235043779016,405.36235043779016,405.36235043779016,405.36235043779016,405.36235043779016,405.36235043779016,left,0,1.369995303452015,409.3748056218028,409.3748056218028,409.3748056218028,409.3748056218028,None,,,,,,,,,,ST01_120922,2022-12-09_12h55.25.237,Hippopolis_Updating,2022.2.2,59.98227739942304,
Camponello,stimuli/subj_files/ST01_120922_cityB.csv,./stimuli/arnedillo.png,./stimuli/street_plate2.png,./stimuli/videos/camponello_part,./stimuli/videos/campo-satellite.mp4,MENTA UTCA,stimuli/scenes/022a.jpg,scene,right,0,stimuli/scenes/022a.jpg,stimuli/scenes/116b.jpg,stimuli/scenes/022b.jpg,stimuli/scenes/022a.jpg,stimuli/scenes/116a.jpg,dist2,lure,target,dist1,0,0,0,0,0,52,52,58,,,,,,,,,,,,,411.3546517845243,412.3780842516571,412.3780842516571,412.3780842516571,412.3780842516571,412.3780842516571,412.3780842516571,left,0,1.1054498460143805,416.37529048137367,416.37529048137367,416.37529048137367,416.37529048137367,None,,,,,,,,,,ST01_120922,2022-12-09_12h55.25.237,Hippopolis_Updating,2022.2.2,59.98227739942304,
Camponello,stimuli/subj_files/ST01_120922_cityB.csv,./stimuli/arnedillo.png,./stimuli/street_plate2.png,./stimuli/videos/camponello_part,./stimuli/videos/campo-satellite.mp4,LÉTRA UTCA,stimuli/objects/058a.jpg,object,left,2,stimuli/scenes/104a.jpg,stimuli/scenes/104b.jpg,stimuli/scenes/104a.jpg,stimuli/scenes/032b.jpg,stimuli/scenes/032a.jpg,lure,target,dist2,dist1,0,0,0,0,0,53,53,26,,,,,,,,,,,,,418.35585382580757,419.38147764094174,419.38147764094174,419.38147764094174,419.38147764094174,419.38147764094174,419.38147764094174,right,0,3.35042242705822,423.3849363438785,423.3849363438785,423.3849363438785,423.3849363438785,None,,,,,,,,,,ST01_120922,2022-12-09_12h55.25.237,Hippopolis_Updating,2022.2.2,59.98227739942304,
Camponello,stimuli/subj_files/ST01_120922_cityB.csv,./stimuli/arnedillo.png,./stimuli/street_plate2.png,./stimuli/videos/camponello_part,./stimuli/videos/campo-satellite.mp4,FÓKA UTCA,stimuli/scenes/086a.jpg,scene,right,0,stimuli/scenes/086a.jpg,stimuli/scenes/086a.jpg,stimuli/objects/026b.jpg,stimuli/scenes/086b.jpg,stimuli/objects/026a.jpg,target,dist2,lure,dist1,0,0,0,0,0,54,54,59,,,,,,,,,,,,,425.3638833872974,426.3914562817663,426.3914562817663,426.3914562817663,426.3914562817663,426.3914562817663,426.3914562817663,right,0,1.9238090515136719,430.39056835882366,430.39056835882366,430.39056835882366,430.39056835882366,None,,,,,,,,,,ST01_120922,2022-12-09_12h55.25.237,Hippopolis_Updating,2022.2.2,59.98227739942304,
Camponello,stimuli/subj_files/ST01_120922_cityB.csv,./stimuli/arnedillo.png,./stimuli/street_plate2.png,./stimuli/videos/camponello_part,./stimuli/videos/campo-satellite.mp4,PÁFRÁNY UTCA,stimuli/objects/001a.jpg,object,left,0,stimuli/objects/001a.jpg,stimuli/objects/031b.jpg,stimuli/objects/001b.jpg,stimuli/objects/031a.jpg,stimuli/objects/001a.jpg,dist2,lure,dist1,target,0,0,0,0,0,55,55,25,,,,,,,,,,,,,432.37314857915044,433.39268600195646,433.39268600195646,433.39268600195646,433.39268600195646,433.39268600195646,433.39268600195646,left,0,1.3227969743311405,437.3925034403801,437.3925034403801,437.3925034403801,437.3925034403801,None,,,,,,,,,,ST01_120922,2022-12-09_12h55.25.237,Hippopolis_Updating,2022.2.2,59.98227739942304,
Camponello,stimuli/subj_files/ST01_120922_cityB.csv,./stimuli/arnedillo.png,./stimuli/street_plate2.png,./stimuli/videos/camponello_part,./stimuli/videos/campo-satellite.mp4,SZŐLŐ UTCA,stimuli/objects/095a.jpg,object,left,0,stimuli/objects/095a.jpg,stimuli/objects/095a.jpg,stimuli/scenes/083a.jpg,stimuli/objects/095b.jpg,stimuli/scenes/083b.jpg,target,dist1,lure,dist2,0,0,0,0,0,56,56,27,,,,,,,,,,,,,439.37479380331933,440.39132628031075,440.39132628031075,440.39132628031075,440.39132628031075,440.39132628031075,440.39132628031075,left,0,1.652077166363597,444.4072725120932,444.4072725120932,444.4072725120932,444.4072725120932,None,440.39132628031075,,,,,,,,,ST01_120922,2022-12-09_12h55.25.237,Hippopolis_Updating,2022.2.2,59.98227739942304,
Camponello,stimuli/subj_files/ST01_120922_cityB.csv,./stimuli/arnedillo.png,./stimuli/street_plate2.png,./stimuli/videos/camponello_part,./stimuli/videos/campo-satellite.mp4,BANÁN UTCA,stimuli/objects/040a.jpg,object,left,0,stimuli/objects/040a.jpg,stimuli/objects/040b.jpg,stimuli/objects/040a.jpg,stimuli/scenes/088a.jpg,stimuli/scenes/088b.jpg,lure,target,dist1,dist2,0,0,0,0,0,57,57,57,,,,,,,,,,,,,446.389003995806,447.4190823584795,447.4190823584795,447.4190823584795,447.4190823584795,447.4190823584795,447.4190823584795,left,0,1.2640665266662836,451.4214556477964,451.4214556477964,451.4214556477964,451.4214556477964,None,,,,,,,,,,ST01_120922,2022-12-09_12h55.25.237,Hippopolis_Updating,2022.2.2,59.98227739942304,
Camponello,stimuli/subj_files/ST01_120922_cityB.csv,./stimuli/arnedillo.png,./stimuli/street_plate2.png,./stimuli/videos/camponello_part,./stimuli/videos/campo-satellite.mp4,HEGESZTŐ UTCA,stimuli/objects/031a.jpg,object,left,0,stimuli/objects/031a.jpg,stimuli/objects/003a.jpg,stimuli/objects/031a.jpg,stimuli/objects/031b.jpg,stimuli/objects/003b.jpg,dist1,target,lure,dist2,0,0,0,0,0,58,58,13,,,,,,,,,,,,,453.39877457357943,454.4256635643542,454.4256635643542,454.4256635643542,454.4256635643542,454.4256635643542,454.4256635643542,left,0,1.9055479988455772,458.4287471920252,458.4287471920252,458.4287471920252,458.4287471920252,None,,,,,,,,,,ST01_120922,2022-12-09_12h55.25.237,Hippopolis_Updating,2022.2.2,59.98227739942304,
Camponello,stimuli/subj_files/ST01_120922_cityB.csv,./stimuli/arnedillo.png,./stimuli/street_plate2.png,./stimuli/videos/camponello_part,./stimuli/videos/campo-satellite.mp4,TRIATLON UTCA,stimuli/scenes/059a.jpg,scene,right,0,stimuli/scenes/059a.jpg,stimuli/scenes/059b.jpg,stimuli/scenes/120a.jpg,stimuli/scenes/120b.jpg,stimuli/scenes/059a.jpg,lure,dist1,dist2,target,0,0,0,0,0,59,59,68,,,,,,,,,,,,,460.40571965649724,461.43193625099957,461.43193625099957,461.43193625099957,461.43193625099957,461.43193625099957,461.43193625099957,right,0,2.0195134934037924,465.43587048351765,465.43587048351765,465.43587048351765,465.43587048351765,None,,,,,,,,,,ST01_120922,2022-12-09_12h55.25.237,Hippopolis_Updating,2022.2.2,59.98227739942304,
Camponello,stimuli/subj_files/ST01_120922_cityB.csv,./stimuli/arnedillo.png,./stimuli/street_plate2.png,./stimuli/videos/camponello_part,./stimuli/videos/campo-satellite.mp4,ÁRNYÉK UTCA,stimuli/objects/053a.jpg,object,left,0,stimuli/objects/053a.jpg,stimuli/scenes/109a.jpg,stimuli/objects/053b.jpg,stimuli/objects/053a.jpg,stimuli/scenes/109b.jpg,dist1,lure,target,dist2,0,0,0,0,0,60,60,60,,,,,,,,,,,,,467.4219653867185,468.4518325738609,468.4518325738609,468.4518325738609,468.4518325738609,468.4518325738609,468.4518325738609,left,0,1.0789567660540342,472.4406854826957,472.4406854826957,472.4406854826957,472.4406854826957,None,,,,,,,,,,ST01_120922,2022-12-09_12h55.25.237,Hippopolis_Updating,2022.2.2,59.98227739942304,
Camponello,stimuli/subj_files/ST01_120922_cityB.csv,./stimuli/arnedillo.png,./stimuli/street_plate2.png,./stimuli/videos/camponello_part,./stimuli/videos/campo-satellite.mp4,ECSET UTCA,stimuli/scenes/120a.jpg,scene,right,0,stimuli/scenes/120a.jpg,stimuli/scenes/120a.jpg,stimuli/scenes/120b.jpg,stimuli/objects/082b.jpg,stimuli/objects/082a.jpg,target,lure,dist2,dist1,0,0,0,0,0,61,61,41,,,,,,,,,,,,,474.4382733181119,475.4588644299656,475.4588644299656,475.4588644299656,475.4588644299656,475.4588644299656,475.4588644299656,right,0,2.7122270483523607,479.4680817257613,479.4680817257613,479.4680817257613,479.4680817257613,None,,,,,,,,,,ST01_120922,2022-12-09_12h55.25.237,Hippopolis_Updating,2022.2.2,59.98227739942304,
Camponello,stimuli/subj_files/ST01_120922_cityB.csv,./stimuli/arnedillo.png,./stimuli/street_plate2.png,./stimuli/videos/camponello_part,./stimuli/videos/campo-satellite.mp4,TALICSKA UTCA,stimuli/scenes/088a.jpg,scene,right,0,stimuli/scenes/088a.jpg,stimuli/scenes/095a.jpg,stimuli/scenes/095b.jpg,stimuli/scenes/088a.jpg,stimuli/scenes/088b.jpg,dist1,dist2,target,lure,0,0,0,0,0,62,62,9,,,,,,,,,,,,,481.44187881425023,482.4691805113107,482.4691805113107,482.4691805113107,482.4691805113107,482.4691805113107,482.4691805113107,right,0,1.1576986089348793,486.47441661544144,486.47441661544144,486.47441661544144,486.47441661544144,None,,,,,,,,,,ST01_120922,2022-12-09_12h55.25.237,Hippopolis_Updating,2022.2.2,59.98227739942304,
Camponello,stimuli/subj_files/ST01_120922_cityB.csv,./stimuli/arnedillo.png,./stimuli/street_plate2.png,./stimuli/videos/camponello_part,./stimuli/videos/campo-satellite.mp4,CUKOR UTCA,stimuli/objects/030a.jpg,object,left,1,stimuli/objects/022a.jpg,stimuli/objects/022a.jpg,stimuli/objects/049a.jpg,stimuli/objects/049b.jpg,stimuli/objects/022b.jpg,target,dist1,dist2,lure,0,0,0,0,0,63,63,29,,,,,,,,,,,,,488.4551059175283,489.47911498881876,489.47911498881876,489.47911498881876,489.47911498881876,489.47911498881876,489.47911498881876,left,0,0.9160509947687387,493.49713905341923,493.49713905341923,493.49713905341923,493.49713905341923,None,,,,,,,,,,ST01_120922,2022-12-09_12h55.25.237,Hippopolis_Updating,2022.2.2,59.98227739942304,
Camponello,stimuli/subj_files/ST01_120922_cityB.csv,./stimuli/arnedillo.png,./stimuli/street_plate2.png,./stimuli/videos/camponello_part,./stimuli/videos/campo-satellite.mp4,HARMONIKA UTCA,stimuli/scenes/026a.jpg,scene,right,0,stimuli/scenes/026a.jpg,stimuli/objects/116a.jpg,stimuli/scenes/026b.jpg,stimuli/objects/116b.jpg,stimuli/scenes/026a.jpg,dist1,lure,dist2,target,0,0,0,0,0,64,64,24,,,,,,,,,,,,,495.4668097086251,496.49218161031604,496.49218161031604,496.49218161031604,496.49218161031604,496.49218161031604,496.49218161031604,left,0,1.134756289422512,500.49105918966234,500.49105918966234,500.49105918966234,500.49105918966234,None,,,,,,,,,,ST01_120922,2022-12-09_12h55.25.237,Hippopolis_Updating,2022.2.2,59.98227739942304,
Camponello,stimuli/subj_files/ST01_120922_cityB.csv,./stimuli/arnedillo.png,./stimuli/street_plate2.png,./stimuli/videos/camponello_part,./stimuli/videos/campo-satellite.mp4,KERET UTCA,stimuli/objects/023a.jpg,object,left,2,stimuli/scenes/108a.jpg,stimuli/scenes/108b.jpg,stimuli/scenes/094b.jpg,stimuli/scenes/094a.jpg,stimuli/scenes/108a.jpg,lure,dist2,dist1,target,0,0,0,0,0,65,65,38,,,,,,,,,,,,,502.4817377049476,503.50212262012064,503.50212262012064,503.50212262012064,503.50212262012064,503.50212262012064,503.50212262012064,left,0,1.148197053000331,507.503183150664,507.503183150664,507.503183150664,507.503183150664,None,,,,,,,,,,ST01_120922,2022-12-09_12h55.25.237,Hippopolis_Updating,2022.2.2,59.98227739942304,
Camponello,stimuli/subj_files/ST01_120922_cityB.csv,./stimuli/arnedillo.png,./stimuli/street_plate2.png,./stimuli/videos/camponello_part,./stimuli/videos/campo-satellite.mp4,TOLMÁCS UTCA,stimuli/scenes/092a.jpg,scene,right,0,stimuli/scenes/092a.jpg,stimuli/objects/032a.jpg,stimuli/objects/032b.jpg,stimuli/scenes/092b.jpg,stimuli/scenes/092a.jpg,dist1,dist2,lure,target,0,0,0,0,0,66,66,31,,,,,,,,,,,,,509.491286534816,510.5185789000243,510.5185789000243,510.5185789000243,510.5185789000243,510.5185789000243,510.5185789000243,left,0,1.7955739628523588,514.529938409105,514.529938409105,514.529938409105,514.529938409105,None,,,,,,,,,,ST01_120922,2022-12-09_12h55.25.237,Hippopolis_Updating,2022.2.2,59.98227739942304,
Camponello,stimuli/subj_files/ST01_120922_cityB.csv,./stimuli/arnedillo.png,./stimuli/street_plate2.png,./stimuli/videos/camponello_part,./stimuli/videos/campo-satellite.mp4,KÖTÉNY UTCA,stimuli/scenes/060a.jpg,scene,right,2,stimuli/objects/007a.jpg,stimuli/objects/007a.jpg,stimuli/objects/057b.jpg,stimuli/objects/057a.jpg,stimuli/objects/007b.jpg,target,dist2,dist1,lure,0,0,0,0,0,67,67,28,,,,,,,,,,,,,516.5082077700645,517.5336851030588,517.5336851030588,517.5336851030588,517.5336851030588,517.5336851030588,517.5336851030588,left,0,1.4530420955270529,521.5367018654943,521.5367018654943,521.5367018654943,521.5367018654943,None,,,,,,,,,,ST01_120922,2022-12-09_12h55.25.237,Hippopolis_Updating,2022.2.2,59.98227739942304,
Camponello,stimuli/subj_files/ST01_120922_cityB.csv,./stimuli/arnedillo.png,./stimuli/street_plate2.png,./stimuli/videos/camponello_part,./stimuli/videos/campo-satellite.mp4,KOCKA UTCA,stimuli/objects/032a.jpg,object,left,0,stimuli/objects/032a.jpg,stimuli/scenes/035a.jpg,stimuli/scenes/035b.jpg,stimuli/objects/032a.jpg,stimuli/objects/032b.jpg,dist1,dist2,target,lure,0,0,0,0,0,68,68,62,,,,,,,,,,,,,523.5123631265014,524.5219446122646,524.5219446122646,524.5219446122646,524.5219446122646,524.5219446122646,524.5219446122646,None,0,,528.5454025790095,528.5454025790095,528.5454025790095,528.5454025790095,None,,,,,,,,,,ST01_120922,2022-12-09_12h55.25.237,Hippopolis_Updating,2022.2.2,59.98227739942304,
Camponello,stimuli/subj_files/ST01_120922_cityB.csv,./stimuli/arnedillo.png,./stimuli/street_plate2.png,./stimuli/videos/camponello_part,./stimuli/videos/campo-satellite.mp4,KÖTÉL UTCA,stimuli/objects/104a.jpg,object,left,0,stimuli/objects/104a.jpg,stimuli/objects/104a.jpg,stimuli/scenes/049b.jpg,stimuli/scenes/049a.jpg,stimuli/objects/104b.jpg,target,dist2,dist1,lure,0,0,0,0,0,69,69,69,,,,,,,,,,,,,530.5212768800557,531.5473162028939,531.5473162028939,531.5473162028939,531.5473162028939,531.5473162028939,531.5473162028939,None,0,,535.5547134894878,535.5547134894878,535.5547134894878,535.5547134894878,None,,,,,,,,,,ST01_120922,2022-12-09_12h55.25.237,Hippopolis_Updating,2022.2.2,59.98227739942304,
Camponello,stimuli/subj_files/ST01_120922_cityB.csv,./stimuli/arnedillo.png,./stimuli/street_plate2.png,./stimuli/videos/camponello_part,./stimuli/videos/campo-satellite.mp4,SZŐNYEG UTCA,stimuli/objects/026a.jpg,object,left,0,stimuli/objects/026a.jpg,stimuli/objects/026a.jpg,stimuli/objects/099a.jpg,stimuli/objects/026b.jpg,stimuli/objects/099b.jpg,target,dist1,lure,dist2,0,0,0,0,0,70,70,37,,,,,,,,,,,,,537.5231314115226,538.5517897177488,538.5517897177488,538.5517897177488,538.5517897177488,538.5517897177488,538.5517897177488,left,0,1.2021967805922031,542.5534884352237,542.5534884352237,542.5534884352237,542.5534884352237,None,,,,,,,,,,ST01_120922,2022-12-09_12h55.25.237,Hippopolis_Updating,2022.2.2,59.98227739942304,
Camponello,stimuli/subj_files/ST01_120922_cityB.csv,./stimuli/arnedillo.png,./stimuli/street_plate2.png,./stimuli/videos/camponello_part,./stimuli/videos/campo-satellite.mp4,SZAXOFON UTCA,stimuli/objects/060a.jpg,object,left,0,stimuli/objects/060a.jpg,stimuli/scenes/005b.jpg,stimuli/objects/060a.jpg,stimuli/scenes/005a.jpg,stimuli/objects/060b.jpg,dist2,target,dist1,lure,0,0,0,0,0,71,71,18,,,,,,,,,,,,,544.5378093589097,545.5699450261891,545.5699450261891,545.5699450261891,545.5699450261891,545.5699450261891,545.5699450261891,left,0,2.071763187646866,549.5717961378396,549.5717961378396,549.5717961378396,549.5717961378396,None,,,,,,,,,,ST01_120922,2022-12-09_12h55.25.237,Hippopolis_Updating,2022.2.2,59.98227739942304,
Camponello,stimuli/subj_files/ST01_120922_cityB.csv,./stimuli/arnedillo.png,./stimuli/street_plate2.png,./stimuli/videos/camponello_part,./stimuli/videos/campo-satellite.mp4,MAJOM UTCA,stimuli/objects/085a.jpg,object,left,0,stimuli/objects/085a.jpg,stimuli/scenes/112b.jpg,stimuli/scenes/112a.jpg,stimuli/objects/085a.jpg,stimuli/objects/085b.jpg,dist2,dist1,target,lure,0,0,0,0,0,72,72,11,,,,,,,,,,,,,551.5393631458282,552.5639761928469,552.5639761928469,552.5639761928469,552.5639761928469,552.5639761928469,552.5639761928469,left,0,1.093411099165678,556.5680211409926,556.5680211409926,556.5680211409926,556.5680211409926,None,,,,,,,,,,ST01_120922,2022-12-09_12h55.25.237,Hippopolis_Updating,2022.2.2,59.98227739942304,
Camponello,stimuli/subj_files/ST01_120922_cityB.csv,./stimuli/arnedillo.png,./stimuli/street_plate2.png,./stimuli/videos/camponello_part,./stimuli/videos/campo-satellite.mp4,TÁSKA UTCA,stimuli/scenes/083a.jpg,scene,right,0,stimuli/scenes/083a.jpg,stimuli/objects/119a.jpg,stimuli/scenes/083b.jpg,stimuli/scenes/083a.jpg,stimuli/objects/119b.jpg,dist1,lure,target,dist2,0,0,0,0,0,73,73,16,,,,,,,,,,,,,558.545537866652,559.5558838061988,559.5558838061988,559.5558838061988,559.5558838061988,559.5558838061988,559.5558838061988,left,0,2.725894534960389,563.5815412122756,563.5815412122756,563.5815412122756,563.5815412122756,None,,,,,,,,,,ST01_120922,2022-12-09_12h55.25.237,Hippopolis_Updating,2022.2.2,59.98227739942304,
Camponello,stimuli/subj_files/ST01_120922_cityB.csv,./stimuli/arnedillo.png,./stimuli/street_plate2.png,./stimuli/videos/camponello_part,./stimuli/videos/campo-satellite.mp4,BETON UTCA,stimuli/scenes/031a.jpg,scene,right,0,stimuli/scenes/031a.jpg,stimuli/scenes/047a.jpg,stimuli/scenes/031a.jpg,stimuli/scenes/047b.jpg,stimuli/scenes/031b.jpg,dist1,target,dist2,lure,0,0,0,0,0,74,74,48,,,,,,,,,,,,,565.5554266273975,566.5776352826506,566.5776352826506,566.5776352826506,566.5776352826506,566.5776352826506,566.5776352826506,left,0,1.2404941078275442,570.5727863814682,570.5727863814682,570.5727863814682,570.5727863814682,None,,,,,,,,,,ST01_120922,2022-12-09_12h55.25.237,Hippopolis_Updating,2022.2.2,59.98227739942304,
Camponello,stimuli/subj_files/ST01_120922_cityB.csv,./stimuli/arnedillo.png,./stimuli/street_plate2.png,./stimuli/videos/camponello_part,./stimuli/videos/campo-satellite.mp4,KARTON UTCA,stimuli/objects/074a.jpg,object,left,0,stimuli/objects/074a.jpg,stimuli/objects/074b.jpg,stimuli/objects/074a.jpg,stimuli/scenes/026a.jpg,stimuli/scenes/026b.jpg,lure,target,dist1,dist2,0,0,0,0,0,75,75,56,,,,,,,,,,,,,572.55833267048,573.5820158068091,573.5820158068091,573.5820158068091,573.5820158068091,573.5820158068091,573.5820158068091,left,0,1.1480365730822086,577.5903091039509,577.5903091039509,577.5903091039509,577.5903091039509,None,,,,,,,,,,ST01_120922,2022-12-09_12h55.25.237,Hippopolis_Updating,2022.2.2,59.98227739942304,
Camponello,stimuli/subj_files/ST01_120922_cityB.csv,./stimuli/arnedillo.png,./stimuli/street_plate2.png,./stimuli/videos/camponello_part,./stimuli/videos/campo-satellite.mp4,ZONGORA UTCA,stimuli/objects/064a.jpg,object,left,2,stimuli/scenes/094a.jpg,stimuli/scenes/108b.jpg,stimuli/scenes/094b.jpg,stimuli/scenes/108a.jpg,stimuli/scenes/094a.jpg,dist2,lure,dist1,target,0,0,0,0,0,76,76,21,,,,,,,,,,,,,579.5673073809594,580.5962225794792,580.5962225794792,580.5962225794792,580.5962225794792,580.5962225794792,580.5962225794792,left,0,1.8292344957590103,584.6125871129334,584.6125871129334,584.6125871129334,584.6125871129334,None,,,,,,,,,,ST01_120922,2022-12-09_12h55.25.237,Hippopolis_Updating,2022.2.2,59.98227739942304,
Camponello,stimuli/subj_files/ST01_120922_cityB.csv,./stimuli/arnedillo.png,./stimuli/street_plate2.png,./stimuli/videos/camponello_part,./stimuli/videos/campo-satellite.mp4,TÜKÖR UTCA,stimuli/objects/081a.jpg,object,left,0,stimuli/objects/081a.jpg,stimuli/objects/081b.jpg,stimuli/objects/060a.jpg,stimuli/objects/081a.jpg,stimuli/objects/060b.jpg,lure,dist1,target,dist2,0,0,0,0,0,77,77,33,,,,,,,,,,,,,586.5786118414253,587.58839206025,587.58839206025,587.58839206025,587.58839206025,587.58839206025,587.58839206025,left,0,1.6688472535461187,591.6064438037574,591.6064438037574,591.6064438037574,591.6064438037574,None,,,,,,,,,,ST01_120922,2022-12-09_12h55.25.237,Hippopolis_Updating,2022.2.2,59.98227739942304,
Camponello,stimuli/subj_files/ST01_120922_cityB.csv,./stimuli/arnedillo.png,./stimuli/street_plate2.png,./stimuli/videos/camponello_part,./stimuli/videos/campo-satellite.mp4,PAPAGÁJ UTCA,stimuli/objects/082a.jpg,object,left,0,stimuli/objects/082a.jpg,stimuli/scenes/092a.jpg,stimuli/objects/082a.jpg,stimuli/scenes/092b.jpg,stimuli/objects/082b.jpg,dist1,target,dist2,lure,0,0,0,0,0,78,78,44,,,,,,,,,,,,,593.588965555653,594.6152067203075,594.6152067203075,594.6152067203075,594.6152067203075,594.6152067203075,594.6152067203075,right,0,1.9386020693928003,598.6211345028132,598.6211345028132,598.6211345028132,598.6211345028132,None,,,,,,,,,,ST01_120922,2022-12-09_12h55.25.237,Hippopolis_Updating,2022.2.2,59.98227739942304,
Camponello,stimuli/subj_files/ST01_120922_cityB.csv,./stimuli/arnedillo.png,./stimuli/street_plate2.png,./stimuli/videos/camponello_part,./stimuli/videos/campo-satellite.mp4,SZÖCSKE UTCA,stimuli/scenes/097a.jpg,scene,right,1,stimuli/scenes/023a.jpg,stimuli/scenes/023a.jpg,stimuli/objects/014a.jpg,stimuli/scenes/023b.jpg,stimuli/objects/014b.jpg,target,dist1,lure,dist2,0,0,0,0,0,79,79,70,,,,,,,,,,,,,600.5970809571445,601.6127687413245,601.6127687413245,601.6127687413245,601.6127687413245,601.6127687413245,601.6127687413245,left,0,1.0684366654604673,605.6201893538237,605.6201893538237,605.6201893538237,605.6201893538237,None,601.6127687413245,,,,,,,,,ST01_120922,2022-12-09_12h55.25.237,Hippopolis_Updating,2022.2.2,59.98227739942304,
Hippopolis,stimuli/subj_files/ST01_120922_cityA.csv,./stimuli/seattle.jpg,./stimuli/street_plate1.png,./stimuli/videos/hippopolis_part,./stimuli/videos/hippo-satellite.mp4,TÁNYÉR UTCA,stimuli/scenes/046a.jpg,scene,right,1,stimuli/scenes/011a.jpg,stimuli/scenes/011b.jpg,stimuli/scenes/028b.jpg,stimuli/scenes/011a.jpg,stimuli/scenes/028a.jpg,lure,dist2,target,dist1,0,1,1,1,0,0,0,26,,,,,611.5588850174099,611.5588850174099,0.037104615941643715,614.7420811560005,614.7420811560005,None,622.160473389551,622.160473389551,624.5509873218834,625.5528732649982,625.5528732649982,625.5528732649982,625.5528732649982,625.5528732649982,625.5528732649982,None,0,,629.5384117774665,629.5384117774665,629.5384117774665,629.5384117774665,None,,,,,607.602900819853,607.602900819853,space,3.8941828925162554,,ST01_120922,2022-12-09_12h55.25.237,Hippopolis_Updating,2022.2.2,59.98227739942304,
Hippopolis,stimuli/subj_files/ST01_120922_cityA.csv,./stimuli/seattle.jpg,./stimuli/street_plate1.png,./stimuli/videos/hippopolis_part,./stimuli/videos/hippo-satellite.mp4,TOBOZ UTCA,stimuli/objects/096a.jpg,object,left,2,stimuli/scenes/036a.jpg,stimuli/scenes/036b.jpg,stimuli/scenes/036a.jpg,stimuli/scenes/081b.jpg,stimuli/scenes/081a.jpg,lure,target,dist2,dist1,0,1,1,1,0,1,1,58,,,,,,,,,,,,,631.5359520278871,632.5486047007143,632.5486047007143,632.5486047007143,632.5486047007143,632.5486047007143,632.5486047007143,left,0,1.3641919251531363,636.5597029644996,636.5597029644996,636.5597029644996,636.5597029644996,None,,,,,,,,,,ST01_120922,2022-12-09_12h55.25.237,Hippopolis_Updating,2022.2.2,59.98227739942304,
Hippopolis,stimuli/subj_files/ST01_120922_cityA.csv,./stimuli/seattle.jpg,./stimuli/street_plate1.png,./stimuli/videos/hippopolis_part,./stimuli/videos/hippo-satellite.mp4,FEJSZE UTCA,stimuli/scenes/007a.jpg,scene,right,1,stimuli/scenes/028a.jpg,stimuli/scenes/028b.jpg,stimuli/objects/113b.jpg,stimuli/objects/113a.jpg,stimuli/scenes/028a.jpg,lure,dist2,dist1,target,0,1,1,1,0,2,2,41,,,,,,,,,,,,,638.540446382016,639.566431587562,639.566431587562,639.566431587562,639.566431587562,639.566431587562,639.566431587562,left,0,2.4265511948615313,643.5658092647791,643.5658092647791,643.5658092647791,643.5658092647791,None,,,,,,,,,,ST01_120922,2022-12-09_12h55.25.237,Hippopolis_Updating,2022.2.2,59.98227739942304,
Hippopolis,stimuli/subj_files/ST01_120922_cityA.csv,./stimuli/seattle.jpg,./stimuli/street_plate1.png,./stimuli/videos/hippopolis_part,./stimuli/videos/hippo-satellite.mp4,PULÓVER UTCA,stimuli/scenes/085a.jpg,scene,right,2,stimuli/objects/035a.jpg,stimuli/objects/035b.jpg,stimuli/scenes/036b.jpg,stimuli/scenes/036a.jpg,stimuli/objects/035a.jpg,lure,dist2,dist1,target,0,1,1,1,0,3,3,20,,,,,,,,,,,,,645.5409853551537,646.5734158586711,646.5734158586711,646.5734158586711,646.5734158586711,646.5734158586711,646.5734158586711,left,0,2.85950536839664,650.5704886671156,650.5704886671156,650.5704886671156,650.5704886671156,None,,,,,,,,,,ST01_120922,2022-12-09_12h55.25.237,Hippopolis_Updating,2022.2.2,59.98227739942304,
Hippopolis,stimuli/subj_files/ST01_120922_cityA.csv,./stimuli/seattle.jpg,./stimuli/street_plate1.png,./stimuli/videos/hippopolis_part,./stimuli/videos/hippo-satellite.mp4,PETÁRDA UTCA,stimuli/objects/047a.jpg,object,left,0,stimuli/objects/047a.jpg,stimuli/objects/047a.jpg,stimuli/objects/047b.jpg,stimuli/objects/028b.jpg,stimuli/objects/028a.jpg,target,lure,dist2,dist1,0,1,1,1,0,4,4,6,,,,,,,,,,,,,652.5496104955673,653.5734556671232,653.5734556671232,653.5734556671232,653.5734556671232,653.5734556671232,653.5734556671232,left,0,1.5399366617202759,657.564210690558,657.564210690558,657.564210690558,657.564210690558,None,,,,,,,,,,ST01_120922,2022-12-09_12h55.25.237,Hippopolis_Updating,2022.2.2,59.98227739942304,
Hippopolis,stimuli/subj_files/ST01_120922_cityA.csv,./stimuli/seattle.jpg,./stimuli/street_plate1.png,./stimuli/videos/hippopolis_part,./stimuli/videos/hippo-satellite.mp4,KAKAÓ UTCA,stimuli/scenes/107a.jpg,scene,right,2,stimuli/objects/054a.jpg,stimuli/objects/102a.jpg,stimuli/objects/102b.jpg,stimuli/objects/054a.jpg,stimuli/objects/054b.jpg,dist1,dist2,target,lure,0,1,1,1,0,5,5,13,,,,,,,,,,,,,659.5525830946863,660.5771140363067,660.5771140363067,660.5771140363067,660.5771140363067,660.5771140363067,660.5771140363067,right,0,1.0637230519205332,664.5705769918859,664.5705769918859,664.5705769918859,664.5705769918859,None,,,,,,,,,,ST01_120922,2022-12-09_12h55.25.237,Hippopolis_Updating,2022.2.2,59.98227739942304,
Hippopolis,stimuli/subj_files/ST01_120922_cityA.csv,./stimuli/seattle.jpg,./stimuli/street_plate1.png,./stimuli/videos/hippopolis_part,./stimuli/videos/hippo-satellite.mp4,KESZTYŰ UTCA,stimuli/scenes/050a.jpg,scene,right,1,stimuli/scenes/098a.jpg,stimuli/scenes/098a.jpg,stimuli/scenes/020a.jpg,stimuli/scenes/098b.jpg,stimuli/scenes/020b.jpg,target,dist1,lure,dist2,0,1,1,1,0,6,6,15,,,,,,,,,,,,,666.5693298559636,667.5936051495373,667.5936051495373,667.5936051495373,667.5936051495373,667.5936051495373,667.5936051495373,left,0,1.0871079321950674,671.582656480372,671.582656480372,671.582656480372,671.582656480372,None,,,,,,,,,,ST01_120922,2022-12-09_12h55.25.237,Hippopolis_Updating,2022.2.2,59.98227739942304,
Hippopolis,stimuli/subj_files/ST01_120922_cityA.csv,./stimuli/seattle.jpg,./stimuli/street_plate1.png,./stimuli/videos/hippopolis_part,./stimuli/videos/hippo-satellite.mp4,LABDA UTCA,stimuli/objects/062a.jpg,object,left,1,stimuli/objects/120a.jpg,stimuli/scenes/075a.jpg,stimuli/scenes/075b.jpg,stimuli/objects/120b.jpg,stimuli/objects/120a.jpg,dist1,dist2,lure,target,0,1,1,1,0,7,7,55,,,,,,,,,,,,,673.5862038191408,674.6152210272849,674.6152210272849,674.6152210272849,674.6152210272849,674.6152210272849,674.6152210272849,left,0,1.1057288199663162,678.6062009073794,678.6062009073794,678.6062009073794,678.6062009073794,None,,,,,,,,,,ST01_120922,2022-12-09_12h55.25.237,Hippopolis_Updating,2022.2.2,59.98227739942304,
Hippopolis,stimuli/subj_files/ST01_120922_cityA.csv,./stimuli/seattle.jpg,./stimuli/street_plate1.png,./stimuli/videos/hippopolis_part,./stimuli/videos/hippo-satellite.mp4,TOJÁS UTCA,stimuli/objects/107a.jpg,object,left,2,stimuli/scenes/101a.jpg,stimuli/scenes/009a.jpg,stimuli/scenes/009b.jpg,stimuli/scenes/101a.jpg,stimuli/scenes/101b.jpg,dist1,dist2,target,lure,0,1,1,1,0,8,8,63,,,,,,,,,,,,,680.5877980384976,681.6146257612854,681.6146257612854,681.6146257612854,681.6146257612854,681.6146257612854,681.6146257612854,left,0,2.7141425367444754,685.6061794497073,685.6061794497073,685.6061794497073,685.6061794497073,None,,,,,,,,,,ST01_120922,2022-12-09_12h55.25.237,Hippopolis_Updating,2022.2.2,59.98227739942304,
Hippopolis,stimuli/subj_files/ST01_120922_cityA.csv,./stimuli/seattle.jpg,./stimuli/street_plate1.png,./stimuli/videos/hippopolis_part,./stimuli/videos/hippo-satellite.mp4,SAJTÓ UTCA,stimuli/objects/106a.jpg,object,left,2,stimuli/scenes/087a.jpg,stimuli/objects/054b.jpg,stimuli/scenes/087a.jpg,stimuli/objects/054a.jpg,stimuli/scenes/087b.jpg,dist2,target,dist1,lure,0,1,1,1,0,9,9,34,,,,,,,,,,,,,687.5955302789807,688.6262029726058,688.6262029726058,688.6262029726058,688.6262029726058,688.6262029726058,688.6262029726058,left,0,1.6864810064435005,692.6229964978993,692.6229964978993,692.6229964978993,692.6229964978993,None,,,,,,,,,,ST01_120922,2022-12-09_12h55.25.237,Hippopolis_Updating,2022.2.2,59.98227739942304,
Hippopolis,stimuli/subj_files/ST01_120922_cityA.csv,./stimuli/seattle.jpg,./stimuli/street_plate1.png,./stimuli/videos/hippopolis_part,./stimuli/videos/hippo-satellite.mp4,SIVATAG UTCA,stimuli/scenes/084a.jpg,scene,right,2,stimuli/objects/102a.jpg,stimuli/objects/102b.jpg,stimuli/objects/102a.jpg,stimuli/objects/059a.jpg,stimuli/objects/059b.jpg,lure,target,dist1,dist2,0,1,1,1,0,10,10,19,,,,,,,,,,,,,694.6041392460465,695.63099620305,695.63099620305,695.63099620305,695.63099620305,695.63099620305,695.63099620305,right,0,1.3536998126655817,699.6249558385462,699.6249558385462,699.6249558385462,699.6249558385462,None,,,,,,,,,,ST01_120922,2022-12-09_12h55.25.237,Hippopolis_Updating,2022.2.2,59.98227739942304,
Hippopolis,stimuli/subj_files/ST01_120922_cityA.csv,./stimuli/seattle.jpg,./stimuli/street_plate1.png,./stimuli/videos/hippopolis_part,./stimuli/videos/hippo-satellite.mp4,EGÉR UTCA,stimuli/objects/029a.jpg,object,left,2,stimuli/scenes/017a.jpg,stimuli/scenes/016b.jpg,stimuli/scenes/017b.jpg,stimuli/scenes/016a.jpg,stimuli/scenes/017a.jpg,dist2,lure,dist1,target,0,1,1,1,0,11,11,54,,,,,,,,,,,,,701.6190927457064,702.6464749928564,702.6464749928564,702.6464749928564,702.6464749928564,702.6464749928564,702.6464749928564,left,0,1.2015738356858492,706.6501815654337,706.6501815654337,706.6501815654337,706.6501815654337,None,,,,,,,,,,ST01_120922,2022-12-09_12h55.25.237,Hippopolis_Updating,2022.2.2,59.98227739942304,
Hippopolis,stimuli/subj_files/ST01_120922_cityA.csv,./stimuli/seattle.jpg,./stimuli/street_plate1.png,./stimuli/videos/hippopolis_part,./stimuli/videos/hippo-satellite.mp4,MOCSÁR UTCA,stimuli/objects/101a.jpg,object,left,0,stimuli/objects/101a.jpg,stimuli/scenes/090b.jpg,stimuli/objects/101b.jpg,stimuli/scenes/090a.jpg,stimuli/objects/101a.jpg,dist2,lure,dist1,target,0,1,1,1,0,12,12,17,,,,,,,,,,,,,708.6264629755169,709.6450331658125,709.6450331658125,709.6450331658125,709.6450331658125,709.6450331658125,709.6450331658125,left,0,3.738925702869892,713.654791302979,713.654791302979,713.654791302979,713.654791302979,None,,,,,,,,,,ST01_120922,2022-12-09_12h55.25.237,Hippopolis_Updating,2022.2.2,59.98227739942304,
Hippopolis,stimuli/subj_files/ST01_120922_cityA.csv,./stimuli/seattle.jpg,./stimuli/street_plate1.png,./stimuli/videos/hippopolis_part,./stimuli/videos/hippo-satellite.mp4,PADLÓ UTCA,stimuli/objects/089a.jpg,object,left,0,stimuli/objects/089a.jpg,stimuli/scenes/091b.jpg,stimuli/objects/089b.jpg,stimuli/scenes/091a.jpg,stimuli/objects/089a.jpg,dist2,lure,dist1,target,0,1,1,1,0,13,13,66,,,,,,,,,,,,,715.6364677399397,716.6591904889792,716.6591904889792,716.6591904889792,716.6591904889792,716.6591904889792,716.6591904889792,left,0,2.980534128844738,720.6610801629722,720.6610801629722,720.6610801629722,720.6610801629722,None,,,,,,,,,,ST01_120922,2022-12-09_12h55.25.237,Hippopolis_Updating,2022.2.2,59.98227739942304,
Hippopolis,stimuli/subj_files/ST01_120922_cityA.csv,./stimuli/seattle.jpg,./stimuli/street_plate1.png,./stimuli/videos/hippopolis_part,./stimuli/videos/hippo-satellite.mp4,PAPUCS UTCA,stimuli/objects/097a.jpg,object,left,0,stimuli/objects/097a.jpg,stimuli/objects/097a.jpg,stimuli/objects/066a.jpg,stimuli/objects/097b.jpg,stimuli/objects/066b.jpg,target,dist1,lure,dist2,0,1,1,1,0,14,14,43,,,,,,,,,,,,,722.6521797813475,723.6835130546242,723.6835130546242,723.6835130546242,723.6835130546242,723.6835130546242,723.6835130546242,left,0,1.1568641792982817,727.673485275358,727.673485275358,727.673485275358,727.673485275358,None,,,,,,,,,,ST01_120922,2022-12-09_12h55.25.237,Hippopolis_Updating,2022.2.2,59.98227739942304,
Hippopolis,stimuli/subj_files/ST01_120922_cityA.csv,./stimuli/seattle.jpg,./stimuli/street_plate1.png,./stimuli/videos/hippopolis_part,./stimuli/videos/hippo-satellite.mp4,FOLYÓ UTCA,stimuli/objects/112a.jpg,object,left,0,stimuli/objects/112a.jpg,stimuli/scenes/057a.jpg,stimuli/objects/112b.jpg,stimuli/objects/112a.jpg,stimuli/scenes/057b.jpg,dist1,lure,target,dist2,0,1,1,1,0,15,15,77,,,,,,,,,,,,,729.6633840985596,730.6952650528401,730.6952650528401,730.6952650528401,730.6952650528401,730.6952650528401,730.6952650528401,left,0,1.5363510679453611,734.6879389863461,734.6879389863461,734.6879389863461,734.6879389863461,None,,,,,,,,,,ST01_120922,2022-12-09_12h55.25.237,Hippopolis_Updating,2022.2.2,59.98227739942304,
Hippopolis,stimuli/subj_files/ST01_120922_cityA.csv,./stimuli/seattle.jpg,./stimuli/street_plate1.png,./stimuli/videos/hippopolis_part,./stimuli/videos/hippo-satellite.mp4,SÜTEMÉNY UTCA,stimuli/objects/117a.jpg,object,left,1,stimuli/objects/008a.jpg,stimuli/objects/008a.jpg,stimuli/objects/115a.jpg,stimuli/objects/115b.jpg,stimuli/objects/008b.jpg,target,dist1,dist2,lure,0,1,1,1,0,16,16,14,,,,,,,,,,,,,736.6697743460536,737.6982311215252,737.6982311215252,737.6982311215252,737.6982311215252,737.6982311215252,737.6982311215252,right,0,2.101878250017762,741.6977792289108,741.6977792289108,741.6977792289108,741.6977792289108,None,,,,,,,,,,ST01_120922,2022-12-09_12h55.25.237,Hippopolis_Updating,2022.2.2,59.98227739942304,
Hippopolis,stimuli/subj_files/ST01_120922_cityA.csv,./stimuli/seattle.jpg,./stimuli/street_plate1.png,./stimuli/videos/hippopolis_part,./stimuli/videos/hippo-satellite.mp4,KANÁL UTCA,stimuli/objects/006a.jpg,object,left,1,stimuli/objects/114a.jpg,stimuli/objects/114a.jpg,stimuli/objects/094b.jpg,stimuli/objects/094a.jpg,stimuli/objects/114b.jpg,target,dist2,dist1,lure,0,1,1,1,0,17,17,32,,,,,,,,,,,,,743.6705982033163,744.6796214319766,744.6796214319766,744.6796214319766,744.6796214319766,744.6796214319766,744.6796214319766,left,0,0.8799767419695854,748.7014515921474,748.7014515921474,748.7014515921474,748.7014515921474,None,,,,,,,,,,ST01_120922,2022-12-09_12h55.25.237,Hippopolis_Updating,2022.2.2,59.98227739942304,
Hippopolis,stimuli/subj_files/ST01_120922_cityA.csv,./stimuli/seattle.jpg,./stimuli/street_plate1.png,./stimuli/videos/hippopolis_part,./stimuli/videos/hippo-satellite.mp4,FOGAS UTCA,stimuli/scenes/115a.jpg,scene,right,1,stimuli/scenes/018a.jpg,stimuli/scenes/018a.jpg,stimuli/objects/110a.jpg,stimuli/objects/110b.jpg,stimuli/scenes/018b.jpg,target,dist1,dist2,lure,0,1,1,1,0,18,18,5,,,,,,,,,,,,,750.6789894662797,751.7093654610217,751.7093654610217,751.7093654610217,751.7093654610217,751.7093654610217,751.7093654610217,right,0,2.5225299429148436,755.709920918569,755.709920918569,755.709920918569,755.709920918569,None,,,,,,,,,,ST01_120922,2022-12-09_12h55.25.237,Hippopolis_Updating,2022.2.2,59.98227739942304,
Hippopolis,stimuli/subj_files/ST01_120922_cityA.csv,./stimuli/seattle.jpg,./stimuli/street_plate1.png,./stimuli/videos/hippopolis_part,./stimuli/videos/hippo-satellite.mp4,ÁLLOMÁS UTCA,stimuli/scenes/053a.jpg,scene,right,0,stimuli/scenes/053a.jpg,stimuli/objects/091a.jpg,stimuli/scenes/053b.jpg,stimuli/scenes/053a.jpg,stimuli/objects/091b.jpg,dist1,lure,target,dist2,0,1,1,1,0,19,19,7,,,,,,,,,,,,,757.6850739959627,758.7148189581931,758.7148189581931,758.7148189581931,758.7148189581931,758.7148189581931,758.7148189581931,left,0,1.5330814570188522,762.7163484878838,762.7163484878838,762.7163484878838,762.7163484878838,None,,,,,,,,,,ST01_120922,2022-12-09_12h55.25.237,Hippopolis_Updating,2022.2.2,59.98227739942304,
Hippopolis,stimuli/subj_files/ST01_120922_cityA.csv,./stimuli/seattle.jpg,./stimuli/street_plate1.png,./stimuli/videos/hippopolis_part,./stimuli/videos/hippo-satellite.mp4,KOKTÉL UTCA,stimuli/scenes/010a.jpg,scene,right,0,stimuli/scenes/010a.jpg,stimuli/scenes/010b.jpg,stimuli/objects/009b.jpg,stimuli/scenes/010a.jpg,stimuli/objects/009a.jpg,lure,dist2,target,dist1,0,1,1,1,0,20,20,22,,,,,,,,,,,,,764.6941927019507,765.7082635648549,765.7082635648549,765.7082635648549,765.7082635648549,765.7082635648549,765.7082635648549,left,0,1.2749520614743233,769.7187363933772,769.7187363933772,769.7187363933772,769.7187363933772,None,765.7082635648549,,,,,,,,,ST01_120922,2022-12-09_12h55.25.237,Hippopolis_Updating,2022.2.2,59.98227739942304,
Hippopolis,stimuli/subj_files/ST01_120922_cityA.csv,./stimuli/seattle.jpg,./stimuli/street_plate1.png,./stimuli/videos/hippopolis_part,./stimuli/videos/hippo-satellite.mp4,RÓZSA UTCA,stimuli/objects/028a.jpg,object,left,0,stimuli/objects/028a.jpg,stimuli/scenes/044a.jpg,stimuli/objects/028b.jpg,stimuli/scenes/044b.jpg,stimuli/objects/028a.jpg,dist1,lure,dist2,target,0,1,1,1,0,21,21,78,,,,,,,,,,,,,771.7037107422948,772.7167381774634,772.7167381774634,772.7167381774634,772.7167381774634,772.7167381774634,772.7167381774634,left,0,1.2265289891511202,776.7330566830933,776.7330566830933,776.7330566830933,776.7330566830933,None,,,,,,,,,,ST01_120922,2022-12-09_12h55.25.237,Hippopolis_Updating,2022.2.2,59.98227739942304,
Hippopolis,stimuli/subj_files/ST01_120922_cityA.csv,./stimuli/seattle.jpg,./stimuli/street_plate1.png,./stimuli/videos/hippopolis_part,./stimuli/videos/hippo-satellite.mp4,BONBON UTCA,stimuli/scenes/071a.jpg,scene,right,2,stimuli/objects/078a.jpg,stimuli/objects/111b.jpg,stimuli/objects/078a.jpg,stimuli/objects/078b.jpg,stimuli/objects/111a.jpg,dist2,target,lure,dist1,0,1,1,1,0,22,22,52,,,,,,,,,,,,,778.7103482410312,779.7246467601508,779.7246467601508,779.7246467601508,779.7246467601508,779.7246467601508,779.7246467601508,right,0,1.3230635076761246,783.7315451931208,783.7315451931208,783.7315451931208,783.7315451931208,None,779.7246467601508,,,,,,,,,ST01_120922,2022-12-09_12h55.25.237,Hippopolis_Updating,2022.2.2,59.98227739942304,
Hippopolis,stimuli/subj_files/ST01_120922_cityA.csv,./stimuli/seattle.jpg,./stimuli/street_plate1.png,./stimuli/videos/hippopolis_part,./stimuli/videos/hippo-satellite.mp4,FÜGE UTCA,stimuli/scenes/076a.jpg,scene,right,2,stimuli/objects/059a.jpg,stimuli/objects/059b.jpg,stimuli/scenes/101a.jpg,stimuli/scenes/101b.jpg,stimuli/objects/059a.jpg,lure,dist1,dist2,target,0,1,1,1,0,23,23,33,,,,,,,,,,,,,785.7181628979743,786.7439344432205,786.7439344432205,786.7439344432205,786.7439344432205,786.7439344432205,786.7439344432205,right,0,1.631659286096692,790.7365667019039,790.7365667019039,790.7365667019039,790.7365667019039,None,,,,,,,,,,ST01_120922,2022-12-09_12h55.25.237,Hippopolis_Updating,2022.2.2,59.98227739942304,
Hippopolis,stimuli/subj_files/ST01_120922_cityA.csv,./stimuli/seattle.jpg,./stimuli/street_plate1.png,./stimuli/videos/hippopolis_part,./stimuli/videos/hippo-satellite.mp4,TIGRIS UTCA,stimuli/scenes/006a.jpg,scene,right,0,stimuli/scenes/006a.jpg,stimuli/scenes/110a.jpg,stimuli/scenes/006a.jpg,stimuli/scenes/110b.jpg,stimuli/scenes/006b.jpg,dist1,target,dist2,lure,0,1,1,1,0,24,24,71,,,,,,,,,,,,,792.7200954928994,793.7442177701741,793.7442177701741,793.7442177701741,793.7442177701741,793.7442177701741,793.7442177701741,left,0,1.2228295672684908,797.7583900205791,797.7583900205791,797.7583900205791,797.7583900205791,None,,,,,,,,,,ST01_120922,2022-12-09_12h55.25.237,Hippopolis_Updating,2022.2.2,59.98227739942304,
Hippopolis,stimuli/subj_files/ST01_120922_cityA.csv,./stimuli/seattle.jpg,./stimuli/street_plate1.png,./stimuli/videos/hippopolis_part,./stimuli/videos/hippo-satellite.mp4,OLDAL UTCA,stimuli/objects/056a.jpg,object,left,1,stimuli/objects/055a.jpg,stimuli/scenes/078a.jpg,stimuli/scenes/078b.jpg,stimuli/objects/055b.jpg,stimuli/objects/055a.jpg,dist1,dist2,lure,target,0,1,1,1,0,25,25,16,,,,,,,,,,,,,799.7343747280538,800.7433329559863,800.7433329559863,800.7433329559863,800.7433329559863,800.7433329559863,800.7433329559863,left,0,2.1277107503265142,804.7530211172998,804.7530211172998,804.7530211172998,804.7530211172998,None,,,,,,,,,,ST01_120922,2022-12-09_12h55.25.237,Hippopolis_Updating,2022.2.2,59.98227739942304,
Hippopolis,stimuli/subj_files/ST01_120922_cityA.csv,./stimuli/seattle.jpg,./stimuli/street_plate1.png,./stimuli/videos/hippopolis_part,./stimuli/videos/hippo-satellite.mp4,HAJÓ UTCA,stimuli/scenes/110a.jpg,scene,right,0,stimuli/scenes/110a.jpg,stimuli/scenes/110a.jpg,stimuli/scenes/053a.jpg,stimuli/scenes/110b.jpg,stimuli/scenes/053b.jpg,target,dist1,lure,dist2,0,1,1,1,0,26,26,2,,,,,,,,,,,,,806.7355406917632,807.7578221224248,807.7578221224248,807.7578221224248,807.7578221224248,807.7578221224248,807.7578221224248,None,0,,811.7619594410062,811.7619594410062,811.7619594410062,811.7619594410062,None,,,,,,,,,,ST01_120922,2022-12-09_12h55.25.237,Hippopolis_Updating,2022.2.2,59.98227739942304,
Hippopolis,stimuli/subj_files/ST01_120922_cityA.csv,./stimuli/seattle.jpg,./stimuli/street_plate1.png,./stimuli/videos/hippopolis_part,./stimuli/videos/hippo-satellite.mp4,SUGÁR UTCA,stimuli/objects/034a.jpg,object,left,1,stimuli/objects/063a.jpg,stimuli/objects/063b.jpg,stimuli/objects/063a.jpg,stimuli/scenes/038a.jpg,stimuli/scenes/038b.jpg,lure,target,dist1,dist2,0,1,1,1,0,27,27,8,,,,,,,,,,,,,813.738295275718,814.7696241922677,814.7696241922677,814.7696241922677,814.7696241922677,814.7696241922677,814.7696241922677,left,0,1.8137099891901016,818.7652405574918,818.7652405574918,818.7652405574918,818.7652405574918,None,,,,,,,,,,ST01_120922,2022-12-09_12h55.25.237,Hippopolis_Updating,2022.2.2,59.98227739942304,
Hippopolis,stimuli/subj_files/ST01_120922_cityA.csv,./stimuli/seattle.jpg,./stimuli/street_plate1.png,./stimuli/videos/hippopolis_part,./stimuli/videos/hippo-satellite.mp4,KULLANCS UTCA,stimuli/scenes/074a.jpg,scene,right,1,stimuli/scenes/045a.jpg,stimuli/scenes/098b.jpg,stimuli/scenes/045b.jpg,stimuli/scenes/045a.jpg,stimuli/scenes/098a.jpg,dist2,lure,target,dist1,0,1,1,1,0,28,28,50,,,,,,,,,,,,,820.7460032571107,821.7784698363394,821.7784698363394,821.7784698363394,821.7784698363394,821.7784698363394,821.7784698363394,left,0,1.4440403282642365,825.7662724778056,825.7662724778056,825.7662724778056,825.7662724778056,None,,,,,,,,,,ST01_120922,2022-12-09_12h55.25.237,Hippopolis_Updating,2022.2.2,59.98227739942304,
Hippopolis,stimuli/subj_files/ST01_120922_cityA.csv,./stimuli/seattle.jpg,./stimuli/street_plate1.png,./stimuli/videos/hippopolis_part,./stimuli/videos/hippo-satellite.mp4,ÁLOM UTCA,stimuli/scenes/029a.jpg,scene,right,1,stimuli/scenes/118a.jpg,stimuli/scenes/118b.jpg,stimuli/objects/002a.jpg,stimuli/objects/002b.jpg,stimuli/scenes/118a.jpg,lure,dist1,dist2,target,0,1,1,1,0,29,29,3,,,,,,,,,,,,,827.753594301641,828.7647830676287,828.7647830676287,828.7647830676287,828.7647830676287,828.7647830676287,828.7647830676287,right,0,1.5618159603327513,832.785551764071,832.785551764071,832.785551764071,832.785551764071,None,,,,,,,,,,ST01_120922,2022-12-09_12h55.25.237,Hippopolis_Updating,2022.2.2,59.98227739942304,
Hippopolis,stimuli/subj_files/ST01_120922_cityA.csv,./stimuli/seattle.jpg,./stimuli/street_plate1.png,./stimuli/videos/hippopolis_part,./stimuli/videos/hippo-satellite.mp4,SZOMSZÉD UTCA,stimuli/scenes/091a.jpg,scene,right,0,stimuli/scenes/091a.jpg,stimuli/scenes/091a.jpg,stimuli/scenes/091b.jpg,stimuli/objects/089a.jpg,stimuli/objects/089b.jpg,target,lure,dist1,dist2,0,1,1,1,0,30,30,4,,,,,,,,,,,,,834.7675093486905,835.7973420154303,835.7973420154303,835.7973420154303,835.7973420154303,835.7973420154303,835.7973420154303,left,0,2.993519578129053,839.7879850771278,839.7879850771278,839.7879850771278,839.7879850771278,None,,,,,,,,,,ST01_120922,2022-12-09_12h55.25.237,Hippopolis_Updating,2022.2.2,59.98227739942304,
Hippopolis,stimuli/subj_files/ST01_120922_cityA.csv,./stimuli/seattle.jpg,./stimuli/street_plate1.png,./stimuli/videos/hippopolis_part,./stimuli/videos/hippo-satellite.mp4,VITORLA UTCA,stimuli/scenes/039a.jpg,scene,right,1,stimuli/scenes/054a.jpg,stimuli/scenes/054b.jpg,stimuli/scenes/054a.jpg,stimuli/objects/013a.jpg,stimuli/objects/013b.jpg,lure,target,dist1,dist2,0,1,1,1,0,31,31,57,,,,,,,,,,,,,841.7771838251501,842.8038874566555,842.8038874566555,842.8038874566555,842.8038874566555,842.8038874566555,842.8038874566555,left,0,1.8589993622153997,846.8025143630803,846.8025143630803,846.8025143630803,846.8025143630803,None,,,,,,,,,,ST01_120922,2022-12-09_12h55.25.237,Hippopolis_Updating,2022.2.2,59.98227739942304,
Hippopolis,stimuli/subj_files/ST01_120922_cityA.csv,./stimuli/seattle.jpg,./stimuli/street_plate1.png,./stimuli/videos/hippopolis_part,./stimuli/videos/hippo-satellite.mp4,SZAPPAN UTCA,stimuli/objects/092a.jpg,object,left,2,stimuli/scenes/061a.jpg,stimuli/scenes/061b.jpg,stimuli/objects/036a.jpg,stimuli/objects/036b.jpg,stimuli/scenes/061a.jpg,lure,dist1,dist2,target,0,1,1,1,0,32,32,42,,,,,,,,,,,,,848.7790794093162,849.800899617374,849.800899617374,849.800899617374,849.800899617374,849.800899617374,849.800899617374,left,0,1.2457473166286945,853.803408505395,853.803408505395,853.803408505395,853.803408505395,None,,,,,,,,,,ST01_120922,2022-12-09_12h55.25.237,Hippopolis_Updating,2022.2.2,59.98227739942304,
Hippopolis,stimuli/subj_files/ST01_120922_cityA.csv,./stimuli/seattle.jpg,./stimuli/street_plate1.png,./stimuli/videos/hippopolis_part,./stimuli/videos/hippo-satellite.mp4,LAKAT UTCA,stimuli/scenes/068a.jpg,scene,right,1,stimuli/scenes/020a.jpg,stimuli/scenes/118a.jpg,stimuli/scenes/020a.jpg,stimuli/scenes/118b.jpg,stimuli/scenes/020b.jpg,dist1,target,dist2,lure,0,1,1,1,0,33,33,40,,,,,,,,,,,,,855.7830951232463,856.8091188948601,856.8091188948601,856.8091188948601,856.8091188948601,856.8091188948601,856.8091188948601,left,0,1.4697111062705517,860.8033820707351,860.8033820707351,860.8033820707351,860.8033820707351,None,,,,,,,,,,ST01_120922,2022-12-09_12h55.25.237,Hippopolis_Updating,2022.2.2,59.98227739942304,
Hippopolis,stimuli/subj_files/ST01_120922_cityA.csv,./stimuli/seattle.jpg,./stimuli/street_plate1.png,./stimuli/videos/hippopolis_part,./stimuli/videos/hippo-satellite.mp4,REPÜLŐ UTCA,stimuli/scenes/069a.jpg,scene,right,2,stimuli/objects/103a.jpg,stimuli/scenes/052b.jpg,stimuli/objects/103b.jpg,stimuli/scenes/052a.jpg,stimuli/objects/103a.jpg,dist2,lure,dist1,target,0,1,1,1,0,34,34,75,,,,,,,,,,,,,862.7861902602017,863.8030953221023,863.8030953221023,863.8030953221023,863.8030953221023,863.8030953221023,863.8030953221023,right,0,1.2751228045672178,867.8146952390671,867.8146952390671,867.8146952390671,867.8146952390671,None,,,,,,,,,,ST01_120922,2022-12-09_12h55.25.237,Hippopolis_Updating,2022.2.2,59.98227739942304,
Hippopolis,stimuli/subj_files/ST01_120922_cityA.csv,./stimuli/seattle.jpg,./stimuli/street_plate1.png,./stimuli/videos/hippopolis_part,./stimuli/videos/hippo-satellite.mp4,FÉSZEK UTCA,stimuli/objects/046a.jpg,object,left,2,stimuli/scenes/056a.jpg,stimuli/scenes/056b.jpg,stimuli/scenes/012a.jpg,stimuli/scenes/056a.jpg,stimuli/scenes/012b.jpg,lure,dist1,target,dist2,0,1,1,1,0,35,35,62,,,,,,,,,,,,,869.8018410336226,870.8371374607086,870.8371374607086,870.8371374607086,870.8371374607086,870.8371374607086,870.8371374607086,left,0,3.441391484811902,874.8335966523737,874.8335966523737,874.8335966523737,874.8335966523737,None,,,,,,,,,,ST01_120922,2022-12-09_12h55.25.237,Hippopolis_Updating,2022.2.2,59.98227739942304,
Hippopolis,stimuli/subj_files/ST01_120922_cityA.csv,./stimuli/seattle.jpg,./stimuli/street_plate1.png,./stimuli/videos/hippopolis_part,./stimuli/videos/hippo-satellite.mp4,LÉPCSŐ UTCA,stimuli/objects/072a.jpg,object,left,2,stimuli/scenes/016a.jpg,stimuli/scenes/016b.jpg,stimuli/objects/050b.jpg,stimuli/scenes/016a.jpg,stimuli/objects/050a.jpg,lure,dist2,target,dist1,0,1,1,1,0,36,36,74,,,,,,,,,,,,,876.8171842228621,877.8408291060477,877.8408291060477,877.8408291060477,877.8408291060477,877.8408291060477,877.8408291060477,right,0,2.100823003798723,881.8382091876119,881.8382091876119,881.8382091876119,881.8382091876119,None,,,,,,,,,,ST01_120922,2022-12-09_12h55.25.237,Hippopolis_Updating,2022.2.2,59.98227739942304,
Hippopolis,stimuli/subj_files/ST01_120922_cityA.csv,./stimuli/seattle.jpg,./stimuli/street_plate1.png,./stimuli/videos/hippopolis_part,./stimuli/videos/hippo-satellite.mp4,ÜVEG UTCA,stimuli/scenes/066a.jpg,scene,right,2,stimuli/objects/025a.jpg,stimuli/objects/025b.jpg,stimuli/objects/065a.jpg,stimuli/objects/025a.jpg,stimuli/objects/065b.jpg,lure,dist1,target,dist2,0,1,1,1,0,37,37,51,,,,,,,,,,,,,883.8198647871614,884.8441500328481,884.8441500328481,884.8441500328481,884.8441500328481,884.8441500328481,884.8441500328481,left,0,0.9382089581340551,888.83845208399,888.83845208399,888.83845208399,888.83845208399,None,884.8441500328481,,,,,,,,,ST01_120922,2022-12-09_12h55.25.237,Hippopolis_Updating,2022.2.2,59.98227739942304,
Hippopolis,stimuli/subj_files/ST01_120922_cityA.csv,./stimuli/seattle.jpg,./stimuli/street_plate1.png,./stimuli/videos/hippopolis_part,./stimuli/videos/hippo-satellite.mp4,MUNKA UTCA,stimuli/scenes/057a.jpg,scene,right,0,stimuli/scenes/057a.jpg,stimuli/scenes/013a.jpg,stimuli/scenes/057b.jpg,stimuli/scenes/057a.jpg,stimuli/scenes/013b.jpg,dist1,lure,target,dist2,0,1,1,1,0,38,38,79,,,,,,,,,,,,,890.8248505312949,891.843595508486,891.843595508486,891.843595508486,891.843595508486,891.843595508486,891.843595508486,left,0,1.6502954121679068,895.8608666267246,895.8608666267246,895.8608666267246,895.8608666267246,None,,,,,,,,,,ST01_120922,2022-12-09_12h55.25.237,Hippopolis_Updating,2022.2.2,59.98227739942304,
Hippopolis,stimuli/subj_files/ST01_120922_cityA.csv,./stimuli/seattle.jpg,./stimuli/street_plate1.png,./stimuli/videos/hippopolis_part,./stimuli/videos/hippo-satellite.mp4,TOLLTARTÓ UTCA,stimuli/scenes/106a.jpg,scene,right,2,stimuli/objects/050a.jpg,stimuli/objects/025b.jpg,stimuli/objects/050a.jpg,stimuli/objects/050b.jpg,stimuli/objects/025a.jpg,dist2,target,lure,dist1,0,1,1,1,0,39,39,64,,,,,,,,,,,,,897.8417689669877,898.8708511758596,898.8708511758596,898.8708511758596,898.8708511758596,898.8708511758596,898.8708511758596,right,0,1.5673773754388094,902.870463039726,902.870463039726,902.870463039726,902.870463039726,None,,,,,,,,,,ST01_120922,2022-12-09_12h55.25.237,Hippopolis_Updating,2022.2.2,59.98227739942304,
Hippopolis,stimuli/subj_files/ST01_120922_cityA.csv,./stimuli/seattle.jpg,./stimuli/street_plate1.png,./stimuli/videos/hippopolis_part,./stimuli/videos/hippo-satellite.mp4,FÉSŰ UTCA,stimuli/scenes/114a.jpg,scene,right,0,stimuli/scenes/114a.jpg,stimuli/scenes/077a.jpg,stimuli/scenes/077b.jpg,stimuli/scenes/114b.jpg,stimuli/scenes/114a.jpg,dist1,dist2,lure,target,0,1,1,1,0,40,40,12,,,,,,,,,,,,,904.8578878063709,905.8723726179451,905.8723726179451,905.8723726179451,905.8723726179451,905.8723726179451,905.8723726179451,left,0,1.5739613808691502,909.8784493729472,909.8784493729472,909.8784493729472,909.8784493729472,None,905.8723726179451,,,,,,,,,ST01_120922,2022-12-09_12h55.25.237,Hippopolis_Updating,2022.2.2,59.98227739942304,
Hippopolis,stimuli/subj_files/ST01_120922_cityA.csv,./stimuli/seattle.jpg,./stimuli/street_plate1.png,./stimuli/videos/hippopolis_part,./stimuli/videos/hippo-satellite.mp4,KORONA UTCA,stimuli/scenes/013a.jpg,scene,right,0,stimuli/scenes/013a.jpg,stimuli/scenes/013b.jpg,stimuli/scenes/010b.jpg,stimuli/scenes/010a.jpg,stimuli/scenes/013a.jpg,lure,dist2,dist1,target,0,1,1,1,0,41,41,31,,,,,,,,,,,,,911.8609453104436,912.8908162303269,912.8908162303269,912.8908162303269,912.8908162303269,912.8908162303269,912.8908162303269,right,0,2.026953076943755,916.8891691416502,916.8891691416502,916.8891691416502,916.8891691416502,None,,,,,,,,,,ST01_120922,2022-12-09_12h55.25.237,Hippopolis_Updating,2022.2.2,59.98227739942304,
Hippopolis,stimuli/subj_files/ST01_120922_cityA.csv,./stimuli/seattle.jpg,./stimuli/street_plate1.png,./stimuli/videos/hippopolis_part,./stimuli/videos/hippo-satellite.mp4,KÖMÉNYMAG UTCA,stimuli/scenes/070a.jpg,scene,right,1,stimuli/scenes/043a.jpg,stimuli/scenes/043a.jpg,stimuli/objects/068a.jpg,stimuli/scenes/043b.jpg,stimuli/objects/068b.jpg,target,dist1,lure,dist2,0,1,1,1,0,42,42,18,,,,,,,,,,,,,918.8757663201541,919.893358707428,919.893358707428,919.893358707428,919.893358707428,919.893358707428,919.893358707428,right,0,0.8959435001015663,923.8935061246157,923.8935061246157,923.8935061246157,923.8935061246157,None,919.893358707428,,,,,,,,,ST01_120922,2022-12-09_12h55.25.237,Hippopolis_Updating,2022.2.2,59.98227739942304,
Hippopolis,stimuli/subj_files/ST01_120922_cityA.csv,./stimuli/seattle.jpg,./stimuli/street_plate1.png,./stimuli/videos/hippopolis_part,./stimuli/videos/hippo-satellite.mp4,ZÁSZLÓ UTCA,stimuli/objects/005a.jpg,object,left,1,stimuli/objects/013a.jpg,stimuli/objects/071b.jpg,stimuli/objects/013a.jpg,stimuli/objects/013b.jpg,stimuli/objects/071a.jpg,dist2,target,lure,dist1,0,1,1,1,0,43,43,70,,,,,,,,,,,,,925.8911039121449,926.919690374285,926.919690374285,926.919690374285,926.919690374285,926.919690374285,926.919690374285,left,0,1.1335996557027102,930.9192748703063,930.9192748703063,930.9192748703063,930.9192748703063,None,,,,,,,,,,ST01_120922,2022-12-09_12h55.25.237,Hippopolis_Updating,2022.2.2,59.98227739942304,
Hippopolis,stimuli/subj_files/ST01_120922_cityA.csv,./stimuli/seattle.jpg,./stimuli/street_plate1.png,./stimuli/videos/hippopolis_part,./stimuli/videos/hippo-satellite.mp4,OROSZLÁN UTCA,stimuli/scenes/014a.jpg,scene,right,1,stimuli/scenes/078a.jpg,stimuli/scenes/100a.jpg,stimuli/scenes/100b.jpg,stimuli/scenes/078a.jpg,stimuli/scenes/078b.jpg,dist1,dist2,target,lure,0,1,1,1,0,44,44,48,,,,,,,,,,,,,932.902658732608,933.9321300089359,933.9321300089359,933.9321300089359,933.9321300089359,933.9321300089359,933.9321300089359,left,0,2.6333779096603394,937.9288507569581,937.9288507569581,937.9288507569581,937.9288507569581,space,,939.9152697306126,939.9152697306126,6.586276302114129,,,,,,ST01_120922,2022-12-09_12h55.25.237,Hippopolis_Updating,2022.2.2,59.98227739942304,
Hippopolis,stimuli/subj_files/ST01_120922_cityA.csv,./stimuli/seattle.jpg,./stimuli/street_plate1.png,./stimuli/videos/hippopolis_part,./stimuli/videos/hippo-satellite.mp4,LÁNDZSA UTCA,stimuli/scenes/055a.jpg,scene,right,2,stimuli/objects/070a.jpg,stimuli/objects/070b.jpg,stimuli/scenes/061b.jpg,stimuli/objects/070a.jpg,stimuli/scenes/061a.jpg,lure,dist2,target,dist1,0,1,1,1,0,45,45,69,,,,,,,,,,,,,946.5191635917872,947.5337361078709,947.5337361078709,947.5337361078709,947.5337361078709,947.5337361078709,947.5337361078709,None,0,,951.549223292619,951.549223292619,951.549223292619,951.549223292619,None,,,,,,,,,,ST01_120922,2022-12-09_12h55.25.237,Hippopolis_Updating,2022.2.2,59.98227739942304,
Hippopolis,stimuli/subj_files/ST01_120922_cityA.csv,./stimuli/seattle.jpg,./stimuli/street_plate1.png,./stimuli/videos/hippopolis_part,./stimuli/videos/hippo-satellite.mp4,LEMEZ UTCA,stimuli/objects/067a.jpg,object,left,1,stimuli/objects/002a.jpg,stimuli/objects/002a.jpg,stimuli/scenes/089b.jpg,stimuli/scenes/089a.jpg,stimuli/objects/002b.jpg,target,dist2,dist1,lure,0,1,1,1,0,46,46,0,,,,,,,,,,,,,953.5287677813321,954.5567692406476,954.5567692406476,954.5567692406476,954.5567692406476,954.5567692406476,954.5567692406476,left,0,1.672742610797286,958.5682755447924,958.5682755447924,958.5682755447924,958.5682755447924,None,,,,,,,,,,ST01_120922,2022-12-09_12h55.25.237,Hippopolis_Updating,2022.2.2,59.98227739942304,
Hippopolis,stimuli/subj_files/ST01_120922_cityA.csv,./stimuli/seattle.jpg,./stimuli/street_plate1.png,./stimuli/videos/hippopolis_part,./stimuli/videos/hippo-satellite.mp4,DOMINÓ UTCA,stimuli/objects/091a.jpg,object,left,0,stimuli/objects/091a.jpg,stimuli/scenes/119b.jpg,stimuli/objects/091a.jpg,stimuli/scenes/119a.jpg,stimuli/objects/091b.jpg,dist2,target,dist1,lure,0,1,1,1,0,47,47,21,,,,,,,,,,,,,960.5407670289278,961.5503805484623,961.5503805484623,961.5503805484623,961.5503805484623,961.5503805484623,961.5503805484623,right,0,1.6545561999082565,965.5711719468236,965.5711719468236,965.5711719468236,965.5711719468236,None,,,,,,,,,,ST01_120922,2022-12-09_12h55.25.237,Hippopolis_Updating,2022.2.2,59.98227739942304,
Hippopolis,stimuli/subj_files/ST01_120922_cityA.csv,./stimuli/seattle.jpg,./stimuli/street_plate1.png,./stimuli/videos/hippopolis_part,./stimuli/videos/hippo-satellite.mp4,PÉKSÉG UTCA,stimuli/objects/042a.jpg,object,left,2,stimuli/scenes/030a.jpg,stimuli/objects/021b.jpg,stimuli/scenes/030a.jpg,stimuli/scenes/030b.jpg,stimuli/objects/021a.jpg,dist2,target,lure,dist1,0,1,1,1,0,48,48,44,,,,,,,,,,,,,967.5574192442,968.5671419259161,968.5671419259161,968.5671419259161,968.5671419259161,968.5671419259161,968.5671419259161,left,0,1.2621040772646666,972.5781425330788,972.5781425330788,972.5781425330788,972.5781425330788,None,,,,,,,,,,ST01_120922,2022-12-09_12h55.25.237,Hippopolis_Updating,2022.2.2,59.98227739942304,
Hippopolis,stimuli/subj_files/ST01_120922_cityA.csv,./stimuli/seattle.jpg,./stimuli/street_plate1.png,./stimuli/videos/hippopolis_part,./stimuli/videos/hippo-satellite.mp4,KÖNYVTÁR UTCA,stimuli/objects/077a.jpg,object,left,2,stimuli/scenes/052a.jpg,stimuli/scenes/052b.jpg,stimuli/scenes/056a.jpg,stimuli/scenes/052a.jpg,stimuli/scenes/056b.jpg,lure,dist1,target,dist2,0,1,1,1,0,49,49,24,,,,,,,,,,,,,974.5617807991803,975.5908539872617,975.5908539872617,975.5908539872617,975.5908539872617,975.5908539872617,975.5908539872617,left,0,1.214159019291401,979.5733878687024,979.5733878687024,979.5733878687024,979.5733878687024,None,,,,,,,,,,ST01_120922,2022-12-09_12h55.25.237,Hippopolis_Updating,2022.2.2,59.98227739942304,
Hippopolis,stimuli/subj_files/ST01_120922_cityA.csv,./stimuli/seattle.jpg,./stimuli/street_plate1.png,./stimuli/videos/hippopolis_part,./stimuli/videos/hippo-satellite.mp4,VASALÓ UTCA,stimuli/scenes/042a.jpg,scene,right,2,stimuli/objects/065a.jpg,stimuli/scenes/017b.jpg,stimuli/scenes/017a.jpg,stimuli/objects/065a.jpg,stimuli/objects/065b.jpg,dist2,dist1,target,lure,0,1,1,1,0,50,50,72,,,,,,,,,,,,,981.5678152553737,982.581638244912,982.581638244912,982.581638244912,982.581638244912,982.581638244912,982.581638244912,left,0,1.1030351929366589,986.5846727341413,986.5846727341413,986.5846727341413,986.5846727341413,None,,,,,,,,,,ST01_120922,2022-12-09_12h55.25.237,Hippopolis_Updating,2022.2.2,59.98227739942304,
Hippopolis,stimuli/subj_files/ST01_120922_cityA.csv,./stimuli/seattle.jpg,./stimuli/street_plate1.png,./stimuli/videos/hippopolis_part,./stimuli/videos/hippo-satellite.mp4,AKÁC UTCA,stimuli/scenes/119a.jpg,scene,right,0,stimuli/scenes/119a.jpg,stimuli/objects/084a.jpg,stimuli/scenes/119a.jpg,stimuli/objects/084b.jpg,stimuli/scenes/119b.jpg,dist1,target,dist2,lure,0,1,1,1,0,51,51,46,,,,,,,,,,,,,988.5776710473001,989.6030681412667,989.6030681412667,989.6030681412667,989.6030681412667,989.6030681412667,989.6030681412667,left,0,1.1859740652143955,993.6144335586578,993.6144335586578,993.6144335586578,993.6144335586578,None,,,,,,,,,,ST01_120922,2022-12-09_12h55.25.237,Hippopolis_Updating,2022.2.2,59.98227739942304,
Hippopolis,stimuli/subj_files/ST01_120922_cityA.csv,./stimuli/seattle.jpg,./stimuli/street_plate1.png,./stimuli/videos/hippopolis_part,./stimuli/videos/hippo-satellite.mp4,PAPRIKA UTCA,stimuli/scenes/077a.jpg,scene,right,0,stimuli/scenes/077a.jpg,stimuli/scenes/114a.jpg,stimuli/scenes/077b.jpg,stimuli/scenes/114b.jpg,stimuli/scenes/077a.jpg,dist1,lure,dist2,target,0,1,1,1,0,52,52,39,,,,,,,,,,,,,995.5815614275634,996.6064148806036,996.6064148806036,996.6064148806036,996.6064148806036,996.6064148806036,996.6064148806036,left,0,0.9819510728120804,1000.5986820179969,1000.5986820179969,1000.5986820179969,1000.5986820179969,None,,,,,,,,,,ST01_120922,2022-12-09_12h55.25.237,Hippopolis_Updating,2022.2.2,59.98227739942304,
Hippopolis,stimuli/subj_files/ST01_120922_cityA.csv,./stimuli/seattle.jpg,./stimuli/street_plate1.png,./stimuli/videos/hippopolis_part,./stimuli/videos/hippo-satellite.mp4,CSAVAR UTCA,stimuli/scenes/096a.jpg,scene,right,1,stimuli/scenes/089a.jpg,stimuli/scenes/089a.jpg,stimuli/scenes/043a.jpg,stimuli/scenes/043b.jpg,stimuli/scenes/089b.jpg,target,dist1,dist2,lure,0,1,1,1,0,53,53,35,,,,,,,,,,,,,1002.5824502836913,1003.6113567724824,1003.6113567724824,1003.6113567724824,1003.6113567724824,1003.6113567724824,1003.6113567724824,left,0,1.4171783942729235,1007.6169228535146,1007.6169228535146,1007.6169228535146,1007.6169228535146,None,,,,,,,,,,ST01_120922,2022-12-09_12h55.25.237,Hippopolis_Updating,2022.2.2,59.98227739942304,
Hippopolis,stimuli/subj_files/ST01_120922_cityA.csv,./stimuli/seattle.jpg,./stimuli/street_plate1.png,./stimuli/videos/hippopolis_part,./stimuli/videos/hippo-satellite.mp4,SZALVÉTA UTCA,stimuli/objects/012a.jpg,object,left,2,stimuli/scenes/012a.jpg,stimuli/objects/103b.jpg,stimuli/scenes/012b.jpg,stimuli/scenes/012a.jpg,stimuli/objects/103a.jpg,dist2,lure,target,dist1,0,1,1,1,0,54,54,25,,,,,,,,,,,,,1009.5916231051087,1010.6081338133663,1010.6081338133663,1010.6081338133663,1010.6081338133663,1010.6081338133663,1010.6081338133663,right,0,1.3483710289001465,1014.6107717696577,1014.6107717696577,1014.6107717696577,1014.6107717696577,None,1010.6081338133663,,,,,,,,,ST01_120922,2022-12-09_12h55.25.237,Hippopolis_Updating,2022.2.2,59.98227739942304,
