CityName,StimuliFile,CityImage,StreetSign,VideoFile,Cue,Image,Category,Novelty,UpdateImage,TestImage1,TestImage2,TestImage3,TestImage4,TestImage1Type,TestImage2Type,TestImage3Type,TestImage4Type,CityBlock.thisRepN,CityBlock.thisTrialN,CityBlock.thisN,CityBlock.thisIndex,LearningTrials.thisRepN,LearningTrials.thisTrialN,LearningTrials.thisN,LearningTrials.thisIndex,trials.thisRepN,trials.thisTrialN,trials.thisN,trials.thisIndex,learning_instructions_text.started,intro_key.started,intro_key.keys,intro_key.rt,cityname_text.started,city_image.started,fx_cross.started,plate.started,city_text.started,street_text.started,learning_image.started,short_break_key.keys,fx_cross.stopped,short_break_text.started,short_break_key.started,short_break_key.rt,test_text.started,key_resp.started,key_resp.keys,key_resp.rt,plate_test.started,city_text_test.started,street_text_test.started,test_question.started,test_key_resp.started,button_image.started,test_key_resp.keys,verbal_test_key_resp.keys,test_key_resp.rt,plate_verbal.started,street_text_verbal.started,city_text_verbal.started,question_verbal.started,verbal_test_key_resp.started,verbal_test_key_resp.rt,n_remembered,break_text.started,break_key_resp.started,break_key_resp.keys,break_key_resp.rt,end_text.started,participant,date,expName,psychopyVersion,frameRate,
,,,,,,,,,,,,,,,,,,,,,,,,,,,,,,105.33955366909504,105.33955366909504,space,25.866460835561156,,,,,,,,,,,,,,,,,,,,,,,,,,,,,,,,,,,,,,ST01_112822,2022-11-29_09h29.58.226,Hippopolis_Learning,2022.2.2,59.995596359539505,
Camponello,stimuli/subj_files/ST01_112822_cityB.csv,./stimuli/arnedillo.png,./stimuli/street_plate2.png,./stimuli/videos/camponello_part1.mp4,TÁSKA UTCA,stimuli/scenes/100a.jpg,scene,0,stimuli/scenes/100a.jpg,stimuli/objects/038b.jpg,stimuli/scenes/100a.jpg,stimuli/objects/038a.jpg,stimuli/scenes/100b.jpg,dist2,target,dist1,lure,0,0,0,0,0,0,0,56,,,,,,,,,131.29697751626372,131.29697751626372,134.2633210271597,135.283039143309,135.283039143309,135.283039143309,135.283039143309,None,,,,,,,,,,,,,,,,,,,,,,,,,,,,,,ST01_112822,2022-11-29_09h29.58.226,Hippopolis_Learning,2022.2.2,59.995596359539505,
Camponello,stimuli/subj_files/ST01_112822_cityB.csv,./stimuli/arnedillo.png,./stimuli/street_plate2.png,./stimuli/videos/camponello_part1.mp4,LOVAGLÁS UTCA,stimuli/objects/047a.jpg,object,0,stimuli/objects/047a.jpg,stimuli/objects/047a.jpg,stimuli/objects/030b.jpg,stimuli/objects/030a.jpg,stimuli/objects/047b.jpg,target,dist2,dist1,lure,0,0,0,0,0,1,1,14,,,,,,,,,,,138.22329605929554,139.27233492583036,139.27233492583036,139.27233492583036,139.27233492583036,None,,,,,,,,,,,,,,,,,,,,,,,,,,,,,,ST01_112822,2022-11-29_09h29.58.226,Hippopolis_Learning,2022.2.2,59.995596359539505,
Camponello,stimuli/subj_files/ST01_112822_cityB.csv,./stimuli/arnedillo.png,./stimuli/street_plate2.png,./stimuli/videos/camponello_part1.mp4,HORDÓ UTCA,stimuli/objects/065a.jpg,object,2,stimuli/scenes/016a.jpg,stimuli/scenes/016a.jpg,stimuli/objects/015a.jpg,stimuli/objects/015b.jpg,stimuli/scenes/016b.jpg,target,dist1,dist2,lure,0,0,0,0,0,2,2,44,,,,,,,,,,,142.23155110143125,143.2671261895448,143.2671261895448,143.2671261895448,143.2671261895448,None,,,,,,,,,,,,,,,,,,,,,,,,,,,,,,ST01_112822,2022-11-29_09h29.58.226,Hippopolis_Learning,2022.2.2,59.995596359539505,
Camponello,stimuli/subj_files/ST01_112822_cityB.csv,./stimuli/arnedillo.png,./stimuli/street_plate2.png,./stimuli/videos/camponello_part1.mp4,MUNKA UTCA,stimuli/objects/059a.jpg,object,0,stimuli/objects/059a.jpg,stimuli/scenes/115b.jpg,stimuli/scenes/115a.jpg,stimuli/objects/059a.jpg,stimuli/objects/059b.jpg,dist2,dist1,target,lure,0,0,0,0,0,3,3,1,,,,,,,,,,,146.23971470817924,147.26884512230754,147.26884512230754,147.26884512230754,147.26884512230754,None,,,,,,,,,,,,,,,,,,,,,,,,,,,,,,ST01_112822,2022-11-29_09h29.58.226,Hippopolis_Learning,2022.2.2,59.995596359539505,
Camponello,stimuli/subj_files/ST01_112822_cityB.csv,./stimuli/arnedillo.png,./stimuli/street_plate2.png,./stimuli/videos/camponello_part1.mp4,BOHÓC UTCA,stimuli/objects/052a.jpg,object,2,stimuli/scenes/063a.jpg,stimuli/scenes/019a.jpg,stimuli/scenes/019b.jpg,stimuli/scenes/063b.jpg,stimuli/scenes/063a.jpg,dist1,dist2,lure,target,0,0,0,0,0,4,4,76,,,,,,,,,,,150.25721690431237,151.28349663317204,151.28349663317204,151.28349663317204,151.28349663317204,None,,,,,,,,,,,,,,,,,,,,,,,,,,,,,,ST01_112822,2022-11-29_09h29.58.226,Hippopolis_Learning,2022.2.2,59.995596359539505,
Camponello,stimuli/subj_files/ST01_112822_cityB.csv,./stimuli/arnedillo.png,./stimuli/street_plate2.png,./stimuli/videos/camponello_part1.mp4,TULIPÁN UTCA,stimuli/scenes/101a.jpg,scene,0,stimuli/scenes/101a.jpg,stimuli/objects/057b.jpg,stimuli/scenes/101b.jpg,stimuli/objects/057a.jpg,stimuli/scenes/101a.jpg,dist2,lure,dist1,target,0,0,0,0,0,5,5,79,,,,,,,,,,,154.27360849641263,155.30584928393364,155.30584928393364,155.30584928393364,155.30584928393364,None,,,,,,,,,,,,,,,,,,,,,,,,,,,,,,ST01_112822,2022-11-29_09h29.58.226,Hippopolis_Learning,2022.2.2,59.995596359539505,
Camponello,stimuli/subj_files/ST01_112822_cityB.csv,./stimuli/arnedillo.png,./stimuli/street_plate2.png,./stimuli/videos/camponello_part1.mp4,ÁLOM UTCA,stimuli/scenes/017a.jpg,scene,0,stimuli/scenes/017a.jpg,stimuli/scenes/017a.jpg,stimuli/objects/078b.jpg,stimuli/objects/078a.jpg,stimuli/scenes/017b.jpg,target,dist2,dist1,lure,0,0,0,0,0,6,6,3,,,,,,,,,,,158.28552346117795,159.31204981915653,159.31204981915653,159.31204981915653,159.31204981915653,None,,,,,,,,,,,,,,,,,,,,,,,,,,,,,,ST01_112822,2022-11-29_09h29.58.226,Hippopolis_Learning,2022.2.2,59.995596359539505,
Camponello,stimuli/subj_files/ST01_112822_cityB.csv,./stimuli/arnedillo.png,./stimuli/street_plate2.png,./stimuli/videos/camponello_part1.mp4,BAGOLY UTCA,stimuli/objects/019a.jpg,object,0,stimuli/objects/019a.jpg,stimuli/objects/019a.jpg,stimuli/scenes/002a.jpg,stimuli/objects/019b.jpg,stimuli/scenes/002b.jpg,target,dist1,lure,dist2,0,0,0,0,0,7,7,41,,,,,,,,,,,162.29635208286345,163.33178846165538,163.33178846165538,163.33178846165538,163.33178846165538,None,,,,,,,,,,,,,,,,,,,,,,,,,,,,,,ST01_112822,2022-11-29_09h29.58.226,Hippopolis_Learning,2022.2.2,59.995596359539505,
Camponello,stimuli/subj_files/ST01_112822_cityB.csv,./stimuli/arnedillo.png,./stimuli/street_plate2.png,./stimuli/videos/camponello_part1.mp4,KORONA UTCA,stimuli/scenes/080a.jpg,scene,0,stimuli/scenes/080a.jpg,stimuli/scenes/012a.jpg,stimuli/scenes/012b.jpg,stimuli/scenes/080a.jpg,stimuli/scenes/080b.jpg,dist1,dist2,target,lure,0,0,0,0,0,8,8,36,,,,,,,,,,,166.29759237542748,167.3226259034127,167.3226259034127,167.3226259034127,167.3226259034127,None,,,,,,,,,,,,,,,,,,,,,,,,,,,,,,ST01_112822,2022-11-29_09h29.58.226,Hippopolis_Learning,2022.2.2,59.995596359539505,
Camponello,stimuli/subj_files/ST01_112822_cityB.csv,./stimuli/arnedillo.png,./stimuli/street_plate2.png,./stimuli/videos/camponello_part1.mp4,PETÁRDA UTCA,stimuli/scenes/065a.jpg,scene,0,stimuli/scenes/065a.jpg,stimuli/scenes/065a.jpg,stimuli/objects/105a.jpg,stimuli/scenes/065b.jpg,stimuli/objects/105b.jpg,target,dist1,lure,dist2,0,0,0,0,0,9,9,49,,,,,,,,,,,170.3135466929525,171.35887898504734,171.35887898504734,171.35887898504734,171.35887898504734,None,,,,,,,,,,,,,,,,,,,,,,,,,,,,,,ST01_112822,2022-11-29_09h29.58.226,Hippopolis_Learning,2022.2.2,59.995596359539505,
Camponello,stimuli/subj_files/ST01_112822_cityB.csv,./stimuli/arnedillo.png,./stimuli/street_plate2.png,./stimuli/videos/camponello_part1.mp4,PÁRNA UTCA,stimuli/scenes/004a.jpg,scene,0,stimuli/scenes/004a.jpg,stimuli/scenes/100b.jpg,stimuli/scenes/004b.jpg,stimuli/scenes/004a.jpg,stimuli/scenes/100a.jpg,dist2,lure,target,dist1,0,0,0,0,0,10,10,50,,,,,,,,,,,174.3279795665294,175.36501949466765,175.36501949466765,175.36501949466765,175.36501949466765,None,,,,,,,,,,,,,,,,,,,,,,,,,,,,,,ST01_112822,2022-11-29_09h29.58.226,Hippopolis_Learning,2022.2.2,59.995596359539505,
Camponello,stimuli/subj_files/ST01_112822_cityB.csv,./stimuli/arnedillo.png,./stimuli/street_plate2.png,./stimuli/videos/camponello_part1.mp4,KORONG UTCA,stimuli/scenes/011a.jpg,scene,0,stimuli/scenes/011a.jpg,stimuli/objects/060b.jpg,stimuli/scenes/011b.jpg,stimuli/scenes/011a.jpg,stimuli/objects/060a.jpg,dist2,lure,target,dist1,0,0,0,0,0,11,11,53,,,,,,,,,,,178.32903232239187,179.34837380982935,179.34837380982935,179.34837380982935,179.34837380982935,None,,,,,,,,,,,,,,,,,,,,,,,,,,,,,,ST01_112822,2022-11-29_09h29.58.226,Hippopolis_Learning,2022.2.2,59.995596359539505,
Camponello,stimuli/subj_files/ST01_112822_cityB.csv,./stimuli/arnedillo.png,./stimuli/street_plate2.png,./stimuli/videos/camponello_part1.mp4,TÜKÖR UTCA,stimuli/scenes/039a.jpg,scene,0,stimuli/scenes/039a.jpg,stimuli/scenes/039a.jpg,stimuli/scenes/113b.jpg,stimuli/scenes/113a.jpg,stimuli/scenes/039b.jpg,target,dist2,dist1,lure,0,0,0,0,0,12,12,68,,,,,,,,,,,182.33712564222515,183.38959864154458,183.38959864154458,183.38959864154458,183.38959864154458,None,,,,,,,,,,,,,,,,,,,,,,,,,,,,,,ST01_112822,2022-11-29_09h29.58.226,Hippopolis_Learning,2022.2.2,59.995596359539505,
Camponello,stimuli/subj_files/ST01_112822_cityB.csv,./stimuli/arnedillo.png,./stimuli/street_plate2.png,./stimuli/videos/camponello_part1.mp4,KAKAÓ UTCA,stimuli/scenes/029a.jpg,scene,2,stimuli/objects/061a.jpg,stimuli/objects/037b.jpg,stimuli/objects/061a.jpg,stimuli/objects/037a.jpg,stimuli/objects/061b.jpg,dist2,target,dist1,lure,0,0,0,0,0,13,13,8,,,,,,,,,,,186.33800983428955,187.36287448368967,187.36287448368967,187.36287448368967,187.36287448368967,None,,,,,,,,,,,,,,,,,,,,,,,,,,,,,,ST01_112822,2022-11-29_09h29.58.226,Hippopolis_Learning,2022.2.2,59.995596359539505,
Camponello,stimuli/subj_files/ST01_112822_cityB.csv,./stimuli/arnedillo.png,./stimuli/street_plate2.png,./stimuli/videos/camponello_part1.mp4,SIRÁLY UTCA,stimuli/objects/112a.jpg,object,0,stimuli/objects/112a.jpg,stimuli/objects/112b.jpg,stimuli/scenes/078a.jpg,stimuli/objects/112a.jpg,stimuli/scenes/078b.jpg,lure,dist1,target,dist2,0,0,0,0,0,14,14,34,,,,,,,,,,,190.34701595641673,191.38337198272347,191.38337198272347,191.38337198272347,191.38337198272347,None,,,,,,,,,,,,,,,,,,,,,,,,,,,,,,ST01_112822,2022-11-29_09h29.58.226,Hippopolis_Learning,2022.2.2,59.995596359539505,
Camponello,stimuli/subj_files/ST01_112822_cityB.csv,./stimuli/arnedillo.png,./stimuli/street_plate2.png,./stimuli/videos/camponello_part1.mp4,RÁDIÓ UTCA,stimuli/scenes/115a.jpg,scene,0,stimuli/scenes/115a.jpg,stimuli/scenes/037a.jpg,stimuli/scenes/037b.jpg,stimuli/scenes/115a.jpg,stimuli/scenes/115b.jpg,dist1,dist2,target,lure,0,0,0,0,0,15,15,6,,,,,,,,,,,194.3527611773461,195.38044572249055,195.38044572249055,195.38044572249055,195.38044572249055,None,,,,,,,,,,,,,,,,,,,,,,,,,,,,,,ST01_112822,2022-11-29_09h29.58.226,Hippopolis_Learning,2022.2.2,59.995596359539505,
Camponello,stimuli/subj_files/ST01_112822_cityB.csv,./stimuli/arnedillo.png,./stimuli/street_plate2.png,./stimuli/videos/camponello_part1.mp4,KALAPÁCS UTCA,stimuli/objects/095a.jpg,object,2,stimuli/scenes/087a.jpg,stimuli/objects/066b.jpg,stimuli/scenes/087a.jpg,stimuli/scenes/087b.jpg,stimuli/objects/066a.jpg,dist2,target,lure,dist1,0,0,0,0,0,16,16,30,,,,,,,,,,,198.36023030802608,199.40351026691496,199.40351026691496,199.40351026691496,199.40351026691496,None,,,,,,,,,,,,,,,,,,,,,,,,,,,,,,ST01_112822,2022-11-29_09h29.58.226,Hippopolis_Learning,2022.2.2,59.995596359539505,
Camponello,stimuli/subj_files/ST01_112822_cityB.csv,./stimuli/arnedillo.png,./stimuli/street_plate2.png,./stimuli/videos/camponello_part1.mp4,POLIP UTCA,stimuli/objects/025a.jpg,object,0,stimuli/objects/025a.jpg,stimuli/objects/025b.jpg,stimuli/objects/025a.jpg,stimuli/scenes/040b.jpg,stimuli/scenes/040a.jpg,lure,target,dist2,dist1,0,0,0,0,0,17,17,25,,,,,,,,,,,202.37089689448476,203.41847869381309,203.41847869381309,203.41847869381309,203.41847869381309,None,,,,,,,,,,,,,,,,,,,,,,,,,,,,,,ST01_112822,2022-11-29_09h29.58.226,Hippopolis_Learning,2022.2.2,59.995596359539505,
Camponello,stimuli/subj_files/ST01_112822_cityB.csv,./stimuli/arnedillo.png,./stimuli/street_plate2.png,./stimuli/videos/camponello_part1.mp4,MARTINI UTCA,stimuli/scenes/036a.jpg,scene,0,stimuli/scenes/036a.jpg,stimuli/scenes/065a.jpg,stimuli/scenes/036b.jpg,stimuli/scenes/065b.jpg,stimuli/scenes/036a.jpg,dist1,lure,dist2,target,0,0,0,0,0,18,18,66,,,,,,,,,,,206.38839349150658,207.41400549001992,207.41400549001992,207.41400549001992,207.41400549001992,None,,,,,,,,,,,,,,,,,,,,,,,,,,,,,,ST01_112822,2022-11-29_09h29.58.226,Hippopolis_Learning,2022.2.2,59.995596359539505,
Camponello,stimuli/subj_files/ST01_112822_cityB.csv,./stimuli/arnedillo.png,./stimuli/street_plate2.png,./stimuli/videos/camponello_part1.mp4,GYŰRŰ UTCA,stimuli/scenes/022a.jpg,scene,1,stimuli/scenes/058a.jpg,stimuli/scenes/099b.jpg,stimuli/scenes/099a.jpg,stimuli/scenes/058a.jpg,stimuli/scenes/058b.jpg,dist2,dist1,target,lure,0,0,0,0,0,19,19,72,,,,,,,,,,,210.40149650163949,211.43015853874385,211.43015853874385,211.43015853874385,211.43015853874385,None,,,,,,,,,,,,,,,,,,,,,,,,,,,,,,ST01_112822,2022-11-29_09h29.58.226,Hippopolis_Learning,2022.2.2,59.995596359539505,
Camponello,stimuli/subj_files/ST01_112822_cityB.csv,./stimuli/arnedillo.png,./stimuli/street_plate2.png,./stimuli/videos/camponello_part1.mp4,ZÁSZLÓ UTCA,stimuli/scenes/079a.jpg,scene,0,stimuli/scenes/079a.jpg,stimuli/objects/112a.jpg,stimuli/scenes/079b.jpg,stimuli/objects/112b.jpg,stimuli/scenes/079a.jpg,dist1,lure,dist2,target,0,0,0,0,0,20,20,63,,,,,,,,,,,214.41334460116923,215.4477649219334,215.4477649219334,215.4477649219334,215.4477649219334,None,,,,,,,,,,,,,,,,,,,,,,,,,,,,,,ST01_112822,2022-11-29_09h29.58.226,Hippopolis_Learning,2022.2.2,59.995596359539505,
Camponello,stimuli/subj_files/ST01_112822_cityB.csv,./stimuli/arnedillo.png,./stimuli/street_plate2.png,./stimuli/videos/camponello_part1.mp4,ECSET UTCA,stimuli/objects/100a.jpg,object,2,stimuli/scenes/019a.jpg,stimuli/scenes/087b.jpg,stimuli/scenes/087a.jpg,stimuli/scenes/019a.jpg,stimuli/scenes/019b.jpg,dist2,dist1,target,lure,0,0,0,0,0,21,21,60,,,,,,,,,,,218.41439984552562,219.442297430709,219.442297430709,219.442297430709,219.442297430709,None,,,,,,,,,,,,,,,,,,,,,,,,,,,,,,ST01_112822,2022-11-29_09h29.58.226,Hippopolis_Learning,2022.2.2,59.995596359539505,
Camponello,stimuli/subj_files/ST01_112822_cityB.csv,./stimuli/arnedillo.png,./stimuli/street_plate2.png,./stimuli/videos/camponello_part1.mp4,CITROM UTCA,stimuli/objects/038a.jpg,object,0,stimuli/objects/038a.jpg,stimuli/objects/059b.jpg,stimuli/objects/059a.jpg,stimuli/objects/038b.jpg,stimuli/objects/038a.jpg,dist2,dist1,lure,target,0,0,0,0,0,22,22,23,,,,,,,,,,,222.42687058076262,223.45411909371614,223.45411909371614,223.45411909371614,223.45411909371614,None,,,,,,,,,,,,,,,,,,,,,,,,,,,,,,ST01_112822,2022-11-29_09h29.58.226,Hippopolis_Learning,2022.2.2,59.995596359539505,
Camponello,stimuli/subj_files/ST01_112822_cityB.csv,./stimuli/arnedillo.png,./stimuli/street_plate2.png,./stimuli/videos/camponello_part1.mp4,HAJÓ UTCA,stimuli/scenes/037a.jpg,scene,0,stimuli/scenes/037a.jpg,stimuli/objects/028a.jpg,stimuli/scenes/037b.jpg,stimuli/scenes/037a.jpg,stimuli/objects/028b.jpg,dist1,lure,target,dist2,0,0,0,0,0,23,23,17,,,,,,,,,,,226.43133632093668,227.4614974092692,227.4614974092692,227.4614974092692,227.4614974092692,None,,,,,,,,,,,,,,,,,,,,,,,,,,,,,,ST01_112822,2022-11-29_09h29.58.226,Hippopolis_Learning,2022.2.2,59.995596359539505,
Camponello,stimuli/subj_files/ST01_112822_cityB.csv,./stimuli/arnedillo.png,./stimuli/street_plate2.png,./stimuli/videos/camponello_part1.mp4,TORONY UTCA,stimuli/scenes/120a.jpg,scene,0,stimuli/scenes/120a.jpg,stimuli/scenes/120a.jpg,stimuli/scenes/034a.jpg,stimuli/scenes/034b.jpg,stimuli/scenes/120b.jpg,target,dist1,dist2,lure,0,0,0,0,0,24,24,59,,,,,,,,,,,230.4458323288709,231.4815772268921,231.4815772268921,231.4815772268921,231.4815772268921,None,,,,,,,,,,,,,,,,,,,,,,,,,,,,,,ST01_112822,2022-11-29_09h29.58.226,Hippopolis_Learning,2022.2.2,59.995596359539505,
Camponello,stimuli/subj_files/ST01_112822_cityB.csv,./stimuli/arnedillo.png,./stimuli/street_plate2.png,./stimuli/videos/camponello_part1.mp4,KRÉTA UTCA,stimuli/scenes/066a.jpg,scene,0,stimuli/scenes/066a.jpg,stimuli/objects/094a.jpg,stimuli/scenes/066b.jpg,stimuli/objects/094b.jpg,stimuli/scenes/066a.jpg,dist1,lure,dist2,target,0,0,0,0,0,25,25,22,,,,,,,,,,,234.45248102396727,235.48119935393333,235.48119935393333,235.48119935393333,235.48119935393333,None,,,,,,,,,,,,,,,,,,,,,,,,,,,,,,ST01_112822,2022-11-29_09h29.58.226,Hippopolis_Learning,2022.2.2,59.995596359539505,
Camponello,stimuli/subj_files/ST01_112822_cityB.csv,./stimuli/arnedillo.png,./stimuli/street_plate2.png,./stimuli/videos/camponello_part1.mp4,TOJÁS UTCA,stimuli/objects/012a.jpg,object,0,stimuli/objects/012a.jpg,stimuli/objects/011a.jpg,stimuli/objects/012a.jpg,stimuli/objects/012b.jpg,stimuli/objects/011b.jpg,dist1,target,lure,dist2,0,0,0,0,0,26,26,27,,,,,,,,,,,238.46364179812372,239.50075543485582,239.50075543485582,239.50075543485582,239.50075543485582,None,,,,,,,,,,,,,,,,,,,,,,,,,,,,,,ST01_112822,2022-11-29_09h29.58.226,Hippopolis_Learning,2022.2.2,59.995596359539505,
Camponello,stimuli/subj_files/ST01_112822_cityB.csv,./stimuli/arnedillo.png,./stimuli/street_plate2.png,./stimuli/videos/camponello_part1.mp4,NARANCS UTCA,stimuli/objects/042a.jpg,object,0,stimuli/objects/042a.jpg,stimuli/scenes/085b.jpg,stimuli/scenes/085a.jpg,stimuli/objects/042b.jpg,stimuli/objects/042a.jpg,dist2,dist1,lure,target,0,0,0,0,0,27,27,26,,,,,,,,,,,242.47196121886373,243.5008714403957,243.5008714403957,243.5008714403957,243.5008714403957,None,,,,,,,,,,,,,,,,,,,,,,,,,,,,,,ST01_112822,2022-11-29_09h29.58.226,Hippopolis_Learning,2022.2.2,59.995596359539505,
Camponello,stimuli/subj_files/ST01_112822_cityB.csv,./stimuli/arnedillo.png,./stimuli/street_plate2.png,./stimuli/videos/camponello_part1.mp4,TALICSKA UTCA,stimuli/scenes/050a.jpg,scene,1,stimuli/scenes/099a.jpg,stimuli/objects/001b.jpg,stimuli/scenes/099a.jpg,stimuli/scenes/099b.jpg,stimuli/objects/001a.jpg,dist2,target,lure,dist1,0,0,0,0,0,28,28,24,,,,,,,,,,,246.48327967524529,247.50119426473975,247.50119426473975,247.50119426473975,247.50119426473975,None,,,,,,,,,,,,,,,,,,,,,,,,,,,,,,ST01_112822,2022-11-29_09h29.58.226,Hippopolis_Learning,2022.2.2,59.995596359539505,
Camponello,stimuli/subj_files/ST01_112822_cityB.csv,./stimuli/arnedillo.png,./stimuli/street_plate2.png,./stimuli/videos/camponello_part1.mp4,PÁFRÁNY UTCA,stimuli/objects/030a.jpg,object,0,stimuli/objects/030a.jpg,stimuli/objects/030a.jpg,stimuli/objects/030b.jpg,stimuli/scenes/036a.jpg,stimuli/scenes/036b.jpg,target,lure,dist1,dist2,0,0,0,0,0,29,29,67,,,,,,,,,,,250.48599258437753,251.5167850162834,251.5167850162834,251.5167850162834,251.5167850162834,None,,,,,,,,,,,,,,,,,,,,,,,,,,,,,,ST01_112822,2022-11-29_09h29.58.226,Hippopolis_Learning,2022.2.2,59.995596359539505,
Camponello,stimuli/subj_files/ST01_112822_cityB.csv,./stimuli/arnedillo.png,./stimuli/street_plate2.png,./stimuli/videos/camponello_part1.mp4,PIZSAMA UTCA,stimuli/objects/088a.jpg,object,0,stimuli/objects/088a.jpg,stimuli/objects/088a.jpg,stimuli/objects/047a.jpg,stimuli/objects/047b.jpg,stimuli/objects/088b.jpg,target,dist1,dist2,lure,0,0,0,0,0,30,30,33,,,,,,,,,,,254.49126040935516,255.5301103964448,255.5301103964448,255.5301103964448,255.5301103964448,None,,,,,,,,,,,,,,,,,,,,,,,,,,,,,,ST01_112822,2022-11-29_09h29.58.226,Hippopolis_Learning,2022.2.2,59.995596359539505,
Camponello,stimuli/subj_files/ST01_112822_cityB.csv,./stimuli/arnedillo.png,./stimuli/street_plate2.png,./stimuli/videos/camponello_part1.mp4,TIGRIS UTCA,stimuli/objects/016a.jpg,object,1,stimuli/objects/113a.jpg,stimuli/objects/113a.jpg,stimuli/objects/113b.jpg,stimuli/objects/063a.jpg,stimuli/objects/063b.jpg,target,lure,dist1,dist2,0,0,0,0,0,31,31,18,,,,,,,,,,,258.5055660828948,259.5305856131017,259.5305856131017,259.5305856131017,259.5305856131017,None,,,,,,,,,,,,,,,,,,,,,,,,,,,,,,ST01_112822,2022-11-29_09h29.58.226,Hippopolis_Learning,2022.2.2,59.995596359539505,
Camponello,stimuli/subj_files/ST01_112822_cityB.csv,./stimuli/arnedillo.png,./stimuli/street_plate2.png,./stimuli/videos/camponello_part1.mp4,MÁLNA UTCA,stimuli/objects/067a.jpg,object,0,stimuli/objects/067a.jpg,stimuli/objects/008b.jpg,stimuli/objects/008a.jpg,stimuli/objects/067a.jpg,stimuli/objects/067b.jpg,dist2,dist1,target,lure,0,0,0,0,0,32,32,39,,,,,,,,,,,262.51285949349403,263.53014398366213,263.53014398366213,263.53014398366213,263.53014398366213,None,,,,,,,,,,,,,,,,,,,,,,,,,,,,,,ST01_112822,2022-11-29_09h29.58.226,Hippopolis_Learning,2022.2.2,59.995596359539505,
Camponello,stimuli/subj_files/ST01_112822_cityB.csv,./stimuli/arnedillo.png,./stimuli/street_plate2.png,./stimuli/videos/camponello_part1.mp4,HEGEDŰ UTCA,stimuli/objects/054a.jpg,object,0,stimuli/objects/054a.jpg,stimuli/objects/054b.jpg,stimuli/objects/012a.jpg,stimuli/objects/012b.jpg,stimuli/objects/054a.jpg,lure,dist1,dist2,target,0,0,0,0,0,33,33,62,,,,,,,,,,,266.5225834194571,267.5562389753759,267.5562389753759,267.5562389753759,267.5562389753759,None,,,,,,,,,,,,,,,,,,,,,,,,,,,,,,ST01_112822,2022-11-29_09h29.58.226,Hippopolis_Learning,2022.2.2,59.995596359539505,
Camponello,stimuli/subj_files/ST01_112822_cityB.csv,./stimuli/arnedillo.png,./stimuli/street_plate2.png,./stimuli/videos/camponello_part1.mp4,MOCSÁR UTCA,stimuli/objects/057a.jpg,object,0,stimuli/objects/057a.jpg,stimuli/objects/067a.jpg,stimuli/objects/067b.jpg,stimuli/objects/057b.jpg,stimuli/objects/057a.jpg,dist1,dist2,lure,target,0,0,0,0,0,34,34,21,,,,,,,,,,,270.53700354136527,271.565681129694,271.565681129694,271.565681129694,271.565681129694,None,,,,,,,,,,,,,,,,,,,,,,,,,,,,,,ST01_112822,2022-11-29_09h29.58.226,Hippopolis_Learning,2022.2.2,59.995596359539505,
Camponello,stimuli/subj_files/ST01_112822_cityB.csv,./stimuli/arnedillo.png,./stimuli/street_plate2.png,./stimuli/videos/camponello_part1.mp4,BÖGRE UTCA,stimuli/objects/074a.jpg,object,0,stimuli/objects/074a.jpg,stimuli/objects/074a.jpg,stimuli/objects/042b.jpg,stimuli/objects/074b.jpg,stimuli/objects/042a.jpg,target,dist2,lure,dist1,0,0,0,0,0,35,35,64,,,,,,,,,,,274.554480234161,275.5992710646242,275.5992710646242,275.5992710646242,275.5992710646242,None,,,,,,,,,,,,,,,,,,,,,,,,,,,,,,ST01_112822,2022-11-29_09h29.58.226,Hippopolis_Learning,2022.2.2,59.995596359539505,
Camponello,stimuli/subj_files/ST01_112822_cityB.csv,./stimuli/arnedillo.png,./stimuli/street_plate2.png,./stimuli/videos/camponello_part1.mp4,LIGET UTCA,stimuli/scenes/085a.jpg,scene,0,stimuli/scenes/085a.jpg,stimuli/scenes/085b.jpg,stimuli/objects/074a.jpg,stimuli/objects/074b.jpg,stimuli/scenes/085a.jpg,lure,dist1,dist2,target,0,0,0,0,0,36,36,38,,,,,,,,,,,278.56733412854373,279.5853507295251,279.5853507295251,279.5853507295251,279.5853507295251,None,,,,,,,,,,,,,,,,,,,,,,,,,,,,,,ST01_112822,2022-11-29_09h29.58.226,Hippopolis_Learning,2022.2.2,59.995596359539505,
Camponello,stimuli/subj_files/ST01_112822_cityB.csv,./stimuli/arnedillo.png,./stimuli/street_plate2.png,./stimuli/videos/camponello_part1.mp4,FÉSŰ UTCA,stimuli/scenes/001a.jpg,scene,2,stimuli/objects/015a.jpg,stimuli/scenes/041a.jpg,stimuli/scenes/041b.jpg,stimuli/objects/015a.jpg,stimuli/objects/015b.jpg,dist1,dist2,target,lure,0,0,0,0,0,37,37,57,,,,,,,,,,,282.5774564538151,283.61327910237014,283.61327910237014,283.61327910237014,283.61327910237014,None,,,,,,,,,,,,,,,,,,,,,,,,,,,,,,ST01_112822,2022-11-29_09h29.58.226,Hippopolis_Learning,2022.2.2,59.995596359539505,
Camponello,stimuli/subj_files/ST01_112822_cityB.csv,./stimuli/arnedillo.png,./stimuli/street_plate2.png,./stimuli/videos/camponello_part1.mp4,KATONA UTCA,stimuli/scenes/034a.jpg,scene,0,stimuli/scenes/034a.jpg,stimuli/scenes/092b.jpg,stimuli/scenes/034b.jpg,stimuli/scenes/034a.jpg,stimuli/scenes/092a.jpg,dist2,lure,target,dist1,0,0,0,0,0,38,38,51,,,,,,,,,,,286.589219648391,287.60002525523305,287.60002525523305,287.60002525523305,287.60002525523305,None,,,,,,,,,,,,,,,,,,,,,,,,,,,,,,ST01_112822,2022-11-29_09h29.58.226,Hippopolis_Learning,2022.2.2,59.995596359539505,
Camponello,stimuli/subj_files/ST01_112822_cityB.csv,./stimuli/arnedillo.png,./stimuli/street_plate2.png,./stimuli/videos/camponello_part1.mp4,TÁNYÉR UTCA,stimuli/objects/005a.jpg,object,1,stimuli/objects/035a.jpg,stimuli/objects/035a.jpg,stimuli/scenes/058a.jpg,stimuli/scenes/058b.jpg,stimuli/objects/035b.jpg,target,dist1,dist2,lure,0,0,0,0,0,39,39,32,,,,,,,,,,,290.6046421453357,291.66659679450095,291.66659679450095,291.66659679450095,291.66659679450095,None,,,,,,,,,,,,,,,,,,,,,,,,,,,,,,ST01_112822,2022-11-29_09h29.58.226,Hippopolis_Learning,2022.2.2,59.995596359539505,
Camponello,stimuli/subj_files/ST01_112822_cityB.csv,./stimuli/arnedillo.png,./stimuli/street_plate2.png,./stimuli/videos/camponello_part1.mp4,KÖNYVTÁR UTCA,stimuli/objects/099a.jpg,object,0,stimuli/objects/099a.jpg,stimuli/objects/099a.jpg,stimuli/objects/026a.jpg,stimuli/objects/026b.jpg,stimuli/objects/099b.jpg,target,dist1,dist2,lure,0,0,0,0,0,40,40,52,,,,,,,,,,,294.6171256303787,295.6646744646132,295.6646744646132,295.6646744646132,295.6646744646132,None,295.6646744646132,,,,,,,,,,,,,,,,,,,,,,,,,,,,,ST01_112822,2022-11-29_09h29.58.226,Hippopolis_Learning,2022.2.2,59.995596359539505,
Camponello,stimuli/subj_files/ST01_112822_cityB.csv,./stimuli/arnedillo.png,./stimuli/street_plate2.png,./stimuli/videos/camponello_part1.mp4,TENISZ UTCA,stimuli/scenes/043a.jpg,scene,1,stimuli/scenes/003a.jpg,stimuli/scenes/003b.jpg,stimuli/scenes/003a.jpg,stimuli/objects/110b.jpg,stimuli/objects/110a.jpg,lure,target,dist2,dist1,0,0,0,0,0,41,41,78,,,,,,,,,,,298.61797623336315,299.6391787827015,299.6391787827015,299.6391787827015,299.6391787827015,None,,,,,,,,,,,,,,,,,,,,,,,,,,,,,,ST01_112822,2022-11-29_09h29.58.226,Hippopolis_Learning,2022.2.2,59.995596359539505,
Camponello,stimuli/subj_files/ST01_112822_cityB.csv,./stimuli/arnedillo.png,./stimuli/street_plate2.png,./stimuli/videos/camponello_part1.mp4,LÉPCSŐ UTCA,stimuli/objects/060a.jpg,object,0,stimuli/objects/060a.jpg,stimuli/scenes/066b.jpg,stimuli/objects/060a.jpg,stimuli/objects/060b.jpg,stimuli/scenes/066a.jpg,dist2,target,lure,dist1,0,0,0,0,0,42,42,11,,,,,,,,,,,302.6286437511444,303.66886838525534,303.66886838525534,303.66886838525534,303.66886838525534,None,,,,,,,,,,,,,,,,,,,,,,,,,,,,,,ST01_112822,2022-11-29_09h29.58.226,Hippopolis_Learning,2022.2.2,59.995596359539505,
Camponello,stimuli/subj_files/ST01_112822_cityB.csv,./stimuli/arnedillo.png,./stimuli/street_plate2.png,./stimuli/videos/camponello_part1.mp4,KÍGYÓ UTCA,stimuli/objects/086a.jpg,object,2,stimuli/scenes/109a.jpg,stimuli/scenes/109a.jpg,stimuli/scenes/016a.jpg,stimuli/scenes/109b.jpg,stimuli/scenes/016b.jpg,target,dist1,lure,dist2,0,0,0,0,0,43,43,73,,,,,,,,,,,306.64223068766296,307.6754704285413,307.6754704285413,307.6754704285413,307.6754704285413,None,,,,,,,,,,,,,,,,,,,,,,,,,,,,,,ST01_112822,2022-11-29_09h29.58.226,Hippopolis_Learning,2022.2.2,59.995596359539505,
Camponello,stimuli/subj_files/ST01_112822_cityB.csv,./stimuli/arnedillo.png,./stimuli/street_plate2.png,./stimuli/videos/camponello_part1.mp4,HORGONY UTCA,stimuli/objects/105a.jpg,object,0,stimuli/objects/105a.jpg,stimuli/objects/105a.jpg,stimuli/scenes/017a.jpg,stimuli/scenes/017b.jpg,stimuli/objects/105b.jpg,target,dist1,dist2,lure,0,0,0,0,0,44,44,75,,,,,,,,,,,310.64666905999184,311.6769470870495,311.6769470870495,311.6769470870495,311.6769470870495,space,,314.6616017203778,314.6616017203778,7.4219621028751135,,,,,,,,,,,,,,,,,,,,,,,,,,ST01_112822,2022-11-29_09h29.58.226,Hippopolis_Learning,2022.2.2,59.995596359539505,
Camponello,stimuli/subj_files/ST01_112822_cityB.csv,./stimuli/arnedillo.png,./stimuli/street_plate2.png,./stimuli/videos/camponello_part1.mp4,SZILVA UTCA,stimuli/scenes/104a.jpg,scene,0,stimuli/scenes/104a.jpg,stimuli/objects/088b.jpg,stimuli/scenes/104b.jpg,stimuli/objects/088a.jpg,stimuli/scenes/104a.jpg,dist2,lure,dist1,target,0,0,0,0,0,45,45,16,,,,,,,,,,,322.1011691354215,323.1382917929441,323.1382917929441,323.1382917929441,323.1382917929441,None,323.1382917929441,,,,,,,,,,,,,,,,,,,,,,,,,,,,,ST01_112822,2022-11-29_09h29.58.226,Hippopolis_Learning,2022.2.2,59.995596359539505,
Camponello,stimuli/subj_files/ST01_112822_cityB.csv,./stimuli/arnedillo.png,./stimuli/street_plate2.png,./stimuli/videos/camponello_part1.mp4,TELEP UTCA,stimuli/scenes/009a.jpg,scene,0,stimuli/scenes/009a.jpg,stimuli/scenes/009b.jpg,stimuli/scenes/009a.jpg,stimuli/objects/003b.jpg,stimuli/objects/003a.jpg,lure,target,dist2,dist1,0,0,0,0,0,46,46,13,,,,,,,,,,,326.11048906482756,327.1305066794157,327.1305066794157,327.1305066794157,327.1305066794157,None,,,,,,,,,,,,,,,,,,,,,,,,,,,,,,ST01_112822,2022-11-29_09h29.58.226,Hippopolis_Learning,2022.2.2,59.995596359539505,
Camponello,stimuli/subj_files/ST01_112822_cityB.csv,./stimuli/arnedillo.png,./stimuli/street_plate2.png,./stimuli/videos/camponello_part1.mp4,KÖTÉNY UTCA,stimuli/scenes/078a.jpg,scene,0,stimuli/scenes/078a.jpg,stimuli/scenes/078b.jpg,stimuli/objects/041b.jpg,stimuli/scenes/078a.jpg,stimuli/objects/041a.jpg,lure,dist2,target,dist1,0,0,0,0,0,47,47,35,,,,,,,,,,,330.11171038635075,331.1317059211433,331.1317059211433,331.1317059211433,331.1317059211433,None,,,,,,,,,,,,,,,,,,,,,,,,,,,,,,ST01_112822,2022-11-29_09h29.58.226,Hippopolis_Learning,2022.2.2,59.995596359539505,
Camponello,stimuli/subj_files/ST01_112822_cityB.csv,./stimuli/arnedillo.png,./stimuli/street_plate2.png,./stimuli/videos/camponello_part1.mp4,SÜTŐ UTCA,stimuli/objects/094a.jpg,object,0,stimuli/objects/094a.jpg,stimuli/objects/025a.jpg,stimuli/objects/025b.jpg,stimuli/objects/094b.jpg,stimuli/objects/094a.jpg,dist1,dist2,lure,target,0,0,0,0,0,48,48,71,,,,,,,,,,,334.12330097332597,335.1579819172621,335.1579819172621,335.1579819172621,335.1579819172621,None,,,,,,,,,,,,,,,,,,,,,,,,,,,,,,ST01_112822,2022-11-29_09h29.58.226,Hippopolis_Learning,2022.2.2,59.995596359539505,
Camponello,stimuli/subj_files/ST01_112822_cityB.csv,./stimuli/arnedillo.png,./stimuli/street_plate2.png,./stimuli/videos/camponello_part1.mp4,POGÁCSA UTCA,stimuli/scenes/082a.jpg,scene,2,stimuli/objects/046a.jpg,stimuli/objects/046a.jpg,stimuli/objects/046b.jpg,stimuli/objects/082a.jpg,stimuli/objects/082b.jpg,target,lure,dist1,dist2,0,0,0,0,0,49,49,58,,,,,,,,,,,338.12509765662253,339.1493259873241,339.1493259873241,339.1493259873241,339.1493259873241,None,,,,,,,,,,,,,,,,,,,,,,,,,,,,,,ST01_112822,2022-11-29_09h29.58.226,Hippopolis_Learning,2022.2.2,59.995596359539505,
Camponello,stimuli/subj_files/ST01_112822_cityB.csv,./stimuli/arnedillo.png,./stimuli/street_plate2.png,./stimuli/videos/camponello_part1.mp4,SIVATAG UTCA,stimuli/scenes/014a.jpg,scene,0,stimuli/scenes/014a.jpg,stimuli/scenes/014b.jpg,stimuli/objects/114a.jpg,stimuli/objects/114b.jpg,stimuli/scenes/014a.jpg,lure,dist1,dist2,target,0,0,0,0,0,50,50,31,,,,,,,,,,,342.1410846300423,343.16552040167153,343.16552040167153,343.16552040167153,343.16552040167153,None,,,,,,,,,,,,,,,,,,,,,,,,,,,,,,ST01_112822,2022-11-29_09h29.58.226,Hippopolis_Learning,2022.2.2,59.995596359539505,
Camponello,stimuli/subj_files/ST01_112822_cityB.csv,./stimuli/arnedillo.png,./stimuli/street_plate2.png,./stimuli/videos/camponello_part1.mp4,OROSZLÁN UTCA,stimuli/objects/078a.jpg,object,0,stimuli/objects/078a.jpg,stimuli/scenes/104b.jpg,stimuli/scenes/104a.jpg,stimuli/objects/078a.jpg,stimuli/objects/078b.jpg,dist2,dist1,target,lure,0,0,0,0,0,51,51,0,,,,,,,,,,,346.1454474274069,347.1629219427705,347.1629219427705,347.1629219427705,347.1629219427705,None,,,,,,,,,,,,,,,,,,,,,,,,,,,,,,ST01_112822,2022-11-29_09h29.58.226,Hippopolis_Learning,2022.2.2,59.995596359539505,
Camponello,stimuli/subj_files/ST01_112822_cityB.csv,./stimuli/arnedillo.png,./stimuli/street_plate2.png,./stimuli/videos/camponello_part1.mp4,FÜGE UTCA,stimuli/objects/045a.jpg,object,0,stimuli/objects/045a.jpg,stimuli/objects/054b.jpg,stimuli/objects/045b.jpg,stimuli/objects/045a.jpg,stimuli/objects/054a.jpg,dist2,lure,target,dist1,0,0,0,0,0,52,52,74,,,,,,,,,,,350.14983479492366,351.19809490069747,351.19809490069747,351.19809490069747,351.19809490069747,None,,,,,,,,,,,,,,,,,,,,,,,,,,,,,,ST01_112822,2022-11-29_09h29.58.226,Hippopolis_Learning,2022.2.2,59.995596359539505,
Camponello,stimuli/subj_files/ST01_112822_cityB.csv,./stimuli/arnedillo.png,./stimuli/street_plate2.png,./stimuli/videos/camponello_part1.mp4,KAKAS UTCA,stimuli/scenes/028a.jpg,scene,2,stimuli/objects/037a.jpg,stimuli/objects/037a.jpg,stimuli/objects/037b.jpg,stimuli/objects/046b.jpg,stimuli/objects/046a.jpg,target,lure,dist2,dist1,0,0,0,0,0,53,53,45,,,,,,,,,,,354.16332687437534,355.1884403284639,355.1884403284639,355.1884403284639,355.1884403284639,None,,,,,,,,,,,,,,,,,,,,,,,,,,,,,,ST01_112822,2022-11-29_09h29.58.226,Hippopolis_Learning,2022.2.2,59.995596359539505,
Camponello,stimuli/subj_files/ST01_112822_cityB.csv,./stimuli/arnedillo.png,./stimuli/street_plate2.png,./stimuli/videos/camponello_part1.mp4,KECSKE UTCA,stimuli/scenes/025a.jpg,scene,0,stimuli/scenes/025a.jpg,stimuli/scenes/004b.jpg,stimuli/scenes/025a.jpg,stimuli/scenes/025b.jpg,stimuli/scenes/004a.jpg,dist2,target,lure,dist1,0,0,0,0,0,54,54,9,,,,,,,,,,,358.1743741314858,359.19280281476676,359.19280281476676,359.19280281476676,359.19280281476676,None,,,,,,,,,,,,,,,,,,,,,,,,,,,,,,ST01_112822,2022-11-29_09h29.58.226,Hippopolis_Learning,2022.2.2,59.995596359539505,
Camponello,stimuli/subj_files/ST01_112822_cityB.csv,./stimuli/arnedillo.png,./stimuli/street_plate2.png,./stimuli/videos/camponello_part1.mp4,MENTA UTCA,stimuli/scenes/106a.jpg,scene,0,stimuli/scenes/106a.jpg,stimuli/scenes/106a.jpg,stimuli/scenes/009a.jpg,stimuli/scenes/106b.jpg,stimuli/scenes/009b.jpg,target,dist1,lure,dist2,0,0,0,0,0,55,55,48,,,,,,,,,,,362.17495820112526,363.19141354970634,363.19141354970634,363.19141354970634,363.19141354970634,None,363.19141354970634,,,,,,,,,,,,,,,,,,,,,,,,,,,,,ST01_112822,2022-11-29_09h29.58.226,Hippopolis_Learning,2022.2.2,59.995596359539505,
Camponello,stimuli/subj_files/ST01_112822_cityB.csv,./stimuli/arnedillo.png,./stimuli/street_plate2.png,./stimuli/videos/camponello_part1.mp4,CSAVAR UTCA,stimuli/objects/049a.jpg,object,1,stimuli/objects/063a.jpg,stimuli/objects/113b.jpg,stimuli/objects/063b.jpg,stimuli/objects/063a.jpg,stimuli/objects/113a.jpg,dist2,lure,target,dist1,0,0,0,0,0,56,56,55,,,,,,,,,,,366.1913637891412,367.22266813740134,367.22266813740134,367.22266813740134,367.22266813740134,None,,,,,,,,,,,,,,,,,,,,,,,,,,,,,,ST01_112822,2022-11-29_09h29.58.226,Hippopolis_Learning,2022.2.2,59.995596359539505,
Camponello,stimuli/subj_files/ST01_112822_cityB.csv,./stimuli/arnedillo.png,./stimuli/street_plate2.png,./stimuli/videos/camponello_part1.mp4,BONBON UTCA,stimuli/objects/041a.jpg,object,0,stimuli/objects/041a.jpg,stimuli/scenes/079a.jpg,stimuli/scenes/079b.jpg,stimuli/objects/041a.jpg,stimuli/objects/041b.jpg,dist1,dist2,target,lure,0,0,0,0,0,57,57,4,,,,,,,,,,,370.1942126080394,371.23225024342537,371.23225024342537,371.23225024342537,371.23225024342537,None,,,,,,,,,,,,,,,,,,,,,,,,,,,,,,ST01_112822,2022-11-29_09h29.58.226,Hippopolis_Learning,2022.2.2,59.995596359539505,
Camponello,stimuli/subj_files/ST01_112822_cityB.csv,./stimuli/arnedillo.png,./stimuli/street_plate2.png,./stimuli/videos/camponello_part1.mp4,REPÜLŐ UTCA,stimuli/objects/008a.jpg,object,0,stimuli/objects/008a.jpg,stimuli/scenes/120a.jpg,stimuli/scenes/120b.jpg,stimuli/objects/008b.jpg,stimuli/objects/008a.jpg,dist1,dist2,lure,target,0,0,0,0,0,58,58,20,,,,,,,,,,,374.1995205525309,375.2286369726062,375.2286369726062,375.2286369726062,375.2286369726062,None,,,,,,,,,,,,,,,,,,,,,,,,,,,,,,ST01_112822,2022-11-29_09h29.58.226,Hippopolis_Learning,2022.2.2,59.995596359539505,
Camponello,stimuli/subj_files/ST01_112822_cityB.csv,./stimuli/arnedillo.png,./stimuli/street_plate2.png,./stimuli/videos/camponello_part1.mp4,TISZTÁS UTCA,stimuli/scenes/054a.jpg,scene,0,stimuli/scenes/054a.jpg,stimuli/objects/019b.jpg,stimuli/scenes/054a.jpg,stimuli/scenes/054b.jpg,stimuli/objects/019a.jpg,dist2,target,lure,dist1,0,0,0,0,0,59,59,15,,,,,,,,,,,378.203988160938,379.23349955677986,379.23349955677986,379.23349955677986,379.23349955677986,None,,,,,,,,,,,,,,,,,,,,,,,,,,,,,,ST01_112822,2022-11-29_09h29.58.226,Hippopolis_Learning,2022.2.2,59.995596359539505,
Camponello,stimuli/subj_files/ST01_112822_cityB.csv,./stimuli/arnedillo.png,./stimuli/street_plate2.png,./stimuli/videos/camponello_part1.mp4,BÚJÓCSKA UTCA,stimuli/scenes/092a.jpg,scene,0,stimuli/scenes/092a.jpg,stimuli/scenes/092b.jpg,stimuli/scenes/106a.jpg,stimuli/scenes/092a.jpg,stimuli/scenes/106b.jpg,lure,dist1,target,dist2,0,0,0,0,0,60,60,61,,,,,,,,,,,382.2081397846341,383.25004634074867,383.25004634074867,383.25004634074867,383.25004634074867,None,,,,,,,,,,,,,,,,,,,,,,,,,,,,,,ST01_112822,2022-11-29_09h29.58.226,Hippopolis_Learning,2022.2.2,59.995596359539505,
Camponello,stimuli/subj_files/ST01_112822_cityB.csv,./stimuli/arnedillo.png,./stimuli/street_plate2.png,./stimuli/videos/camponello_part1.mp4,KESZTYŰ UTCA,stimuli/objects/103a.jpg,object,2,stimuli/scenes/041a.jpg,stimuli/scenes/041a.jpg,stimuli/scenes/063b.jpg,stimuli/scenes/063a.jpg,stimuli/scenes/041b.jpg,target,dist2,dist1,lure,0,0,0,0,0,61,61,7,,,,,,,,,,,386.2161261178553,387.26193207129836,387.26193207129836,387.26193207129836,387.26193207129836,None,,,,,,,,,,,,,,,,,,,,,,,,,,,,,,ST01_112822,2022-11-29_09h29.58.226,Hippopolis_Learning,2022.2.2,59.995596359539505,
Camponello,stimuli/subj_files/ST01_112822_cityB.csv,./stimuli/arnedillo.png,./stimuli/street_plate2.png,./stimuli/videos/camponello_part1.mp4,KERET UTCA,stimuli/scenes/012a.jpg,scene,0,stimuli/scenes/012a.jpg,stimuli/scenes/012a.jpg,stimuli/scenes/011b.jpg,stimuli/scenes/011a.jpg,stimuli/scenes/012b.jpg,target,dist2,dist1,lure,0,0,0,0,0,62,62,2,,,,,,,,,,,390.22220878116786,391.2412694301456,391.2412694301456,391.2412694301456,391.2412694301456,None,,,,,,,,,,,,,,,,,,,,,,,,,,,,,,ST01_112822,2022-11-29_09h29.58.226,Hippopolis_Learning,2022.2.2,59.995596359539505,
Camponello,stimuli/subj_files/ST01_112822_cityB.csv,./stimuli/arnedillo.png,./stimuli/street_plate2.png,./stimuli/videos/camponello_part1.mp4,TOLMÁCS UTCA,stimuli/objects/111a.jpg,object,1,stimuli/objects/110a.jpg,stimuli/scenes/119a.jpg,stimuli/scenes/119b.jpg,stimuli/objects/110a.jpg,stimuli/objects/110b.jpg,dist1,dist2,target,lure,0,0,0,0,0,63,63,28,,,,,,,,,,,394.2259206417948,395.25797296129167,395.25797296129167,395.25797296129167,395.25797296129167,None,,,,,,,,,,,,,,,,,,,,,,,,,,,,,,ST01_112822,2022-11-29_09h29.58.226,Hippopolis_Learning,2022.2.2,59.995596359539505,
Camponello,stimuli/subj_files/ST01_112822_cityB.csv,./stimuli/arnedillo.png,./stimuli/street_plate2.png,./stimuli/videos/camponello_part1.mp4,PÁLMAFA UTCA,stimuli/scenes/015a.jpg,scene,1,stimuli/scenes/089a.jpg,stimuli/scenes/051b.jpg,stimuli/scenes/051a.jpg,stimuli/scenes/089b.jpg,stimuli/scenes/089a.jpg,dist2,dist1,lure,target,0,0,0,0,0,64,64,46,,,,,,,,,,,398.229152308777,399.2807404939085,399.2807404939085,399.2807404939085,399.2807404939085,None,,,,,,,,,,,,,,,,,,,,,,,,,,,,,,ST01_112822,2022-11-29_09h29.58.226,Hippopolis_Learning,2022.2.2,59.995596359539505,
Camponello,stimuli/subj_files/ST01_112822_cityB.csv,./stimuli/arnedillo.png,./stimuli/street_plate2.png,./stimuli/videos/camponello_part1.mp4,SZOBOR UTCA,stimuli/objects/114a.jpg,object,0,stimuli/objects/114a.jpg,stimuli/objects/099b.jpg,stimuli/objects/099a.jpg,stimuli/objects/114a.jpg,stimuli/objects/114b.jpg,dist2,dist1,target,lure,0,0,0,0,0,65,65,10,,,,,,,,,,,402.23518427833915,403.2673768606037,403.2673768606037,403.2673768606037,403.2673768606037,None,,,,,,,,,,,,,,,,,,,,,,,,,,,,,,ST01_112822,2022-11-29_09h29.58.226,Hippopolis_Learning,2022.2.2,59.995596359539505,
Camponello,stimuli/subj_files/ST01_112822_cityB.csv,./stimuli/arnedillo.png,./stimuli/street_plate2.png,./stimuli/videos/camponello_part1.mp4,ZSEMLE UTCA,stimuli/objects/011a.jpg,object,0,stimuli/objects/011a.jpg,stimuli/scenes/014b.jpg,stimuli/scenes/014a.jpg,stimuli/objects/011b.jpg,stimuli/objects/011a.jpg,dist2,dist1,lure,target,0,0,0,0,0,66,66,12,,,,,,,,,,,406.2493929155171,407.28109504282475,407.28109504282475,407.28109504282475,407.28109504282475,None,,,,,,,,,,,,,,,,,,,,,,,,,,,,,,ST01_112822,2022-11-29_09h29.58.226,Hippopolis_Learning,2022.2.2,59.995596359539505,
Camponello,stimuli/subj_files/ST01_112822_cityB.csv,./stimuli/arnedillo.png,./stimuli/street_plate2.png,./stimuli/videos/camponello_part1.mp4,SALÁTA UTCA,stimuli/objects/058a.jpg,object,1,stimuli/objects/001a.jpg,stimuli/objects/001a.jpg,stimuli/objects/007b.jpg,stimuli/objects/001b.jpg,stimuli/objects/007a.jpg,target,dist2,lure,dist1,0,0,0,0,0,67,67,5,,,,,,,,,,,410.25787032954395,411.2826242595911,411.2826242595911,411.2826242595911,411.2826242595911,None,,,,,,,,,,,,,,,,,,,,,,,,,,,,,,ST01_112822,2022-11-29_09h29.58.226,Hippopolis_Learning,2022.2.2,59.995596359539505,
Camponello,stimuli/subj_files/ST01_112822_cityB.csv,./stimuli/arnedillo.png,./stimuli/street_plate2.png,./stimuli/videos/camponello_part1.mp4,CSILLAG UTCA,stimuli/scenes/006a.jpg,scene,2,stimuli/objects/082a.jpg,stimuli/scenes/109b.jpg,stimuli/objects/082a.jpg,stimuli/objects/082b.jpg,stimuli/scenes/109a.jpg,dist2,target,lure,dist1,0,0,0,0,0,68,68,47,,,,,,,,,,,414.2746544107795,415.2935321871191,415.2935321871191,415.2935321871191,415.2935321871191,None,,,,,,,,,,,,,,,,,,,,,,,,,,,,,,ST01_112822,2022-11-29_09h29.58.226,Hippopolis_Learning,2022.2.2,59.995596359539505,
Camponello,stimuli/subj_files/ST01_112822_cityB.csv,./stimuli/arnedillo.png,./stimuli/street_plate2.png,./stimuli/videos/camponello_part1.mp4,TERÍTŐ UTCA,stimuli/scenes/021a.jpg,scene,1,stimuli/scenes/051a.jpg,stimuli/scenes/003b.jpg,stimuli/scenes/051b.jpg,stimuli/scenes/003a.jpg,stimuli/scenes/051a.jpg,dist2,lure,dist1,target,0,0,0,0,0,69,69,42,,,,,,,,,,,418.2777178231627,419.30236352421343,419.30236352421343,419.30236352421343,419.30236352421343,None,,,,,,,,,,,,,,,,,,,,,,,,,,,,,,ST01_112822,2022-11-29_09h29.58.226,Hippopolis_Learning,2022.2.2,59.995596359539505,
Camponello,stimuli/subj_files/ST01_112822_cityB.csv,./stimuli/arnedillo.png,./stimuli/street_plate2.png,./stimuli/videos/camponello_part1.mp4,TOLLTARTÓ UTCA,stimuli/objects/003a.jpg,object,0,stimuli/objects/003a.jpg,stimuli/scenes/080a.jpg,stimuli/scenes/080b.jpg,stimuli/objects/003b.jpg,stimuli/objects/003a.jpg,dist1,dist2,lure,target,0,0,0,0,0,70,70,65,,,,,,,,,,,422.2784577086568,423.33322157897055,423.33322157897055,423.33322157897055,423.33322157897055,None,,,,,,,,,,,,,,,,,,,,,,,,,,,,,,ST01_112822,2022-11-29_09h29.58.226,Hippopolis_Learning,2022.2.2,59.995596359539505,
Camponello,stimuli/subj_files/ST01_112822_cityB.csv,./stimuli/arnedillo.png,./stimuli/street_plate2.png,./stimuli/videos/camponello_part1.mp4,KUTYA UTCA,stimuli/objects/051a.jpg,object,1,stimuli/objects/007a.jpg,stimuli/objects/007b.jpg,stimuli/objects/007a.jpg,stimuli/objects/035b.jpg,stimuli/objects/035a.jpg,lure,target,dist2,dist1,0,0,0,0,0,71,71,40,,,,,,,,,,,426.2911330834031,427.3100086841732,427.3100086841732,427.3100086841732,427.3100086841732,None,,,,,,,,,,,,,,,,,,,,,,,,,,,,,,ST01_112822,2022-11-29_09h29.58.226,Hippopolis_Learning,2022.2.2,59.995596359539505,
Camponello,stimuli/subj_files/ST01_112822_cityB.csv,./stimuli/arnedillo.png,./stimuli/street_plate2.png,./stimuli/videos/camponello_part1.mp4,ASZTAL UTCA,stimuli/scenes/024a.jpg,scene,2,stimuli/objects/066a.jpg,stimuli/objects/061b.jpg,stimuli/objects/066b.jpg,stimuli/objects/061a.jpg,stimuli/objects/066a.jpg,dist2,lure,dist1,target,0,0,0,0,0,72,72,70,,,,,,,,,,,430.2948250416666,431.3124662563205,431.3124662563205,431.3124662563205,431.3124662563205,None,431.3124662563205,,,,,,,,,,,,,,,,,,,,,,,,,,,,,ST01_112822,2022-11-29_09h29.58.226,Hippopolis_Learning,2022.2.2,59.995596359539505,
Camponello,stimuli/subj_files/ST01_112822_cityB.csv,./stimuli/arnedillo.png,./stimuli/street_plate2.png,./stimuli/videos/camponello_part1.mp4,FOGAS UTCA,stimuli/scenes/113a.jpg,scene,0,stimuli/scenes/113a.jpg,stimuli/objects/010a.jpg,stimuli/objects/010b.jpg,stimuli/scenes/113b.jpg,stimuli/scenes/113a.jpg,dist1,dist2,lure,target,0,0,0,0,0,73,73,69,,,,,,,,,,,434.3022338356823,435.3230211921036,435.3230211921036,435.3230211921036,435.3230211921036,None,,,,,,,,,,,,,,,,,,,,,,,,,,,,,,ST01_112822,2022-11-29_09h29.58.226,Hippopolis_Learning,2022.2.2,59.995596359539505,
Camponello,stimuli/subj_files/ST01_112822_cityB.csv,./stimuli/arnedillo.png,./stimuli/street_plate2.png,./stimuli/videos/camponello_part1.mp4,BANÁN UTCA,stimuli/scenes/040a.jpg,scene,0,stimuli/scenes/040a.jpg,stimuli/scenes/039b.jpg,stimuli/scenes/040a.jpg,stimuli/scenes/040b.jpg,stimuli/scenes/039a.jpg,dist2,target,lure,dist1,0,0,0,0,0,74,74,29,,,,,,,,,,,438.30778312310576,439.32780571468174,439.32780571468174,439.32780571468174,439.32780571468174,None,,,,,,,,,,,,,,,,,,,,,,,,,,,,,,ST01_112822,2022-11-29_09h29.58.226,Hippopolis_Learning,2022.2.2,59.995596359539505,
Camponello,stimuli/subj_files/ST01_112822_cityB.csv,./stimuli/arnedillo.png,./stimuli/street_plate2.png,./stimuli/videos/camponello_part1.mp4,LEGELŐ UTCA,stimuli/scenes/053a.jpg,scene,1,stimuli/scenes/119a.jpg,stimuli/scenes/119b.jpg,stimuli/scenes/089b.jpg,stimuli/scenes/089a.jpg,stimuli/scenes/119a.jpg,lure,dist2,dist1,target,0,0,0,0,0,75,75,77,,,,,,,,,,,442.3107047174126,443.3350695800036,443.3350695800036,443.3350695800036,443.3350695800036,None,,,,,,,,,,,,,,,,,,,,,,,,,,,,,,ST01_112822,2022-11-29_09h29.58.226,Hippopolis_Learning,2022.2.2,59.995596359539505,
Camponello,stimuli/subj_files/ST01_112822_cityB.csv,./stimuli/arnedillo.png,./stimuli/street_plate2.png,./stimuli/videos/camponello_part1.mp4,MOTOR UTCA,stimuli/objects/010a.jpg,object,0,stimuli/objects/010a.jpg,stimuli/scenes/054b.jpg,stimuli/objects/010a.jpg,stimuli/scenes/054a.jpg,stimuli/objects/010b.jpg,dist2,target,dist1,lure,0,0,0,0,0,76,76,54,,,,,,,,,,,446.31513749063015,447.344256086275,447.344256086275,447.344256086275,447.344256086275,None,,,,,,,,,,,,,,,,,,,,,,,,,,,,,,ST01_112822,2022-11-29_09h29.58.226,Hippopolis_Learning,2022.2.2,59.995596359539505,
Camponello,stimuli/subj_files/ST01_112822_cityB.csv,./stimuli/arnedillo.png,./stimuli/street_plate2.png,./stimuli/videos/camponello_part1.mp4,PADLÓ UTCA,stimuli/objects/026a.jpg,object,0,stimuli/objects/026a.jpg,stimuli/objects/026b.jpg,stimuli/scenes/025a.jpg,stimuli/objects/026a.jpg,stimuli/scenes/025b.jpg,lure,dist1,target,dist2,0,0,0,0,0,77,77,37,,,,,,,,,,,450.3273314293474,451.361510720104,451.361510720104,451.361510720104,451.361510720104,None,,,,,,,,,,,,,,,,,,,,,,,,,,,,,,ST01_112822,2022-11-29_09h29.58.226,Hippopolis_Learning,2022.2.2,59.995596359539505,
Camponello,stimuli/subj_files/ST01_112822_cityB.csv,./stimuli/arnedillo.png,./stimuli/street_plate2.png,./stimuli/videos/camponello_part1.mp4,SZŐLŐ UTCA,stimuli/objects/028a.jpg,object,0,stimuli/objects/028a.jpg,stimuli/scenes/101a.jpg,stimuli/objects/028a.jpg,stimuli/objects/028b.jpg,stimuli/scenes/101b.jpg,dist1,target,lure,dist2,0,0,0,0,0,78,78,43,,,,,,,,,,,454.3434487134218,455.3651687782258,455.3651687782258,455.3651687782258,455.3651687782258,None,,,,,,,,,,,,,,,,,,,,,,,,,,,,,,ST01_112822,2022-11-29_09h29.58.226,Hippopolis_Learning,2022.2.2,59.995596359539505,
Camponello,stimuli/subj_files/ST01_112822_cityB.csv,./stimuli/arnedillo.png,./stimuli/street_plate2.png,./stimuli/videos/camponello_part1.mp4,PAPAGÁJ UTCA,stimuli/scenes/002a.jpg,scene,0,stimuli/scenes/002a.jpg,stimuli/objects/045a.jpg,stimuli/objects/045b.jpg,stimuli/scenes/002b.jpg,stimuli/scenes/002a.jpg,dist1,dist2,lure,target,0,0,0,0,0,79,79,19,,,,,,,,,,,458.35274065099657,459.3930918648839,459.3930918648839,459.3930918648839,459.3930918648839,None,,,,,,,,,,,,,,,,,,,,,,,,,,,,,,ST01_112822,2022-11-29_09h29.58.226,Hippopolis_Learning,2022.2.2,59.995596359539505,
Camponello,stimuli/subj_files/ST01_112822_cityB.csv,./stimuli/arnedillo.png,./stimuli/street_plate2.png,./stimuli/videos/camponello_part1.mp4,MARTINI UTCA,stimuli/scenes/036a.jpg,scene,0,stimuli/scenes/036a.jpg,stimuli/scenes/065a.jpg,stimuli/scenes/036b.jpg,stimuli/scenes/065b.jpg,stimuli/scenes/036a.jpg,dist1,lure,dist2,target,0,0,0,0,,,,,0,0,0,66,,,,,,,479.62084868736565,,,,,,480.6371541302651,,,,462.3613521065563,462.3613521065563,space,13.208975596353412,475.6312941480428,475.6312941480428,475.6312941480428,475.6312941480428,475.6312941480428,475.6312941480428,None,None,,,,,,,,,,,,,,ST01_112822,2022-11-29_09h29.58.226,Hippopolis_Learning,2022.2.2,59.995596359539505,
Camponello,stimuli/subj_files/ST01_112822_cityB.csv,./stimuli/arnedillo.png,./stimuli/street_plate2.png,./stimuli/videos/camponello_part1.mp4,MOTOR UTCA,stimuli/objects/010a.jpg,object,0,stimuli/objects/010a.jpg,stimuli/scenes/054b.jpg,stimuli/objects/010a.jpg,stimuli/scenes/054a.jpg,stimuli/objects/010b.jpg,dist2,target,dist1,lure,0,0,0,0,,,,,0,1,1,54,,,,,,,483.4339686781168,,,,,,,,,,,,,,480.6371541302651,480.6371541302651,480.6371541302651,480.6371541302651,480.6371541302651,480.6371541302651,right,None,2.756256965920329,,,,,,,,,,,,,ST01_112822,2022-11-29_09h29.58.226,Hippopolis_Learning,2022.2.2,59.995596359539505,
Camponello,stimuli/subj_files/ST01_112822_cityB.csv,./stimuli/arnedillo.png,./stimuli/street_plate2.png,./stimuli/videos/camponello_part1.mp4,TOLMÁCS UTCA,stimuli/objects/111a.jpg,object,1,stimuli/objects/110a.jpg,stimuli/scenes/119a.jpg,stimuli/scenes/119b.jpg,stimuli/objects/110a.jpg,stimuli/objects/110b.jpg,dist1,dist2,target,lure,0,0,0,0,,,,,0,2,2,28,,,,,,,486.946622595191,,,,,,,,,,,,,,484.4619284644723,484.4619284644723,484.4619284644723,484.4619284644723,484.4619284644723,484.4619284644723,left,None,2.4515826627612114,,,,,,,,,,,,,ST01_112822,2022-11-29_09h29.58.226,Hippopolis_Learning,2022.2.2,59.995596359539505,
Camponello,stimuli/subj_files/ST01_112822_cityB.csv,./stimuli/arnedillo.png,./stimuli/street_plate2.png,./stimuli/videos/camponello_part1.mp4,KÍGYÓ UTCA,stimuli/objects/086a.jpg,object,2,stimuli/scenes/109a.jpg,stimuli/scenes/109a.jpg,stimuli/scenes/016a.jpg,stimuli/scenes/109b.jpg,stimuli/scenes/016b.jpg,target,dist1,lure,dist2,0,0,0,0,,,,,0,3,3,73,,,,,,,489.7865871042013,,,,,,,,,,,,,,487.9664977695793,487.9664977695793,487.9664977695793,487.9664977695793,487.9664977695793,487.9664977695793,right,None,1.7790929190814495,,,,,,,,,,,,,ST01_112822,2022-11-29_09h29.58.226,Hippopolis_Learning,2022.2.2,59.995596359539505,
Camponello,stimuli/subj_files/ST01_112822_cityB.csv,./stimuli/arnedillo.png,./stimuli/street_plate2.png,./stimuli/videos/camponello_part1.mp4,PADLÓ UTCA,stimuli/objects/026a.jpg,object,0,stimuli/objects/026a.jpg,stimuli/objects/026b.jpg,stimuli/scenes/025a.jpg,stimuli/objects/026a.jpg,stimuli/scenes/025b.jpg,lure,dist1,target,dist2,0,0,0,0,,,,,0,4,4,37,,,,,,,492.4427132457495,,,,,,,,,,,,,,490.81674819253385,490.81674819253385,490.81674819253385,490.81674819253385,490.81674819253385,490.81674819253385,right,None,1.5852855555713177,,,,,,,,,,,,,ST01_112822,2022-11-29_09h29.58.226,Hippopolis_Learning,2022.2.2,59.995596359539505,
Camponello,stimuli/subj_files/ST01_112822_cityB.csv,./stimuli/arnedillo.png,./stimuli/street_plate2.png,./stimuli/videos/camponello_part1.mp4,POGÁCSA UTCA,stimuli/scenes/082a.jpg,scene,2,stimuli/objects/046a.jpg,stimuli/objects/046a.jpg,stimuli/objects/046b.jpg,stimuli/objects/082a.jpg,stimuli/objects/082b.jpg,target,lure,dist1,dist2,0,0,0,0,,,,,0,5,5,58,,,,,,,504.6902143098414,,,,,,,,,,,,,,493.4611478392035,493.4611478392035,493.4611478392035,493.4611478392035,493.4611478392035,493.4611478392035,right,space,2.28498338162899,495.7866863142699,495.7866863142699,495.7866863142699,495.7866863142699,495.7866863142699,8.870953632518649,,,,,,,ST01_112822,2022-11-29_09h29.58.226,Hippopolis_Learning,2022.2.2,59.995596359539505,
Camponello,stimuli/subj_files/ST01_112822_cityB.csv,./stimuli/arnedillo.png,./stimuli/street_plate2.png,./stimuli/videos/camponello_part1.mp4,KUTYA UTCA,stimuli/objects/051a.jpg,object,1,stimuli/objects/007a.jpg,stimuli/objects/007b.jpg,stimuli/objects/007a.jpg,stimuli/objects/035b.jpg,stimuli/objects/035a.jpg,lure,target,dist2,dist1,0,0,0,0,,,,,0,6,6,40,,,,,,,508.38300934806466,,,,,,,,,,,,,,505.71036596782506,505.71036596782506,505.71036596782506,505.71036596782506,505.71036596782506,505.71036596782506,left,None,2.643102265894413,,,,,,,,,,,,,ST01_112822,2022-11-29_09h29.58.226,Hippopolis_Learning,2022.2.2,59.995596359539505,
Camponello,stimuli/subj_files/ST01_112822_cityB.csv,./stimuli/arnedillo.png,./stimuli/street_plate2.png,./stimuli/videos/camponello_part1.mp4,ZSEMLE UTCA,stimuli/objects/011a.jpg,object,0,stimuli/objects/011a.jpg,stimuli/scenes/014b.jpg,stimuli/scenes/014a.jpg,stimuli/objects/011b.jpg,stimuli/objects/011a.jpg,dist2,dist1,lure,target,0,0,0,0,,,,,0,7,7,12,,,,,,,513.3995129019022,,,,,,,,,,,,,,509.4047172833234,509.4047172833234,509.4047172833234,509.4047172833234,509.4047172833234,509.4047172833234,None,None,,,,,,,,,,,,,,ST01_112822,2022-11-29_09h29.58.226,Hippopolis_Learning,2022.2.2,59.995596359539505,
Camponello,stimuli/subj_files/ST01_112822_cityB.csv,./stimuli/arnedillo.png,./stimuli/street_plate2.png,./stimuli/videos/camponello_part1.mp4,TELEP UTCA,stimuli/scenes/009a.jpg,scene,0,stimuli/scenes/009a.jpg,stimuli/scenes/009b.jpg,stimuli/scenes/009a.jpg,stimuli/objects/003b.jpg,stimuli/objects/003a.jpg,lure,target,dist2,dist1,0,0,0,0,,,,,0,8,8,13,,,,,,,524.8270225990564,,,,,,525.8447098452598,,,,,,,,514.4188478589058,514.4188478589058,514.4188478589058,514.4188478589058,514.4188478589058,514.4188478589058,right,space,2.5428232308477163,517.0003539267927,517.0003539267927,517.0003539267927,517.0003539267927,517.0003539267927,7.80132800899446,,,,,,,ST01_112822,2022-11-29_09h29.58.226,Hippopolis_Learning,2022.2.2,59.995596359539505,
Camponello,stimuli/subj_files/ST01_112822_cityB.csv,./stimuli/arnedillo.png,./stimuli/street_plate2.png,./stimuli/videos/camponello_part1.mp4,TULIPÁN UTCA,stimuli/scenes/101a.jpg,scene,0,stimuli/scenes/101a.jpg,stimuli/objects/057b.jpg,stimuli/scenes/101b.jpg,stimuli/objects/057a.jpg,stimuli/scenes/101a.jpg,dist2,lure,dist1,target,0,0,0,0,,,,,0,9,9,79,,,,,,,527.5973394028842,,,,,,,,,,,,,,525.8447098452598,525.8447098452598,525.8447098452598,525.8447098452598,525.8447098452598,525.8447098452598,left,None,1.708688847720623,,,,,,,,,,,,,ST01_112822,2022-11-29_09h29.58.226,Hippopolis_Learning,2022.2.2,59.995596359539505,
Camponello,stimuli/subj_files/ST01_112822_cityB.csv,./stimuli/arnedillo.png,./stimuli/street_plate2.png,./stimuli/videos/camponello_part1.mp4,TERÍTŐ UTCA,stimuli/scenes/021a.jpg,scene,1,stimuli/scenes/051a.jpg,stimuli/scenes/003b.jpg,stimuli/scenes/051b.jpg,stimuli/scenes/003a.jpg,stimuli/scenes/051a.jpg,dist2,lure,dist1,target,0,0,0,0,,,,,0,10,10,42,,,,,,,531.8924160469323,,,,,,,,,,,,,,528.6078728791326,528.6078728791326,528.6078728791326,528.6078728791326,528.6078728791326,528.6078728791326,left,None,3.2336076125502586,,,,,,,,,,,,,ST01_112822,2022-11-29_09h29.58.226,Hippopolis_Learning,2022.2.2,59.995596359539505,
Camponello,stimuli/subj_files/ST01_112822_cityB.csv,./stimuli/arnedillo.png,./stimuli/street_plate2.png,./stimuli/videos/camponello_part1.mp4,HEGEDŰ UTCA,stimuli/objects/054a.jpg,object,0,stimuli/objects/054a.jpg,stimuli/objects/054b.jpg,stimuli/objects/012a.jpg,stimuli/objects/012b.jpg,stimuli/objects/054a.jpg,lure,dist1,dist2,target,0,0,0,0,,,,,0,11,11,62,,,,,,,536.3821668326855,,,,,,,,,,,,,,532.9136416129768,532.9136416129768,532.9136416129768,532.9136416129768,532.9136416129768,532.9136416129768,left,None,3.439153602346778,,,,,,,,,,,,,ST01_112822,2022-11-29_09h29.58.226,Hippopolis_Learning,2022.2.2,59.995596359539505,
Camponello,stimuli/subj_files/ST01_112822_cityB.csv,./stimuli/arnedillo.png,./stimuli/street_plate2.png,./stimuli/videos/camponello_part1.mp4,SÜTŐ UTCA,stimuli/objects/094a.jpg,object,0,stimuli/objects/094a.jpg,stimuli/objects/025a.jpg,stimuli/objects/025b.jpg,stimuli/objects/094b.jpg,stimuli/objects/094a.jpg,dist1,dist2,lure,target,0,0,0,0,,,,,0,12,12,71,,,,,,,539.5545374602079,,,,,,,,,,,,,,537.3927342072129,537.3927342072129,537.3927342072129,537.3927342072129,537.3927342072129,537.3927342072129,left,None,2.128847287967801,,,,,,,,,,,,,ST01_112822,2022-11-29_09h29.58.226,Hippopolis_Learning,2022.2.2,59.995596359539505,
Camponello,stimuli/subj_files/ST01_112822_cityB.csv,./stimuli/arnedillo.png,./stimuli/street_plate2.png,./stimuli/videos/camponello_part1.mp4,PETÁRDA UTCA,stimuli/scenes/065a.jpg,scene,0,stimuli/scenes/065a.jpg,stimuli/scenes/065a.jpg,stimuli/objects/105a.jpg,stimuli/scenes/065b.jpg,stimuli/objects/105b.jpg,target,dist1,lure,dist2,0,0,0,0,,,,,0,13,13,49,,,,,,,542.3141326289624,,,,,,,,,,,,,,540.5734684187919,540.5734684187919,540.5734684187919,540.5734684187919,540.5734684187919,540.5734684187919,right,None,1.7154084518551826,,,,,,,,,,,,,ST01_112822,2022-11-29_09h29.58.226,Hippopolis_Learning,2022.2.2,59.995596359539505,
Camponello,stimuli/subj_files/ST01_112822_cityB.csv,./stimuli/arnedillo.png,./stimuli/street_plate2.png,./stimuli/videos/camponello_part1.mp4,RÁDIÓ UTCA,stimuli/scenes/115a.jpg,scene,0,stimuli/scenes/115a.jpg,stimuli/scenes/037a.jpg,stimuli/scenes/037b.jpg,stimuli/scenes/115a.jpg,stimuli/scenes/115b.jpg,dist1,dist2,target,lure,0,0,0,0,,,,,0,14,14,6,,,,,,,546.488205704838,,,,,,,,,,,,,,543.3374260738492,543.3374260738492,543.3374260738492,543.3374260738492,543.3374260738492,543.3374260738492,right,None,3.1118635404855013,,,,,,,,,,,,,ST01_112822,2022-11-29_09h29.58.226,Hippopolis_Learning,2022.2.2,59.995596359539505,
Camponello,stimuli/subj_files/ST01_112822_cityB.csv,./stimuli/arnedillo.png,./stimuli/street_plate2.png,./stimuli/videos/camponello_part1.mp4,BOHÓC UTCA,stimuli/objects/052a.jpg,object,2,stimuli/scenes/063a.jpg,stimuli/scenes/019a.jpg,stimuli/scenes/019b.jpg,stimuli/scenes/063b.jpg,stimuli/scenes/063a.jpg,dist1,dist2,lure,target,0,0,0,0,,,,,0,15,15,76,,,,,,,549.3862385284156,,,,,,,,,,,,,,547.5075363069773,547.5075363069773,547.5075363069773,547.5075363069773,547.5075363069773,547.5075363069773,right,None,1.8375266660004854,,,,,,,,,,,,,ST01_112822,2022-11-29_09h29.58.226,Hippopolis_Learning,2022.2.2,59.995596359539505,
Camponello,stimuli/subj_files/ST01_112822_cityB.csv,./stimuli/arnedillo.png,./stimuli/street_plate2.png,./stimuli/videos/camponello_part1.mp4,TOLLTARTÓ UTCA,stimuli/objects/003a.jpg,object,0,stimuli/objects/003a.jpg,stimuli/scenes/080a.jpg,stimuli/scenes/080b.jpg,stimuli/objects/003b.jpg,stimuli/objects/003a.jpg,dist1,dist2,lure,target,0,0,0,0,,,,,0,16,16,65,,,,,,,553.0992085523903,,,,,,,,,,,,,,550.3971231300384,550.3971231300384,550.3971231300384,550.3971231300384,550.3971231300384,550.3971231300384,right,None,2.6754721216857433,,,,,,,,,,,,,ST01_112822,2022-11-29_09h29.58.226,Hippopolis_Learning,2022.2.2,59.995596359539505,
Camponello,stimuli/subj_files/ST01_112822_cityB.csv,./stimuli/arnedillo.png,./stimuli/street_plate2.png,./stimuli/videos/camponello_part1.mp4,MENTA UTCA,stimuli/scenes/106a.jpg,scene,0,stimuli/scenes/106a.jpg,stimuli/scenes/106a.jpg,stimuli/scenes/009a.jpg,stimuli/scenes/106b.jpg,stimuli/scenes/009b.jpg,target,dist1,lure,dist2,0,0,0,0,,,,,0,17,17,48,,,,,,,556.4642221368849,,,,,,,,,,,,,,554.1214436423033,554.1214436423033,554.1214436423033,554.1214436423033,554.1214436423033,554.1214436423033,right,None,2.31123760715127,,,,,,,,,,,,,ST01_112822,2022-11-29_09h29.58.226,Hippopolis_Learning,2022.2.2,59.995596359539505,
Camponello,stimuli/subj_files/ST01_112822_cityB.csv,./stimuli/arnedillo.png,./stimuli/street_plate2.png,./stimuli/videos/camponello_part1.mp4,KAKAÓ UTCA,stimuli/scenes/029a.jpg,scene,2,stimuli/objects/061a.jpg,stimuli/objects/037b.jpg,stimuli/objects/061a.jpg,stimuli/objects/037a.jpg,stimuli/objects/061b.jpg,dist2,target,dist1,lure,0,0,0,0,,,,,0,18,18,8,,,,,,,559.7989754211158,,,,,,,,,,,,,,557.4825805332512,557.4825805332512,557.4825805332512,557.4825805332512,557.4825805332512,557.4825805332512,right,None,2.2787669841200113,,,,,,,,,,,,,ST01_112822,2022-11-29_09h29.58.226,Hippopolis_Learning,2022.2.2,59.995596359539505,
Camponello,stimuli/subj_files/ST01_112822_cityB.csv,./stimuli/arnedillo.png,./stimuli/street_plate2.png,./stimuli/videos/camponello_part1.mp4,PÁRNA UTCA,stimuli/scenes/004a.jpg,scene,0,stimuli/scenes/004a.jpg,stimuli/scenes/100b.jpg,stimuli/scenes/004b.jpg,stimuli/scenes/004a.jpg,stimuli/scenes/100a.jpg,dist2,lure,target,dist1,0,0,0,0,,,,,0,19,19,50,,,,,,,564.8296546470374,,,,,,,,,,,,,,560.828258227557,560.828258227557,560.828258227557,560.828258227557,560.828258227557,560.828258227557,None,None,,,,,,,,,,,,,,ST01_112822,2022-11-29_09h29.58.226,Hippopolis_Learning,2022.2.2,59.995596359539505,
Camponello,stimuli/subj_files/ST01_112822_cityB.csv,./stimuli/arnedillo.png,./stimuli/street_plate2.png,./stimuli/videos/camponello_part1.mp4,TÜKÖR UTCA,stimuli/scenes/039a.jpg,scene,0,stimuli/scenes/039a.jpg,stimuli/scenes/039a.jpg,stimuli/scenes/113b.jpg,stimuli/scenes/113a.jpg,stimuli/scenes/039b.jpg,target,dist2,dist1,lure,0,0,0,0,,,,,0,20,20,68,,,,,,,568.797458332032,,,,,,,,,,,,,,565.8403582423925,565.8403582423925,565.8403582423925,565.8403582423925,565.8403582423925,565.8403582423925,left,None,2.9286543373018503,,,,,,,,,,,,,ST01_112822,2022-11-29_09h29.58.226,Hippopolis_Learning,2022.2.2,59.995596359539505,
Camponello,stimuli/subj_files/ST01_112822_cityB.csv,./stimuli/arnedillo.png,./stimuli/street_plate2.png,./stimuli/videos/camponello_part1.mp4,BANÁN UTCA,stimuli/scenes/040a.jpg,scene,0,stimuli/scenes/040a.jpg,stimuli/scenes/039b.jpg,stimuli/scenes/040a.jpg,stimuli/scenes/040b.jpg,stimuli/scenes/039a.jpg,dist2,target,lure,dist1,0,0,0,0,,,,,0,21,21,29,,,,,,,571.8342105802149,,,,,,572.8441151995212,,,,,,,,569.8261017091572,569.8261017091572,569.8261017091572,569.8261017091572,569.8261017091572,569.8261017091572,left,None,1.9665423799306154,,,,,,,,,,,,,ST01_112822,2022-11-29_09h29.58.226,Hippopolis_Learning,2022.2.2,59.995596359539505,
Camponello,stimuli/subj_files/ST01_112822_cityB.csv,./stimuli/arnedillo.png,./stimuli/street_plate2.png,./stimuli/videos/camponello_part1.mp4,BAGOLY UTCA,stimuli/objects/019a.jpg,object,0,stimuli/objects/019a.jpg,stimuli/objects/019a.jpg,stimuli/scenes/002a.jpg,stimuli/objects/019b.jpg,stimuli/scenes/002b.jpg,target,dist1,lure,dist2,0,0,0,0,,,,,0,22,22,41,,,,,,,574.233661280945,,,,,,,,,,,,,,572.8441151995212,572.8441151995212,572.8441151995212,572.8441151995212,572.8441151995212,572.8441151995212,right,None,1.3486286606639624,,,,,,,,,,,,,ST01_112822,2022-11-29_09h29.58.226,Hippopolis_Learning,2022.2.2,59.995596359539505,
Camponello,stimuli/subj_files/ST01_112822_cityB.csv,./stimuli/arnedillo.png,./stimuli/street_plate2.png,./stimuli/videos/camponello_part1.mp4,CSILLAG UTCA,stimuli/scenes/006a.jpg,scene,2,stimuli/objects/082a.jpg,stimuli/scenes/109b.jpg,stimuli/objects/082a.jpg,stimuli/objects/082b.jpg,stimuli/scenes/109a.jpg,dist2,target,lure,dist1,0,0,0,0,,,,,0,23,23,47,,,,,,,577.3064243346453,,,,,,,,,,,,,,575.2607707735151,575.2607707735151,575.2607707735151,575.2607707735151,575.2607707735151,575.2607707735151,right,None,2.0201418437063694,,,,,,,,,,,,,ST01_112822,2022-11-29_09h29.58.226,Hippopolis_Learning,2022.2.2,59.995596359539505,
Camponello,stimuli/subj_files/ST01_112822_cityB.csv,./stimuli/arnedillo.png,./stimuli/street_plate2.png,./stimuli/videos/camponello_part1.mp4,MUNKA UTCA,stimuli/objects/059a.jpg,object,0,stimuli/objects/059a.jpg,stimuli/scenes/115b.jpg,stimuli/scenes/115a.jpg,stimuli/objects/059a.jpg,stimuli/objects/059b.jpg,dist2,dist1,target,lure,0,0,0,0,,,,,0,24,24,1,,,,,,,581.9126435928047,,,,,,,,,,,,,,578.3260765187442,578.3260765187442,578.3260765187442,578.3260765187442,578.3260765187442,578.3260765187442,left,None,3.546400735154748,,,,,,,,,,,,,ST01_112822,2022-11-29_09h29.58.226,Hippopolis_Learning,2022.2.2,59.995596359539505,
Camponello,stimuli/subj_files/ST01_112822_cityB.csv,./stimuli/arnedillo.png,./stimuli/street_plate2.png,./stimuli/videos/camponello_part1.mp4,KALAPÁCS UTCA,stimuli/objects/095a.jpg,object,2,stimuli/scenes/087a.jpg,stimuli/objects/066b.jpg,stimuli/scenes/087a.jpg,stimuli/scenes/087b.jpg,stimuli/objects/066a.jpg,dist2,target,lure,dist1,0,0,0,0,,,,,0,25,25,30,,,,,,,586.5634484142065,,,,,,,,,,,,,,582.9238208513707,582.9238208513707,582.9238208513707,582.9238208513707,582.9238208513707,582.9238208513707,left,None,3.6044507026672363,,,,,,,,,,,,,ST01_112822,2022-11-29_09h29.58.226,Hippopolis_Learning,2022.2.2,59.995596359539505,
Camponello,stimuli/subj_files/ST01_112822_cityB.csv,./stimuli/arnedillo.png,./stimuli/street_plate2.png,./stimuli/videos/camponello_part1.mp4,LÉPCSŐ UTCA,stimuli/objects/060a.jpg,object,0,stimuli/objects/060a.jpg,stimuli/scenes/066b.jpg,stimuli/objects/060a.jpg,stimuli/objects/060b.jpg,stimuli/scenes/066a.jpg,dist2,target,lure,dist1,0,0,0,0,,,,,0,26,26,11,,,,,,,589.504932872951,,,,,,,,,,,,,,587.5928745958954,587.5928745958954,587.5928745958954,587.5928745958954,587.5928745958954,587.5928745958954,right,None,1.8794665019959211,,,,,,,,,,,,,ST01_112822,2022-11-29_09h29.58.226,Hippopolis_Learning,2022.2.2,59.995596359539505,
Camponello,stimuli/subj_files/ST01_112822_cityB.csv,./stimuli/arnedillo.png,./stimuli/street_plate2.png,./stimuli/videos/camponello_part1.mp4,KÖTÉNY UTCA,stimuli/scenes/078a.jpg,scene,0,stimuli/scenes/078a.jpg,stimuli/scenes/078b.jpg,stimuli/objects/041b.jpg,stimuli/scenes/078a.jpg,stimuli/objects/041a.jpg,lure,dist2,target,dist1,0,0,0,0,,,,,0,27,27,35,,,,,,,593.6667398568243,,,,,,,,,,,,,,590.5251035038382,590.5251035038382,590.5251035038382,590.5251035038382,590.5251035038382,590.5251035038382,left,None,3.1072724629193544,,,,,,,,,,,,,ST01_112822,2022-11-29_09h29.58.226,Hippopolis_Learning,2022.2.2,59.995596359539505,
Camponello,stimuli/subj_files/ST01_112822_cityB.csv,./stimuli/arnedillo.png,./stimuli/street_plate2.png,./stimuli/videos/camponello_part1.mp4,TÁSKA UTCA,stimuli/scenes/100a.jpg,scene,0,stimuli/scenes/100a.jpg,stimuli/objects/038b.jpg,stimuli/scenes/100a.jpg,stimuli/objects/038a.jpg,stimuli/scenes/100b.jpg,dist2,target,dist1,lure,0,0,0,0,,,,,0,28,28,56,,,,,,,596.331535924226,,,,,,,,,,,,,,594.6760535668582,594.6760535668582,594.6760535668582,594.6760535668582,594.6760535668582,594.6760535668582,left,None,1.628468481823802,,,,,,,,,,,,,ST01_112822,2022-11-29_09h29.58.226,Hippopolis_Learning,2022.2.2,59.995596359539505,
Camponello,stimuli/subj_files/ST01_112822_cityB.csv,./stimuli/arnedillo.png,./stimuli/street_plate2.png,./stimuli/videos/camponello_part1.mp4,OROSZLÁN UTCA,stimuli/objects/078a.jpg,object,0,stimuli/objects/078a.jpg,stimuli/scenes/104b.jpg,stimuli/scenes/104a.jpg,stimuli/objects/078a.jpg,stimuli/objects/078b.jpg,dist2,dist1,target,lure,0,0,0,0,,,,,0,29,29,0,,,,,,,599.7304417416453,,,,,,,,,,,,,,597.3559959549457,597.3559959549457,597.3559959549457,597.3559959549457,597.3559959549457,597.3559959549457,right,None,2.3403969444334507,,,,,,,,,,,,,ST01_112822,2022-11-29_09h29.58.226,Hippopolis_Learning,2022.2.2,59.995596359539505,
Camponello,stimuli/subj_files/ST01_112822_cityB.csv,./stimuli/arnedillo.png,./stimuli/street_plate2.png,./stimuli/videos/camponello_part1.mp4,MÁLNA UTCA,stimuli/objects/067a.jpg,object,0,stimuli/objects/067a.jpg,stimuli/objects/008b.jpg,stimuli/objects/008a.jpg,stimuli/objects/067a.jpg,stimuli/objects/067b.jpg,dist2,dist1,target,lure,0,0,0,0,,,,,0,30,30,39,,,,,,,604.7567702997476,,,,,,,,,,,,,,600.754040595144,600.754040595144,600.754040595144,600.754040595144,600.754040595144,600.754040595144,None,None,,,,,,,,,,,,,,ST01_112822,2022-11-29_09h29.58.226,Hippopolis_Learning,2022.2.2,59.995596359539505,
Camponello,stimuli/subj_files/ST01_112822_cityB.csv,./stimuli/arnedillo.png,./stimuli/street_plate2.png,./stimuli/videos/camponello_part1.mp4,CITROM UTCA,stimuli/objects/038a.jpg,object,0,stimuli/objects/038a.jpg,stimuli/objects/059b.jpg,stimuli/objects/059a.jpg,stimuli/objects/038b.jpg,stimuli/objects/038a.jpg,dist2,dist1,lure,target,0,0,0,0,,,,,0,31,31,23,,,,,,,608.1175781451166,,,,,,,,,,,,,,605.7728511951864,605.7728511951864,605.7728511951864,605.7728511951864,605.7728511951864,605.7728511951864,left,None,2.3070850502699614,,,,,,,,,,,,,ST01_112822,2022-11-29_09h29.58.226,Hippopolis_Learning,2022.2.2,59.995596359539505,
Camponello,stimuli/subj_files/ST01_112822_cityB.csv,./stimuli/arnedillo.png,./stimuli/street_plate2.png,./stimuli/videos/camponello_part1.mp4,SZŐLŐ UTCA,stimuli/objects/028a.jpg,object,0,stimuli/objects/028a.jpg,stimuli/scenes/101a.jpg,stimuli/objects/028a.jpg,stimuli/objects/028b.jpg,stimuli/scenes/101b.jpg,dist1,target,lure,dist2,0,0,0,0,,,,,0,32,32,43,,,,,,,613.1366512328386,,,,,,,,,,,,,,609.1424303539097,609.1424303539097,609.1424303539097,609.1424303539097,609.1424303539097,609.1424303539097,None,None,,,,,,,,,,,,,,ST01_112822,2022-11-29_09h29.58.226,Hippopolis_Learning,2022.2.2,59.995596359539505,
Camponello,stimuli/subj_files/ST01_112822_cityB.csv,./stimuli/arnedillo.png,./stimuli/street_plate2.png,./stimuli/videos/camponello_part1.mp4,REPÜLŐ UTCA,stimuli/objects/008a.jpg,object,0,stimuli/objects/008a.jpg,stimuli/scenes/120a.jpg,stimuli/scenes/120b.jpg,stimuli/objects/008b.jpg,stimuli/objects/008a.jpg,dist1,dist2,lure,target,0,0,0,0,,,,,0,33,33,20,,,,,,,617.3626661095768,,,,,,,,,,,,,,614.1540231164545,614.1540231164545,614.1540231164545,614.1540231164545,614.1540231164545,614.1540231164545,left,None,3.1586379669606686,,,,,,,,,,,,,ST01_112822,2022-11-29_09h29.58.226,Hippopolis_Learning,2022.2.2,59.995596359539505,
Camponello,stimuli/subj_files/ST01_112822_cityB.csv,./stimuli/arnedillo.png,./stimuli/street_plate2.png,./stimuli/videos/camponello_part1.mp4,NARANCS UTCA,stimuli/objects/042a.jpg,object,0,stimuli/objects/042a.jpg,stimuli/scenes/085b.jpg,stimuli/scenes/085a.jpg,stimuli/objects/042b.jpg,stimuli/objects/042a.jpg,dist2,dist1,lure,target,0,0,0,0,,,,,0,34,34,26,,,,,,,622.3785420525819,,,,,,,,,,,,,,618.3876666687429,618.3876666687429,618.3876666687429,618.3876666687429,618.3876666687429,618.3876666687429,None,None,,,,,,,,,,,,,,ST01_112822,2022-11-29_09h29.58.226,Hippopolis_Learning,2022.2.2,59.995596359539505,
Camponello,stimuli/subj_files/ST01_112822_cityB.csv,./stimuli/arnedillo.png,./stimuli/street_plate2.png,./stimuli/videos/camponello_part1.mp4,HORDÓ UTCA,stimuli/objects/065a.jpg,object,2,stimuli/scenes/016a.jpg,stimuli/scenes/016a.jpg,stimuli/objects/015a.jpg,stimuli/objects/015b.jpg,stimuli/scenes/016b.jpg,target,dist1,dist2,lure,0,0,0,0,,,,,0,35,35,44,,,,,,,625.3516997136176,,,,,,,,,,,,,,623.3982744757086,623.3982744757086,623.3982744757086,623.3982744757086,623.3982744757086,623.3982744757086,left,None,1.914446633309126,,,,,,,,,,,,,ST01_112822,2022-11-29_09h29.58.226,Hippopolis_Learning,2022.2.2,59.995596359539505,
Camponello,stimuli/subj_files/ST01_112822_cityB.csv,./stimuli/arnedillo.png,./stimuli/street_plate2.png,./stimuli/videos/camponello_part1.mp4,FÜGE UTCA,stimuli/objects/045a.jpg,object,0,stimuli/objects/045a.jpg,stimuli/objects/054b.jpg,stimuli/objects/045b.jpg,stimuli/objects/045a.jpg,stimuli/objects/054a.jpg,dist2,lure,target,dist1,0,0,0,0,,,,,0,36,36,74,,,,,,,628.3464832026511,,,,,,,,,,,,,,626.3707096669823,626.3707096669823,626.3707096669823,626.3707096669823,626.3707096669823,626.3707096669823,right,None,1.9496164806187153,,,,,,,,,,,,,ST01_112822,2022-11-29_09h29.58.226,Hippopolis_Learning,2022.2.2,59.995596359539505,
Camponello,stimuli/subj_files/ST01_112822_cityB.csv,./stimuli/arnedillo.png,./stimuli/street_plate2.png,./stimuli/videos/camponello_part1.mp4,BÖGRE UTCA,stimuli/objects/074a.jpg,object,0,stimuli/objects/074a.jpg,stimuli/objects/074a.jpg,stimuli/objects/042b.jpg,stimuli/objects/074b.jpg,stimuli/objects/042a.jpg,target,dist2,lure,dist1,0,0,0,0,,,,,0,37,37,64,,,,,,,631.1390388291329,,,,,,,,,,,,,,629.3687683660537,629.3687683660537,629.3687683660537,629.3687683660537,629.3687683660537,629.3687683660537,left,None,1.7208656817674637,,,,,,,,,,,,,ST01_112822,2022-11-29_09h29.58.226,Hippopolis_Learning,2022.2.2,59.995596359539505,
Camponello,stimuli/subj_files/ST01_112822_cityB.csv,./stimuli/arnedillo.png,./stimuli/street_plate2.png,./stimuli/videos/camponello_part1.mp4,SIRÁLY UTCA,stimuli/objects/112a.jpg,object,0,stimuli/objects/112a.jpg,stimuli/objects/112b.jpg,stimuli/scenes/078a.jpg,stimuli/objects/112a.jpg,stimuli/scenes/078b.jpg,lure,dist1,target,dist2,0,0,0,0,,,,,0,38,38,34,,,,,,,635.1303679719567,,,,,,,,,,,,,,632.1602986045182,632.1602986045182,632.1602986045182,632.1602986045182,632.1602986045182,632.1602986045182,right,None,2.9280565846711397,,,,,,,,,,,,,ST01_112822,2022-11-29_09h29.58.226,Hippopolis_Learning,2022.2.2,59.995596359539505,
Camponello,stimuli/subj_files/ST01_112822_cityB.csv,./stimuli/arnedillo.png,./stimuli/street_plate2.png,./stimuli/videos/camponello_part1.mp4,SIVATAG UTCA,stimuli/scenes/014a.jpg,scene,0,stimuli/scenes/014a.jpg,stimuli/scenes/014b.jpg,stimuli/objects/114a.jpg,stimuli/objects/114b.jpg,stimuli/scenes/014a.jpg,lure,dist1,dist2,target,0,0,0,0,,,,,0,39,39,31,,,,,,,640.1448092423379,,,,,,,,,,,,,,636.140409745276,636.140409745276,636.140409745276,636.140409745276,636.140409745276,636.140409745276,None,None,,,,,,,,,,,,,,ST01_112822,2022-11-29_09h29.58.226,Hippopolis_Learning,2022.2.2,59.995596359539505,
Camponello,stimuli/subj_files/ST01_112822_cityB.csv,./stimuli/arnedillo.png,./stimuli/street_plate2.png,./stimuli/videos/camponello_part1.mp4,KAKAS UTCA,stimuli/scenes/028a.jpg,scene,2,stimuli/objects/037a.jpg,stimuli/objects/037a.jpg,stimuli/objects/037b.jpg,stimuli/objects/046b.jpg,stimuli/objects/046a.jpg,target,lure,dist2,dist1,0,0,0,0,,,,,0,40,40,45,,,,,,,642.9538161735982,,,,,,,,,,,,,,641.1560605205595,641.1560605205595,641.1560605205595,641.1560605205595,641.1560605205595,641.1560605205595,left,None,1.7563197873532772,,,,,,,,,,,,,ST01_112822,2022-11-29_09h29.58.226,Hippopolis_Learning,2022.2.2,59.995596359539505,
Camponello,stimuli/subj_files/ST01_112822_cityB.csv,./stimuli/arnedillo.png,./stimuli/street_plate2.png,./stimuli/videos/camponello_part1.mp4,KESZTYŰ UTCA,stimuli/objects/103a.jpg,object,2,stimuli/scenes/041a.jpg,stimuli/scenes/041a.jpg,stimuli/scenes/063b.jpg,stimuli/scenes/063a.jpg,stimuli/scenes/041b.jpg,target,dist2,dist1,lure,0,0,0,0,,,,,0,41,41,7,,,,,,,645.7536250911653,,,,,,,,,,,,,,643.9760988485068,643.9760988485068,643.9760988485068,643.9760988485068,643.9760988485068,643.9760988485068,left,None,1.7363858334720135,,,,,,,,,,,,,ST01_112822,2022-11-29_09h29.58.226,Hippopolis_Learning,2022.2.2,59.995596359539505,
Camponello,stimuli/subj_files/ST01_112822_cityB.csv,./stimuli/arnedillo.png,./stimuli/street_plate2.png,./stimuli/videos/camponello_part1.mp4,KECSKE UTCA,stimuli/scenes/025a.jpg,scene,0,stimuli/scenes/025a.jpg,stimuli/scenes/004b.jpg,stimuli/scenes/025a.jpg,stimuli/scenes/025b.jpg,stimuli/scenes/004a.jpg,dist2,target,lure,dist1,0,0,0,0,,,,,0,42,42,9,,,,,,,650.4082279242575,,,,,,,,,,,,,,646.7754546292126,646.7754546292126,646.7754546292126,646.7754546292126,646.7754546292126,646.7754546292126,right,None,3.5926906168460846,,,,,,,,,,,,,ST01_112822,2022-11-29_09h29.58.226,Hippopolis_Learning,2022.2.2,59.995596359539505,
Camponello,stimuli/subj_files/ST01_112822_cityB.csv,./stimuli/arnedillo.png,./stimuli/street_plate2.png,./stimuli/videos/camponello_part1.mp4,SZILVA UTCA,stimuli/scenes/104a.jpg,scene,0,stimuli/scenes/104a.jpg,stimuli/objects/088b.jpg,stimuli/scenes/104b.jpg,stimuli/objects/088a.jpg,stimuli/scenes/104a.jpg,dist2,lure,dist1,target,0,0,0,0,,,,,0,43,43,16,,,,,,,654.2634983006865,,,,,,655.281400449574,,,,,,,,651.423263527453,651.423263527453,651.423263527453,651.423263527453,651.423263527453,651.423263527453,left,None,2.8001010920852423,,,,,,,,,,,,,ST01_112822,2022-11-29_09h29.58.226,Hippopolis_Learning,2022.2.2,59.995596359539505,
Camponello,stimuli/subj_files/ST01_112822_cityB.csv,./stimuli/arnedillo.png,./stimuli/street_plate2.png,./stimuli/videos/camponello_part1.mp4,ASZTAL UTCA,stimuli/scenes/024a.jpg,scene,2,stimuli/objects/066a.jpg,stimuli/objects/061b.jpg,stimuli/objects/066b.jpg,stimuli/objects/061a.jpg,stimuli/objects/066a.jpg,dist2,lure,dist1,target,0,0,0,0,,,,,0,44,44,70,,,,,,,658.0884953141212,,,,,,,,,,,,,,655.281400449574,655.281400449574,655.281400449574,655.281400449574,655.281400449574,655.281400449574,right,None,2.765977470204234,,,,,,,,,,,,,ST01_112822,2022-11-29_09h29.58.226,Hippopolis_Learning,2022.2.2,59.995596359539505,
Camponello,stimuli/subj_files/ST01_112822_cityB.csv,./stimuli/arnedillo.png,./stimuli/street_plate2.png,./stimuli/videos/camponello_part1.mp4,TENISZ UTCA,stimuli/scenes/043a.jpg,scene,1,stimuli/scenes/003a.jpg,stimuli/scenes/003b.jpg,stimuli/scenes/003a.jpg,stimuli/objects/110b.jpg,stimuli/objects/110a.jpg,lure,target,dist2,dist1,0,0,0,0,,,,,0,45,45,78,,,,,,,661.5657427087426,,,,,,,,,,,,,,659.1146951150149,659.1146951150149,659.1146951150149,659.1146951150149,659.1146951150149,659.1146951150149,right,None,2.40467294678092,,,,,,,,,,,,,ST01_112822,2022-11-29_09h29.58.226,Hippopolis_Learning,2022.2.2,59.995596359539505,
Camponello,stimuli/subj_files/ST01_112822_cityB.csv,./stimuli/arnedillo.png,./stimuli/street_plate2.png,./stimuli/videos/camponello_part1.mp4,KORONA UTCA,stimuli/scenes/080a.jpg,scene,0,stimuli/scenes/080a.jpg,stimuli/scenes/012a.jpg,stimuli/scenes/012b.jpg,stimuli/scenes/080a.jpg,stimuli/scenes/080b.jpg,dist1,dist2,target,lure,0,0,0,0,,,,,0,46,46,36,,,,,,,666.5775960963219,,,,,,,,,,,,,,662.5934925656766,662.5934925656766,662.5934925656766,662.5934925656766,662.5934925656766,662.5934925656766,None,None,,,,,,,,,,,,,,ST01_112822,2022-11-29_09h29.58.226,Hippopolis_Learning,2022.2.2,59.995596359539505,
Camponello,stimuli/subj_files/ST01_112822_cityB.csv,./stimuli/arnedillo.png,./stimuli/street_plate2.png,./stimuli/videos/camponello_part1.mp4,TALICSKA UTCA,stimuli/scenes/050a.jpg,scene,1,stimuli/scenes/099a.jpg,stimuli/objects/001b.jpg,stimuli/scenes/099a.jpg,stimuli/scenes/099b.jpg,stimuli/objects/001a.jpg,dist2,target,lure,dist1,0,0,0,0,,,,,0,47,47,24,,,,,,,669.6455802265555,,,,,,,,,,,,,,667.5978609602898,667.5978609602898,667.5978609602898,667.5978609602898,667.5978609602898,667.5978609602898,left,None,2.018297266215086,,,,,,,,,,,,,ST01_112822,2022-11-29_09h29.58.226,Hippopolis_Learning,2022.2.2,59.995596359539505,
Camponello,stimuli/subj_files/ST01_112822_cityB.csv,./stimuli/arnedillo.png,./stimuli/street_plate2.png,./stimuli/videos/camponello_part1.mp4,CSAVAR UTCA,stimuli/objects/049a.jpg,object,1,stimuli/objects/063a.jpg,stimuli/objects/113b.jpg,stimuli/objects/063b.jpg,stimuli/objects/063a.jpg,stimuli/objects/113a.jpg,dist2,lure,target,dist1,0,0,0,0,,,,,0,48,48,55,,,,,,,672.4464698918164,,,,,,,,,,,,,,670.6671995259821,670.6671995259821,670.6671995259821,670.6671995259821,670.6671995259821,670.6671995259821,left,None,1.748900730162859,,,,,,,,,,,,,ST01_112822,2022-11-29_09h29.58.226,Hippopolis_Learning,2022.2.2,59.995596359539505,
Camponello,stimuli/subj_files/ST01_112822_cityB.csv,./stimuli/arnedillo.png,./stimuli/street_plate2.png,./stimuli/videos/camponello_part1.mp4,TORONY UTCA,stimuli/scenes/120a.jpg,scene,0,stimuli/scenes/120a.jpg,stimuli/scenes/120a.jpg,stimuli/scenes/034a.jpg,stimuli/scenes/034b.jpg,stimuli/scenes/120b.jpg,target,dist1,dist2,lure,0,0,0,0,,,,,0,49,49,59,,,,,,,675.4915384501219,,,,,,,,,,,,,,673.4753726478666,673.4753726478666,673.4753726478666,673.4753726478666,673.4753726478666,673.4753726478666,left,None,1.9807659480720758,,,,,,,,,,,,,ST01_112822,2022-11-29_09h29.58.226,Hippopolis_Learning,2022.2.2,59.995596359539505,
Camponello,stimuli/subj_files/ST01_112822_cityB.csv,./stimuli/arnedillo.png,./stimuli/street_plate2.png,./stimuli/videos/camponello_part1.mp4,TOJÁS UTCA,stimuli/objects/012a.jpg,object,0,stimuli/objects/012a.jpg,stimuli/objects/011a.jpg,stimuli/objects/012a.jpg,stimuli/objects/012b.jpg,stimuli/objects/011b.jpg,dist1,target,lure,dist2,0,0,0,0,,,,,0,50,50,27,,,,,,,678.910009989515,,,,,,,,,,,,,,676.5256574060768,676.5256574060768,676.5256574060768,676.5256574060768,676.5256574060768,676.5256574060768,left,None,2.3544311076402664,,,,,,,,,,,,,ST01_112822,2022-11-29_09h29.58.226,Hippopolis_Learning,2022.2.2,59.995596359539505,
Camponello,stimuli/subj_files/ST01_112822_cityB.csv,./stimuli/arnedillo.png,./stimuli/street_plate2.png,./stimuli/videos/camponello_part1.mp4,SZOBOR UTCA,stimuli/objects/114a.jpg,object,0,stimuli/objects/114a.jpg,stimuli/objects/099b.jpg,stimuli/objects/099a.jpg,stimuli/objects/114a.jpg,stimuli/objects/114b.jpg,dist2,dist1,target,lure,0,0,0,0,,,,,0,51,51,10,,,,,,,681.2352219093591,,,,,,,,,,,,,,679.9328555874527,679.9328555874527,679.9328555874527,679.9328555874527,679.9328555874527,679.9328555874527,right,None,1.2662685718387365,,,,,,,,,,,,,ST01_112822,2022-11-29_09h29.58.226,Hippopolis_Learning,2022.2.2,59.995596359539505,
Camponello,stimuli/subj_files/ST01_112822_cityB.csv,./stimuli/arnedillo.png,./stimuli/street_plate2.png,./stimuli/videos/camponello_part1.mp4,GYŰRŰ UTCA,stimuli/scenes/022a.jpg,scene,1,stimuli/scenes/058a.jpg,stimuli/scenes/099b.jpg,stimuli/scenes/099a.jpg,stimuli/scenes/058a.jpg,stimuli/scenes/058b.jpg,dist2,dist1,target,lure,0,0,0,0,,,,,0,52,52,72,,,,,,,683.9302832521498,,,,,,684.9490456469357,,,,,,,,682.2536608576775,682.2536608576775,682.2536608576775,682.2536608576775,682.2536608576775,682.2536608576775,left,None,1.650458188727498,,,,,,,,,,,,,ST01_112822,2022-11-29_09h29.58.226,Hippopolis_Learning,2022.2.2,59.995596359539505,
Camponello,stimuli/subj_files/ST01_112822_cityB.csv,./stimuli/arnedillo.png,./stimuli/street_plate2.png,./stimuli/videos/camponello_part1.mp4,FÉSŰ UTCA,stimuli/scenes/001a.jpg,scene,2,stimuli/objects/015a.jpg,stimuli/scenes/041a.jpg,stimuli/scenes/041b.jpg,stimuli/objects/015a.jpg,stimuli/objects/015b.jpg,dist1,dist2,target,lure,0,0,0,0,,,,,0,53,53,57,,,,,,,686.6984457150102,,,,,,687.7072627469897,,,,,,,,684.9490456469357,684.9490456469357,684.9490456469357,684.9490456469357,684.9490456469357,684.9490456469357,right,None,1.7221492044627666,,,,,,,,,,,,,ST01_112822,2022-11-29_09h29.58.226,Hippopolis_Learning,2022.2.2,59.995596359539505,
Camponello,stimuli/subj_files/ST01_112822_cityB.csv,./stimuli/arnedillo.png,./stimuli/street_plate2.png,./stimuli/videos/camponello_part1.mp4,BONBON UTCA,stimuli/objects/041a.jpg,object,0,stimuli/objects/041a.jpg,stimuli/scenes/079a.jpg,stimuli/scenes/079b.jpg,stimuli/objects/041a.jpg,stimuli/objects/041b.jpg,dist1,dist2,target,lure,0,0,0,0,,,,,0,54,54,4,,,,,,,690.1424801144749,,,,,,,,,,,,,,687.7072627469897,687.7072627469897,687.7072627469897,687.7072627469897,687.7072627469897,687.7072627469897,right,None,2.4045277051627636,,,,,,,,,,,,,ST01_112822,2022-11-29_09h29.58.226,Hippopolis_Learning,2022.2.2,59.995596359539505,
Camponello,stimuli/subj_files/ST01_112822_cityB.csv,./stimuli/arnedillo.png,./stimuli/street_plate2.png,./stimuli/videos/camponello_part1.mp4,ÁLOM UTCA,stimuli/scenes/017a.jpg,scene,0,stimuli/scenes/017a.jpg,stimuli/scenes/017a.jpg,stimuli/objects/078b.jpg,stimuli/objects/078a.jpg,stimuli/scenes/017b.jpg,target,dist2,dist1,lure,0,0,0,0,,,,,0,55,55,3,,,,,,,693.0937933083624,,,,,,,,,,,,,,691.1552282664925,691.1552282664925,691.1552282664925,691.1552282664925,691.1552282664925,691.1552282664925,left,None,1.9004345517605543,,,,,,,,,,,,,ST01_112822,2022-11-29_09h29.58.226,Hippopolis_Learning,2022.2.2,59.995596359539505,
Camponello,stimuli/subj_files/ST01_112822_cityB.csv,./stimuli/arnedillo.png,./stimuli/street_plate2.png,./stimuli/videos/camponello_part1.mp4,KÖNYVTÁR UTCA,stimuli/objects/099a.jpg,object,0,stimuli/objects/099a.jpg,stimuli/objects/099a.jpg,stimuli/objects/026a.jpg,stimuli/objects/026b.jpg,stimuli/objects/099b.jpg,target,dist1,dist2,lure,0,0,0,0,,,,,0,56,56,52,,,,,,,696.4452809151262,,,,,,,,,,,,,,694.1236654724926,694.1236654724926,694.1236654724926,694.1236654724926,694.1236654724926,694.1236654724926,left,None,2.2753667533397675,,,,,,,,,,,,,ST01_112822,2022-11-29_09h29.58.226,Hippopolis_Learning,2022.2.2,59.995596359539505,
Camponello,stimuli/subj_files/ST01_112822_cityB.csv,./stimuli/arnedillo.png,./stimuli/street_plate2.png,./stimuli/videos/camponello_part1.mp4,SALÁTA UTCA,stimuli/objects/058a.jpg,object,1,stimuli/objects/001a.jpg,stimuli/objects/001a.jpg,stimuli/objects/007b.jpg,stimuli/objects/001b.jpg,stimuli/objects/007a.jpg,target,dist2,lure,dist1,0,0,0,0,,,,,0,57,57,5,,,,,,,699.5709707271308,,,,,,,,,,,,,,697.4590336177498,697.4590336177498,697.4590336177498,697.4590336177498,697.4590336177498,697.4590336177498,right,None,2.0767885483801365,,,,,,,,,,,,,ST01_112822,2022-11-29_09h29.58.226,Hippopolis_Learning,2022.2.2,59.995596359539505,
Camponello,stimuli/subj_files/ST01_112822_cityB.csv,./stimuli/arnedillo.png,./stimuli/street_plate2.png,./stimuli/videos/camponello_part1.mp4,HAJÓ UTCA,stimuli/scenes/037a.jpg,scene,0,stimuli/scenes/037a.jpg,stimuli/objects/028a.jpg,stimuli/scenes/037b.jpg,stimuli/scenes/037a.jpg,stimuli/objects/028b.jpg,dist1,lure,target,dist2,0,0,0,0,,,,,0,58,58,17,,,,,,,703.4906999766827,,,,,,,,,,,,,,700.5956724099815,700.5956724099815,700.5956724099815,700.5956724099815,700.5956724099815,700.5956724099815,left,None,2.860017094761133,,,,,,,,,,,,,ST01_112822,2022-11-29_09h29.58.226,Hippopolis_Learning,2022.2.2,59.995596359539505,
Camponello,stimuli/subj_files/ST01_112822_cityB.csv,./stimuli/arnedillo.png,./stimuli/street_plate2.png,./stimuli/videos/camponello_part1.mp4,TÁNYÉR UTCA,stimuli/objects/005a.jpg,object,1,stimuli/objects/035a.jpg,stimuli/objects/035a.jpg,stimuli/scenes/058a.jpg,stimuli/scenes/058b.jpg,stimuli/objects/035b.jpg,target,dist1,dist2,lure,0,0,0,0,,,,,0,59,59,32,,,,,,,706.5581650380045,,,,,,,,,,,,,,704.50273312442,704.50273312442,704.50273312442,704.50273312442,704.50273312442,704.50273312442,left,None,2.008264511823654,,,,,,,,,,,,,ST01_112822,2022-11-29_09h29.58.226,Hippopolis_Learning,2022.2.2,59.995596359539505,
Camponello,stimuli/subj_files/ST01_112822_cityB.csv,./stimuli/arnedillo.png,./stimuli/street_plate2.png,./stimuli/videos/camponello_part1.mp4,BÚJÓCSKA UTCA,stimuli/scenes/092a.jpg,scene,0,stimuli/scenes/092a.jpg,stimuli/scenes/092b.jpg,stimuli/scenes/106a.jpg,stimuli/scenes/092a.jpg,stimuli/scenes/106b.jpg,lure,dist1,target,dist2,0,0,0,0,,,,,0,60,60,61,,,,,,,710.0808660164475,,,,,,,,,,,,,,707.574919262901,707.574919262901,707.574919262901,707.574919262901,707.574919262901,707.574919262901,right,None,2.472801074385643,,,,,,,,,,,,,ST01_112822,2022-11-29_09h29.58.226,Hippopolis_Learning,2022.2.2,59.995596359539505,
Camponello,stimuli/subj_files/ST01_112822_cityB.csv,./stimuli/arnedillo.png,./stimuli/street_plate2.png,./stimuli/videos/camponello_part1.mp4,ZÁSZLÓ UTCA,stimuli/scenes/079a.jpg,scene,0,stimuli/scenes/079a.jpg,stimuli/objects/112a.jpg,stimuli/scenes/079b.jpg,stimuli/objects/112b.jpg,stimuli/scenes/079a.jpg,dist1,lure,dist2,target,0,0,0,0,,,,,0,61,61,63,,,,,,,713.6212159860879,,,,,,,,,,,,,,711.1088736969978,711.1088736969978,711.1088736969978,711.1088736969978,711.1088736969978,711.1088736969978,right,None,2.474272133782506,,,,,,,,,,,,,ST01_112822,2022-11-29_09h29.58.226,Hippopolis_Learning,2022.2.2,59.995596359539505,
Camponello,stimuli/subj_files/ST01_112822_cityB.csv,./stimuli/arnedillo.png,./stimuli/street_plate2.png,./stimuli/videos/camponello_part1.mp4,PÁLMAFA UTCA,stimuli/scenes/015a.jpg,scene,1,stimuli/scenes/089a.jpg,stimuli/scenes/051b.jpg,stimuli/scenes/051a.jpg,stimuli/scenes/089b.jpg,stimuli/scenes/089a.jpg,dist2,dist1,lure,target,0,0,0,0,,,,,0,62,62,46,,,,,,,717.5527665894479,,,,,,,,,,,,,,714.6396303642541,714.6396303642541,714.6396303642541,714.6396303642541,714.6396303642541,714.6396303642541,left,None,2.879027672111988,,,,,,,,,,,,,ST01_112822,2022-11-29_09h29.58.226,Hippopolis_Learning,2022.2.2,59.995596359539505,
Camponello,stimuli/subj_files/ST01_112822_cityB.csv,./stimuli/arnedillo.png,./stimuli/street_plate2.png,./stimuli/videos/camponello_part1.mp4,TIGRIS UTCA,stimuli/objects/016a.jpg,object,1,stimuli/objects/113a.jpg,stimuli/objects/113a.jpg,stimuli/objects/113b.jpg,stimuli/objects/063a.jpg,stimuli/objects/063b.jpg,target,lure,dist1,dist2,0,0,0,0,,,,,0,63,63,18,,,,,,,728.699292274192,,,,,,,,,,,,,,718.5754852946848,718.5754852946848,718.5754852946848,718.5754852946848,718.5754852946848,718.5754852946848,right,space,1.776035726070404,720.3859001528472,720.3859001528472,720.3859001528472,720.3859001528472,720.3859001528472,8.285005152225494,,,,,,,ST01_112822,2022-11-29_09h29.58.226,Hippopolis_Learning,2022.2.2,59.995596359539505,
Camponello,stimuli/subj_files/ST01_112822_cityB.csv,./stimuli/arnedillo.png,./stimuli/street_plate2.png,./stimuli/videos/camponello_part1.mp4,KORONG UTCA,stimuli/scenes/011a.jpg,scene,0,stimuli/scenes/011a.jpg,stimuli/objects/060b.jpg,stimuli/scenes/011b.jpg,stimuli/scenes/011a.jpg,stimuli/objects/060a.jpg,dist2,lure,target,dist1,0,0,0,0,,,,,0,64,64,53,,,,,,,731.2452310286462,,,,,,,,,,,,,,729.7242206819355,729.7242206819355,729.7242206819355,729.7242206819355,729.7242206819355,729.7242206819355,left,None,1.4909993018954992,,,,,,,,,,,,,ST01_112822,2022-11-29_09h29.58.226,Hippopolis_Learning,2022.2.2,59.995596359539505,
Camponello,stimuli/subj_files/ST01_112822_cityB.csv,./stimuli/arnedillo.png,./stimuli/street_plate2.png,./stimuli/videos/camponello_part1.mp4,FOGAS UTCA,stimuli/scenes/113a.jpg,scene,0,stimuli/scenes/113a.jpg,stimuli/objects/010a.jpg,stimuli/objects/010b.jpg,stimuli/scenes/113b.jpg,stimuli/scenes/113a.jpg,dist1,dist2,lure,target,0,0,0,0,,,,,0,65,65,69,,,,,,,735.2002386674285,,,,,,,,,,,,,,732.2789932601154,732.2789932601154,732.2789932601154,732.2789932601154,732.2789932601154,732.2789932601154,right,None,2.887645658105612,,,,,,,,,,,,,ST01_112822,2022-11-29_09h29.58.226,Hippopolis_Learning,2022.2.2,59.995596359539505,
Camponello,stimuli/subj_files/ST01_112822_cityB.csv,./stimuli/arnedillo.png,./stimuli/street_plate2.png,./stimuli/videos/camponello_part1.mp4,PAPAGÁJ UTCA,stimuli/scenes/002a.jpg,scene,0,stimuli/scenes/002a.jpg,stimuli/objects/045a.jpg,stimuli/objects/045b.jpg,stimuli/scenes/002b.jpg,stimuli/scenes/002a.jpg,dist1,dist2,lure,target,0,0,0,0,,,,,0,66,66,19,,,,,,,739.4824023265392,,,,,,,,,,,,,,736.2099311817437,736.2099311817437,736.2099311817437,736.2099311817437,736.2099311817437,736.2099311817437,right,None,3.2289922777563334,,,,,,,,,,,,,ST01_112822,2022-11-29_09h29.58.226,Hippopolis_Learning,2022.2.2,59.995596359539505,
Camponello,stimuli/subj_files/ST01_112822_cityB.csv,./stimuli/arnedillo.png,./stimuli/street_plate2.png,./stimuli/videos/camponello_part1.mp4,TISZTÁS UTCA,stimuli/scenes/054a.jpg,scene,0,stimuli/scenes/054a.jpg,stimuli/objects/019b.jpg,stimuli/scenes/054a.jpg,stimuli/scenes/054b.jpg,stimuli/objects/019a.jpg,dist2,target,lure,dist1,0,0,0,0,,,,,0,67,67,15,,,,,,,744.495900625363,,,,,,,,,,,,,,740.4932878613472,740.4932878613472,740.4932878613472,740.4932878613472,740.4932878613472,740.4932878613472,None,None,,,,,,,,,,,,,,ST01_112822,2022-11-29_09h29.58.226,Hippopolis_Learning,2022.2.2,59.995596359539505,
Camponello,stimuli/subj_files/ST01_112822_cityB.csv,./stimuli/arnedillo.png,./stimuli/street_plate2.png,./stimuli/videos/camponello_part1.mp4,ECSET UTCA,stimuli/objects/100a.jpg,object,2,stimuli/scenes/019a.jpg,stimuli/scenes/087b.jpg,stimuli/scenes/087a.jpg,stimuli/scenes/019a.jpg,stimuli/scenes/019b.jpg,dist2,dist1,target,lure,0,0,0,0,,,,,0,68,68,60,,,,,,,747.3801841661334,,,,,,,,,,,,,,745.5233656000346,745.5233656000346,745.5233656000346,745.5233656000346,745.5233656000346,745.5233656000346,left,None,1.819089274853468,,,,,,,,,,,,,ST01_112822,2022-11-29_09h29.58.226,Hippopolis_Learning,2022.2.2,59.995596359539505,
Camponello,stimuli/subj_files/ST01_112822_cityB.csv,./stimuli/arnedillo.png,./stimuli/street_plate2.png,./stimuli/videos/camponello_part1.mp4,LIGET UTCA,stimuli/scenes/085a.jpg,scene,0,stimuli/scenes/085a.jpg,stimuli/scenes/085b.jpg,stimuli/objects/074a.jpg,stimuli/objects/074b.jpg,stimuli/scenes/085a.jpg,lure,dist1,dist2,target,0,0,0,0,,,,,0,69,69,38,,,,,,,751.6613093744963,,,,,,,,,,,,,,748.4019036088139,748.4019036088139,748.4019036088139,748.4019036088139,748.4019036088139,748.4019036088139,left,None,3.228700242936611,,,,,,,,,,,,,ST01_112822,2022-11-29_09h29.58.226,Hippopolis_Learning,2022.2.2,59.995596359539505,
Camponello,stimuli/subj_files/ST01_112822_cityB.csv,./stimuli/arnedillo.png,./stimuli/street_plate2.png,./stimuli/videos/camponello_part1.mp4,LEGELŐ UTCA,stimuli/scenes/053a.jpg,scene,1,stimuli/scenes/119a.jpg,stimuli/scenes/119b.jpg,stimuli/scenes/089b.jpg,stimuli/scenes/089a.jpg,stimuli/scenes/119a.jpg,lure,dist2,dist1,target,0,0,0,0,,,,,0,70,70,77,,,,,,,755.2059882432222,,,,,,,,,,,,,,752.6855834238231,752.6855834238231,752.6855834238231,752.6855834238231,752.6855834238231,752.6855834238231,left,None,2.481006044894457,,,,,,,,,,,,,ST01_112822,2022-11-29_09h29.58.226,Hippopolis_Learning,2022.2.2,59.995596359539505,
Camponello,stimuli/subj_files/ST01_112822_cityB.csv,./stimuli/arnedillo.png,./stimuli/street_plate2.png,./stimuli/videos/camponello_part1.mp4,POLIP UTCA,stimuli/objects/025a.jpg,object,0,stimuli/objects/025a.jpg,stimuli/objects/025b.jpg,stimuli/objects/025a.jpg,stimuli/scenes/040b.jpg,stimuli/scenes/040a.jpg,lure,target,dist2,dist1,0,0,0,0,,,,,0,71,71,25,,,,,,,757.6451211813837,,,,,,,,,,,,,,756.2268440201879,756.2268440201879,756.2268440201879,756.2268440201879,756.2268440201879,756.2268440201879,left,None,1.387456877157092,,,,,,,,,,,,,ST01_112822,2022-11-29_09h29.58.226,Hippopolis_Learning,2022.2.2,59.995596359539505,
Camponello,stimuli/subj_files/ST01_112822_cityB.csv,./stimuli/arnedillo.png,./stimuli/street_plate2.png,./stimuli/videos/camponello_part1.mp4,KRÉTA UTCA,stimuli/scenes/066a.jpg,scene,0,stimuli/scenes/066a.jpg,stimuli/objects/094a.jpg,stimuli/scenes/066b.jpg,stimuli/objects/094b.jpg,stimuli/scenes/066a.jpg,dist1,lure,dist2,target,0,0,0,0,,,,,0,72,72,22,,,,,,,760.7782365828753,,,,,,761.7930296007544,,,,,,,,758.6750350203365,758.6750350203365,758.6750350203365,758.6750350203365,758.6750350203365,758.6750350203365,right,None,2.07506744004786,,,,,,,,,,,,,ST01_112822,2022-11-29_09h29.58.226,Hippopolis_Learning,2022.2.2,59.995596359539505,
Camponello,stimuli/subj_files/ST01_112822_cityB.csv,./stimuli/arnedillo.png,./stimuli/street_plate2.png,./stimuli/videos/camponello_part1.mp4,PÁFRÁNY UTCA,stimuli/objects/030a.jpg,object,0,stimuli/objects/030a.jpg,stimuli/objects/030a.jpg,stimuli/objects/030b.jpg,stimuli/scenes/036a.jpg,stimuli/scenes/036b.jpg,target,lure,dist1,dist2,0,0,0,0,,,,,0,73,73,67,,,,,,,763.0976006481797,,,,,,,,,,,,,,761.7930296007544,761.7930296007544,761.7930296007544,761.7930296007544,761.7930296007544,761.7930296007544,left,None,1.261177396401763,,,,,,,,,,,,,ST01_112822,2022-11-29_09h29.58.226,Hippopolis_Learning,2022.2.2,59.995596359539505,
Camponello,stimuli/subj_files/ST01_112822_cityB.csv,./stimuli/arnedillo.png,./stimuli/street_plate2.png,./stimuli/videos/camponello_part1.mp4,KERET UTCA,stimuli/scenes/012a.jpg,scene,0,stimuli/scenes/012a.jpg,stimuli/scenes/012a.jpg,stimuli/scenes/011b.jpg,stimuli/scenes/011a.jpg,stimuli/scenes/012b.jpg,target,dist2,dist1,lure,0,0,0,0,,,,,0,74,74,2,,,,,,,766.044795807451,,,,,,767.0592647567391,,,,,,,,764.1209951713681,764.1209951713681,764.1209951713681,764.1209951713681,764.1209951713681,764.1209951713681,left,None,1.89313181117177,,,,,,,,,,,,,ST01_112822,2022-11-29_09h29.58.226,Hippopolis_Learning,2022.2.2,59.995596359539505,
Camponello,stimuli/subj_files/ST01_112822_cityB.csv,./stimuli/arnedillo.png,./stimuli/street_plate2.png,./stimuli/videos/camponello_part1.mp4,HORGONY UTCA,stimuli/objects/105a.jpg,object,0,stimuli/objects/105a.jpg,stimuli/objects/105a.jpg,stimuli/scenes/017a.jpg,stimuli/scenes/017b.jpg,stimuli/objects/105b.jpg,target,dist1,dist2,lure,0,0,0,0,,,,,0,75,75,75,,,,,,,769.6892368160188,,,,,,,,,,,,,,767.0592647567391,767.0592647567391,767.0592647567391,767.0592647567391,767.0592647567391,767.0592647567391,right,None,2.587578294798732,,,,,,,,,,,,,ST01_112822,2022-11-29_09h29.58.226,Hippopolis_Learning,2022.2.2,59.995596359539505,
Camponello,stimuli/subj_files/ST01_112822_cityB.csv,./stimuli/arnedillo.png,./stimuli/street_plate2.png,./stimuli/videos/camponello_part1.mp4,LOVAGLÁS UTCA,stimuli/objects/047a.jpg,object,0,stimuli/objects/047a.jpg,stimuli/objects/047a.jpg,stimuli/objects/030b.jpg,stimuli/objects/030a.jpg,stimuli/objects/047b.jpg,target,dist2,dist1,lure,0,0,0,0,,,,,0,76,76,14,,,,,,,771.9022768158466,,,,,,,,,,,,,,770.7084834463894,770.7084834463894,770.7084834463894,770.7084834463894,770.7084834463894,770.7084834463894,left,None,1.1622409764677286,,,,,,,,,,,,,ST01_112822,2022-11-29_09h29.58.226,Hippopolis_Learning,2022.2.2,59.995596359539505,
Camponello,stimuli/subj_files/ST01_112822_cityB.csv,./stimuli/arnedillo.png,./stimuli/street_plate2.png,./stimuli/videos/camponello_part1.mp4,PIZSAMA UTCA,stimuli/objects/088a.jpg,object,0,stimuli/objects/088a.jpg,stimuli/objects/088a.jpg,stimuli/objects/047a.jpg,stimuli/objects/047b.jpg,stimuli/objects/088b.jpg,target,dist1,dist2,lure,0,0,0,0,,,,,0,77,77,33,,,,,,,775.2508468721062,,,,,,,,,,,,,,772.9205415993929,772.9205415993929,772.9205415993929,772.9205415993929,772.9205415993929,772.9205415993929,left,None,2.294200988486409,,,,,,,,,,,,,ST01_112822,2022-11-29_09h29.58.226,Hippopolis_Learning,2022.2.2,59.995596359539505,
Camponello,stimuli/subj_files/ST01_112822_cityB.csv,./stimuli/arnedillo.png,./stimuli/street_plate2.png,./stimuli/videos/camponello_part1.mp4,MOCSÁR UTCA,stimuli/objects/057a.jpg,object,0,stimuli/objects/057a.jpg,stimuli/objects/067a.jpg,stimuli/objects/067b.jpg,stimuli/objects/057b.jpg,stimuli/objects/057a.jpg,dist1,dist2,lure,target,0,0,0,0,,,,,0,78,78,21,,,,,,,784.5167822167277,,,,,,,,,,,,,,776.278047490865,776.278047490865,776.278047490865,776.278047490865,776.278047490865,776.278047490865,right,space,2.008205108344555,778.314619353041,778.314619353041,778.314619353041,778.314619353041,778.314619353041,6.179663242772222,,,,,,,ST01_112822,2022-11-29_09h29.58.226,Hippopolis_Learning,2022.2.2,59.995596359539505,
Camponello,stimuli/subj_files/ST01_112822_cityB.csv,./stimuli/arnedillo.png,./stimuli/street_plate2.png,./stimuli/videos/camponello_part1.mp4,KATONA UTCA,stimuli/scenes/034a.jpg,scene,0,stimuli/scenes/034a.jpg,stimuli/scenes/092b.jpg,stimuli/scenes/034b.jpg,stimuli/scenes/034a.jpg,stimuli/scenes/092a.jpg,dist2,lure,target,dist1,0,0,0,0,,,,,0,79,79,51,,,,,,,787.5292840525508,,,,,,788.5306552797556,,,,,,,,785.5483471881598,785.5483471881598,785.5483471881598,785.5483471881598,785.5483471881598,785.5483471881598,right,None,1.9539220537990332,,,,,,,,,,,,,ST01_112822,2022-11-29_09h29.58.226,Hippopolis_Learning,2022.2.2,59.995596359539505,
Hippopolis,stimuli/subj_files/ST01_112822_cityA.csv,./stimuli/seattle.jpg,./stimuli/street_plate1.png,./stimuli/videos/hippopolis_part1.mp4,TRIATLON UTCA,stimuli/objects/024a.jpg,object,0,stimuli/objects/024a.jpg,stimuli/scenes/069b.jpg,stimuli/objects/024a.jpg,stimuli/objects/024b.jpg,stimuli/scenes/069a.jpg,dist2,target,lure,dist1,0,1,1,1,0,0,0,17,,,,,,,,,796.4729542639107,796.4729542639107,799.4771264139563,800.5065575707704,800.5065575707704,800.5065575707704,800.5065575707704,None,,,,,,,,,,,,,,,,,,,,,,,,33,788.5306552797556,788.5306552797556,space,7.883181471377611,,ST01_112822,2022-11-29_09h29.58.226,Hippopolis_Learning,2022.2.2,59.995596359539505,
Hippopolis,stimuli/subj_files/ST01_112822_cityA.csv,./stimuli/seattle.jpg,./stimuli/street_plate1.png,./stimuli/videos/hippopolis_part1.mp4,ÁRNYÉK UTCA,stimuli/objects/097a.jpg,object,2,stimuli/scenes/072a.jpg,stimuli/objects/083a.jpg,stimuli/objects/083b.jpg,stimuli/scenes/072b.jpg,stimuli/scenes/072a.jpg,dist1,dist2,lure,target,0,1,1,1,0,1,1,10,,,,,,,,,,,803.4559726919979,804.4911767486483,804.4911767486483,804.4911767486483,804.4911767486483,None,,,,,,,,,,,,,,,,,,,,,,,,,,,,,,ST01_112822,2022-11-29_09h29.58.226,Hippopolis_Learning,2022.2.2,59.995596359539505,
Hippopolis,stimuli/subj_files/ST01_112822_cityA.csv,./stimuli/seattle.jpg,./stimuli/street_plate1.png,./stimuli/videos/hippopolis_part1.mp4,HÁRFA UTCA,stimuli/scenes/097a.jpg,scene,2,stimuli/objects/106a.jpg,stimuli/objects/106b.jpg,stimuli/objects/106a.jpg,stimuli/objects/002a.jpg,stimuli/objects/002b.jpg,lure,target,dist1,dist2,0,1,1,1,0,2,2,62,,,,,,,,,,,807.4642439074814,808.5103686433285,808.5103686433285,808.5103686433285,808.5103686433285,None,,,,,,,,,,,,,,,,,,,,,,,,,,,,,,ST01_112822,2022-11-29_09h29.58.226,Hippopolis_Learning,2022.2.2,59.995596359539505,
