CityName,StimuliFile,CityImage,StreetSign,Cue,Image,Category,Novelty,UpdateImage,TestImage1,TestImage2,TestImage3,TestImage4,TestImage1Type,TestImage2Type,TestImage3Type,TestImage4Type,CityBlock.thisRepN,CityBlock.thisTrialN,CityBlock.thisN,CityBlock.thisIndex,LearningTrials.thisRepN,LearningTrials.thisTrialN,LearningTrials.thisN,LearningTrials.thisIndex,learning_instructions_text.started,learning_instructions_text.stopped,intro_key.keys,intro_key.rt,intro_key.started,intro_key.stopped,cityname_text.started,cityname_text.stopped,city_image.started,city_image.stopped,fx_cross.started,fx_cross.stopped,plate_updating.started,plate_updating.stopped,city_text_updating.started,city_text_updating.stopped,street_text_updating.started,street_text_updating.stopped,test_image1.started,test_image1.stopped,test_image2.started,test_image2.stopped,test_image3.started,test_image3.stopped,test_image4.started,test_image4.stopped,button_d.started,button_d.stopped,button_f.started,button_f.stopped,button_j.started,button_j.stopped,button_k.started,button_k.stopped,key_resp.keys,key_resp.rt,key_resp.started,key_resp.stopped,test_resp,clock0.started,clock0.stopped,short_break_text.started,short_break_text.stopped,short_break_key.keys,short_break_key.started,short_break_key.stopped,short_break_key.rt,n_targets,n_lures,n_dist1s,n_dist2s,break_text.started,break_text.stopped,break_key_resp.keys,break_key_resp.rt,break_key_resp.started,break_key_resp.stopped,end_text.started,end_text.stopped,participant,date,expName,psychopyVersion,frameRate,
,,,,,,,,,,,,,,,,,,,,,,,,,51.81170230000862,None,space,9.449711900000693,51.81170230000862,None,,,,,,,,,,,,,,,,,,,,,,,,,,,,,,,,,,,,,,,,,,,,,,,,,,,,,,ST01_112522,2022-11-25_13h28.27.147,Hippopolis_4AFCT,2021.1.4,60.19849853380518,
Camponello,stimuli/subj_files/ST01_112522_cityB.csv,./stimuli/hallstatt.jpg,./stimuli/street_plate2.png,POGÁCSA UTCA,stimuli/objects/018a.jpg,object,2,stimuli/scenes/041a.jpg,stimuli/scenes/079b.jpg,stimuli/scenes/041b.jpg,stimuli/scenes/079a.jpg,stimuli/scenes/041a.jpg,dist2,lure,dist1,target,0,0,0,0,0,0,0,56,,,,,,,61.338691400014795,None,61.338691400014795,None,64.31655300001148,None,65.36219310000888,None,65.36219310000888,None,65.36219310000888,None,65.36219310000888,None,65.36219310000888,None,65.36219310000888,None,65.36219310000888,None,65.36219310000888,None,65.36219310000888,None,65.36219310000888,None,65.36219310000888,None,k,3.2331520000007004,65.36219310000888,None,target,None,None,None,None,None,None,None,,,,,,,,,,,,,,ST01_112522,2022-11-25_13h28.27.147,Hippopolis_4AFCT,2021.1.4,60.19849853380518,
Camponello,stimuli/subj_files/ST01_112522_cityB.csv,./stimuli/hallstatt.jpg,./stimuli/street_plate2.png,PÁFRÁNY UTCA,stimuli/scenes/035a.jpg,scene,0,stimuli/scenes/035a.jpg,stimuli/objects/075a.jpg,stimuli/scenes/035a.jpg,stimuli/objects/075b.jpg,stimuli/scenes/035b.jpg,dist1,target,dist2,lure,0,0,0,0,0,1,1,12,,,,,,,,,,,68.62126350001199,None,69.6393487000023,None,69.6393487000023,None,69.6393487000023,None,69.6393487000023,None,69.6393487000023,None,69.6393487000023,None,69.6393487000023,None,69.6393487000023,None,69.6393487000023,None,69.6393487000023,None,69.6393487000023,None,f,3.4733945000043605,69.6393487000023,None,target,73.1384477600077,None,None,None,None,None,None,,,,,,,,,,,,,,ST01_112522,2022-11-25_13h28.27.147,Hippopolis_4AFCT,2021.1.4,60.19849853380518,
Camponello,stimuli/subj_files/ST01_112522_cityB.csv,./stimuli/hallstatt.jpg,./stimuli/street_plate2.png,OLDAL UTCA,stimuli/objects/107a.jpg,object,2,stimuli/scenes/079a.jpg,stimuli/scenes/079a.jpg,stimuli/scenes/079b.jpg,stimuli/objects/078b.jpg,stimuli/objects/078a.jpg,target,lure,dist2,dist1,0,0,0,0,0,2,2,40,,,,,,,,,,,73.13807350001298,None,74.15553060002276,None,74.15553060002276,None,74.15553060002276,None,74.15553060002276,None,74.15553060002276,None,74.15553060002276,None,74.15553060002276,None,74.15553060002276,None,74.15553060002276,None,74.15553060002276,None,74.15553060002276,None,d,2.651699900015956,74.15553060002276,None,target,None,None,None,None,None,None,None,,,,,,,,,,,,,,ST01_112522,2022-11-25_13h28.27.147,Hippopolis_4AFCT,2021.1.4,60.19849853380518,
Camponello,stimuli/subj_files/ST01_112522_cityB.csv,./stimuli/hallstatt.jpg,./stimuli/street_plate2.png,HÁRFA UTCA,stimuli/objects/051a.jpg,object,0,stimuli/objects/051a.jpg,stimuli/objects/051b.jpg,stimuli/objects/051a.jpg,stimuli/objects/093a.jpg,stimuli/objects/093b.jpg,lure,target,dist1,dist2,0,0,0,0,0,3,3,45,,,,,,,,,,,76.83811020001303,None,77.87836520001292,None,77.87836520001292,None,77.87836520001292,None,77.87836520001292,None,77.87836520001292,None,77.87836520001292,None,77.87836520001292,None,77.87836520001292,None,77.87836520001292,None,77.87836520001292,None,77.87836520001292,None,d,1.8338409000134561,77.87836520001292,None,lure,None,None,None,None,None,None,None,,,,,,,,,,,,,,ST01_112522,2022-11-25_13h28.27.147,Hippopolis_4AFCT,2021.1.4,60.19849853380518,
Camponello,stimuli/subj_files/ST01_112522_cityB.csv,./stimuli/hallstatt.jpg,./stimuli/street_plate2.png,HEGEDŰ UTCA,stimuli/objects/041a.jpg,object,2,stimuli/scenes/097a.jpg,stimuli/scenes/097b.jpg,stimuli/objects/053b.jpg,stimuli/scenes/097a.jpg,stimuli/objects/053a.jpg,lure,dist2,target,dist1,0,0,0,0,0,4,4,76,,,,,,,,,,,79.7379858000204,None,80.76007910000044,None,80.76007910000044,None,80.76007910000044,None,80.76007910000044,None,80.76007910000044,None,80.76007910000044,None,80.76007910000044,None,80.76007910000044,None,80.76007910000044,None,80.76007910000044,None,80.76007910000044,None,k,4.665767999977106,80.76007910000044,None,dist1,84.25551370001631,None,None,None,None,None,None,,,,,,,,,,,,,,ST01_112522,2022-11-25_13h28.27.147,Hippopolis_4AFCT,2021.1.4,60.19849853380518,
Camponello,stimuli/subj_files/ST01_112522_cityB.csv,./stimuli/hallstatt.jpg,./stimuli/street_plate2.png,FÉSZEK UTCA,stimuli/objects/075a.jpg,object,0,stimuli/objects/075a.jpg,stimuli/objects/075b.jpg,stimuli/objects/075a.jpg,stimuli/scenes/019b.jpg,stimuli/scenes/019a.jpg,lure,target,dist2,dist1,0,0,0,0,0,5,5,72,,,,,,,,,,,85.45395720002125,None,86.47320650002803,None,86.47320650002803,None,86.47320650002803,None,86.47320650002803,None,86.47320650002803,None,86.47320650002803,None,86.47320650002803,None,86.47320650002803,None,86.47320650002803,None,86.47320650002803,None,86.47320650002803,None,f,1.908815400005551,86.47320650002803,None,target,None,None,None,None,None,None,None,,,,,,,,,,,,,,ST01_112522,2022-11-25_13h28.27.147,Hippopolis_4AFCT,2021.1.4,60.19849853380518,
Camponello,stimuli/subj_files/ST01_112522_cityB.csv,./stimuli/hallstatt.jpg,./stimuli/street_plate2.png,LEMEZ UTCA,stimuli/objects/120a.jpg,object,1,stimuli/objects/007a.jpg,stimuli/scenes/120a.jpg,stimuli/objects/007b.jpg,stimuli/scenes/120b.jpg,stimuli/objects/007a.jpg,dist1,lure,dist2,target,0,0,0,0,0,6,6,29,,,,,,,,,,,88.40452700000606,None,89.43371650000336,None,89.43371650000336,None,89.43371650000336,None,89.43371650000336,None,89.43371650000336,None,89.43371650000336,None,89.43371650000336,None,89.43371650000336,None,89.43371650000336,None,89.43371650000336,None,89.43371650000336,None,d,2.556129900011001,89.43371650000336,None,dist1,None,None,None,None,None,None,None,,,,,,,,,,,,,,ST01_112522,2022-11-25_13h28.27.147,Hippopolis_4AFCT,2021.1.4,60.19849853380518,
Camponello,stimuli/subj_files/ST01_112522_cityB.csv,./stimuli/hallstatt.jpg,./stimuli/street_plate2.png,BOLYGÓ UTCA,stimuli/scenes/039a.jpg,scene,0,stimuli/scenes/039a.jpg,stimuli/scenes/025b.jpg,stimuli/scenes/039b.jpg,stimuli/scenes/039a.jpg,stimuli/scenes/025a.jpg,dist2,lure,target,dist1,0,0,0,0,0,7,7,79,,,,,,,,,,,92.02105510002002,None,93.04908060000162,None,93.04908060000162,None,93.04908060000162,None,93.04908060000162,None,93.04908060000162,None,93.04908060000162,None,93.04908060000162,None,93.04908060000162,None,93.04908060000162,None,93.04908060000162,None,93.04908060000162,None,j,3.71387949999189,93.04908060000162,None,target,96.53874170000199,None,None,None,None,None,None,,,,,,,,,,,,,,ST01_112522,2022-11-25_13h28.27.147,Hippopolis_4AFCT,2021.1.4,60.19849853380518,
Camponello,stimuli/subj_files/ST01_112522_cityB.csv,./stimuli/hallstatt.jpg,./stimuli/street_plate2.png,MOCSÁR UTCA,stimuli/scenes/104a.jpg,scene,0,stimuli/scenes/104a.jpg,stimuli/objects/076a.jpg,stimuli/objects/076b.jpg,stimuli/scenes/104b.jpg,stimuli/scenes/104a.jpg,dist1,dist2,lure,target,0,0,0,0,0,8,8,5,,,,,,,,,,,96.78743520000717,None,97.80856650002534,None,97.80856650002534,None,97.80856650002534,None,97.80856650002534,None,97.80856650002534,None,97.80856650002534,None,97.80856650002534,None,97.80856650002534,None,97.80856650002534,None,97.80856650002534,None,97.80856650002534,None,k,2.528407400008291,97.80856650002534,None,target,None,None,None,None,None,None,None,,,,,,,,,,,,,,ST01_112522,2022-11-25_13h28.27.147,Hippopolis_4AFCT,2021.1.4,60.19849853380518,
Camponello,stimuli/subj_files/ST01_112522_cityB.csv,./stimuli/hallstatt.jpg,./stimuli/street_plate2.png,MÁLNA UTCA,stimuli/objects/044a.jpg,object,0,stimuli/objects/044a.jpg,stimuli/objects/099b.jpg,stimuli/objects/044a.jpg,stimuli/objects/099a.jpg,stimuli/objects/044b.jpg,dist2,target,dist1,lure,0,0,0,0,0,9,9,68,,,,,,,,,,,100.3536054000142,None,101.37976800001343,None,101.37976800001343,None,101.37976800001343,None,101.37976800001343,None,101.37976800001343,None,101.37976800001343,None,101.37976800001343,None,101.37976800001343,None,101.37976800001343,None,101.37976800001343,None,101.37976800001343,None,f,2.3339074999967124,101.37976800001343,None,target,None,None,None,None,None,None,None,,,,,,,,,,,,,,ST01_112522,2022-11-25_13h28.27.147,Hippopolis_4AFCT,2021.1.4,60.19849853380518,
Camponello,stimuli/subj_files/ST01_112522_cityB.csv,./stimuli/hallstatt.jpg,./stimuli/street_plate2.png,TOBOZ UTCA,stimuli/objects/057a.jpg,object,0,stimuli/objects/057a.jpg,stimuli/objects/057a.jpg,stimuli/objects/057b.jpg,stimuli/objects/110b.jpg,stimuli/objects/110a.jpg,target,lure,dist2,dist1,0,0,0,0,0,10,10,22,,,,,,,,,,,103.73723670002073,None,104.77264280000236,None,104.77264280000236,None,104.77264280000236,None,104.77264280000236,None,104.77264280000236,None,104.77264280000236,None,104.77264280000236,None,104.77264280000236,None,104.77264280000236,None,104.77264280000236,None,104.77264280000236,None,d,1.9564168999786489,104.77264280000236,None,target,None,None,None,None,None,None,None,,,,,,,,,,,,,,ST01_112522,2022-11-25_13h28.27.147,Hippopolis_4AFCT,2021.1.4,60.19849853380518,
Camponello,stimuli/subj_files/ST01_112522_cityB.csv,./stimuli/hallstatt.jpg,./stimuli/street_plate2.png,HARMONIKA UTCA,stimuli/objects/068a.jpg,object,0,stimuli/objects/068a.jpg,stimuli/objects/068b.jpg,stimuli/scenes/012b.jpg,stimuli/objects/068a.jpg,stimuli/scenes/012a.jpg,lure,dist2,target,dist1,0,0,0,0,0,11,11,38,,,,,,,,,,,106.75412310002139,None,107.7744617999997,None,107.7744617999997,None,107.7744617999997,None,107.7744617999997,None,107.7744617999997,None,107.7744617999997,None,107.7744617999997,None,107.7744617999997,None,107.7744617999997,None,107.7744617999997,None,107.7744617999997,None,d,1.9475516000238713,107.7744617999997,None,lure,None,None,None,None,None,None,None,,,,,,,,,,,,,,ST01_112522,2022-11-25_13h28.27.147,Hippopolis_4AFCT,2021.1.4,60.19849853380518,
Camponello,stimuli/subj_files/ST01_112522_cityB.csv,./stimuli/hallstatt.jpg,./stimuli/street_plate2.png,TÁSKA UTCA,stimuli/scenes/012a.jpg,scene,0,stimuli/scenes/012a.jpg,stimuli/scenes/012b.jpg,stimuli/scenes/012a.jpg,stimuli/objects/033b.jpg,stimuli/objects/033a.jpg,lure,target,dist2,dist1,0,0,0,0,0,12,12,61,,,,,,,,,,,109.75368510000408,None,110.76427040001727,None,110.76427040001727,None,110.76427040001727,None,110.76427040001727,None,110.76427040001727,None,110.76427040001727,None,110.76427040001727,None,110.76427040001727,None,110.76427040001727,None,110.76427040001727,None,110.76427040001727,None,f,4.008798399998341,110.76427040001727,None,target,114.25441140000476,None,None,None,None,None,None,,,,,,,,,,,,,,ST01_112522,2022-11-25_13h28.27.147,Hippopolis_4AFCT,2021.1.4,60.19849853380518,
Camponello,stimuli/subj_files/ST01_112522_cityB.csv,./stimuli/hallstatt.jpg,./stimuli/street_plate2.png,BONBON UTCA,stimuli/scenes/102a.jpg,scene,2,stimuli/objects/058a.jpg,stimuli/scenes/097a.jpg,stimuli/objects/058b.jpg,stimuli/objects/058a.jpg,stimuli/scenes/097b.jpg,dist1,lure,target,dist2,0,0,0,0,0,13,13,54,,,,,,,,,,,114.80386030001682,None,115.81822420001845,None,115.81822420001845,None,115.81822420001845,None,115.81822420001845,None,115.81822420001845,None,115.81822420001845,None,115.81822420001845,None,115.81822420001845,None,115.81822420001845,None,115.81822420001845,None,115.81822420001845,None,j,2.1368604000017513,115.81822420001845,None,target,None,None,None,None,None,None,None,,,,,,,,,,,,,,ST01_112522,2022-11-25_13h28.27.147,Hippopolis_4AFCT,2021.1.4,60.19849853380518,
Camponello,stimuli/subj_files/ST01_112522_cityB.csv,./stimuli/hallstatt.jpg,./stimuli/street_plate2.png,KÁRTYA UTCA,stimuli/objects/038a.jpg,object,0,stimuli/objects/038a.jpg,stimuli/objects/038b.jpg,stimuli/scenes/035b.jpg,stimuli/scenes/035a.jpg,stimuli/objects/038a.jpg,lure,dist2,dist1,target,0,0,0,0,0,14,14,69,,,,,,,,,,,117.9868606000091,None,119.01390790002188,None,119.01390790002188,None,119.01390790002188,None,119.01390790002188,None,119.01390790002188,None,119.01390790002188,None,119.01390790002188,None,119.01390790002188,None,119.01390790002188,None,119.01390790002188,None,119.01390790002188,None,k,2.5754423000034876,119.01390790002188,None,target,None,None,None,None,None,None,None,,,,,,,,,,,,,,ST01_112522,2022-11-25_13h28.27.147,Hippopolis_4AFCT,2021.1.4,60.19849853380518,
Camponello,stimuli/subj_files/ST01_112522_cityB.csv,./stimuli/hallstatt.jpg,./stimuli/street_plate2.png,TÜKÖR UTCA,stimuli/scenes/093a.jpg,scene,0,stimuli/scenes/093a.jpg,stimuli/scenes/093b.jpg,stimuli/scenes/093a.jpg,stimuli/scenes/104b.jpg,stimuli/scenes/104a.jpg,lure,target,dist2,dist1,0,0,0,0,0,15,15,27,,,,,,,,,,,121.62056960002519,None,122.64309000002686,None,122.64309000002686,None,122.64309000002686,None,122.64309000002686,None,122.64309000002686,None,122.64309000002686,None,122.64309000002686,None,122.64309000002686,None,122.64309000002686,None,122.64309000002686,None,122.64309000002686,None,f,2.3195027000037953,122.64309000002686,None,target,None,None,None,None,None,None,None,,,,,,,,,,,,,,ST01_112522,2022-11-25_13h28.27.147,Hippopolis_4AFCT,2021.1.4,60.19849853380518,
Camponello,stimuli/subj_files/ST01_112522_cityB.csv,./stimuli/hallstatt.jpg,./stimuli/street_plate2.png,PETÁRDA UTCA,stimuli/objects/006a.jpg,object,1,stimuli/objects/100a.jpg,stimuli/objects/100a.jpg,stimuli/objects/100b.jpg,stimuli/scenes/082a.jpg,stimuli/scenes/082b.jpg,target,lure,dist1,dist2,0,0,0,0,0,16,16,3,,,,,,,,,,,124.98711720001302,None,126.0098756000225,None,126.0098756000225,None,126.0098756000225,None,126.0098756000225,None,126.0098756000225,None,126.0098756000225,None,126.0098756000225,None,126.0098756000225,None,126.0098756000225,None,126.0098756000225,None,126.0098756000225,None,d,2.249173800024437,126.0098756000225,None,target,None,None,None,None,None,None,None,,,,,,,,,,,,,,ST01_112522,2022-11-25_13h28.27.147,Hippopolis_4AFCT,2021.1.4,60.19849853380518,
Camponello,stimuli/subj_files/ST01_112522_cityB.csv,./stimuli/hallstatt.jpg,./stimuli/street_plate2.png,LÉPCSŐ UTCA,stimuli/scenes/023a.jpg,scene,1,stimuli/scenes/120a.jpg,stimuli/scenes/089a.jpg,stimuli/scenes/120b.jpg,stimuli/scenes/120a.jpg,stimuli/scenes/089b.jpg,dist1,lure,target,dist2,0,0,0,0,0,17,17,0,,,,,,,,,,,128.28711890001432,None,129.3045426000026,None,129.3045426000026,None,129.3045426000026,None,129.3045426000026,None,129.3045426000026,None,129.3045426000026,None,129.3045426000026,None,129.3045426000026,None,129.3045426000026,None,129.3045426000026,None,129.3045426000026,None,d,2.8819914999767207,129.3045426000026,None,dist1,None,None,None,None,None,None,None,,,,,,,,,,,,,,ST01_112522,2022-11-25_13h28.27.147,Hippopolis_4AFCT,2021.1.4,60.19849853380518,
Camponello,stimuli/subj_files/ST01_112522_cityB.csv,./stimuli/hallstatt.jpg,./stimuli/street_plate2.png,KÖNYVTÁR UTCA,stimuli/scenes/008a.jpg,scene,0,stimuli/scenes/008a.jpg,stimuli/scenes/106b.jpg,stimuli/scenes/106a.jpg,stimuli/scenes/008a.jpg,stimuli/scenes/008b.jpg,dist2,dist1,target,lure,0,0,0,0,0,18,18,51,,,,,,,,,,,132.20332700002473,None,133.2251876000082,None,133.2251876000082,None,133.2251876000082,None,133.2251876000082,None,133.2251876000082,None,133.2251876000082,None,133.2251876000082,None,133.2251876000082,None,133.2251876000082,None,133.2251876000082,None,133.2251876000082,None,j,2.4798132000141777,133.2251876000082,None,target,None,None,None,None,None,None,None,,,,,,,,,,,,,,ST01_112522,2022-11-25_13h28.27.147,Hippopolis_4AFCT,2021.1.4,60.19849853380518,
Camponello,stimuli/subj_files/ST01_112522_cityB.csv,./stimuli/hallstatt.jpg,./stimuli/street_plate2.png,KÖMÉNYMAG UTCA,stimuli/scenes/028a.jpg,scene,1,stimuli/scenes/045a.jpg,stimuli/scenes/045b.jpg,stimuli/objects/092b.jpg,stimuli/scenes/045a.jpg,stimuli/objects/092a.jpg,lure,dist2,target,dist1,0,0,0,0,0,19,19,66,,,,,,,,,,,135.73699450001004,None,136.75232010000036,None,136.75232010000036,None,136.75232010000036,None,136.75232010000036,None,136.75232010000036,None,136.75232010000036,None,136.75232010000036,None,136.75232010000036,None,136.75232010000036,None,136.75232010000036,None,136.75232010000036,None,k,3.0058445999748074,136.75232010000036,None,dist1,None,None,None,None,None,None,None,,,,,,,,,,,,,,ST01_112522,2022-11-25_13h28.27.147,Hippopolis_4AFCT,2021.1.4,60.19849853380518,
Camponello,stimuli/subj_files/ST01_112522_cityB.csv,./stimuli/hallstatt.jpg,./stimuli/street_plate2.png,PALACK UTCA,stimuli/scenes/026a.jpg,scene,0,stimuli/scenes/026a.jpg,stimuli/scenes/026b.jpg,stimuli/objects/011a.jpg,stimuli/scenes/026a.jpg,stimuli/objects/011b.jpg,lure,dist1,target,dist2,0,0,0,0,0,20,20,26,,,,,,,,,,,139.78689660000964,None,140.81731790001504,None,140.81731790001504,None,140.81731790001504,None,140.81731790001504,None,140.81731790001504,None,140.81731790001504,None,140.81731790001504,None,140.81731790001504,None,140.81731790001504,None,140.81731790001504,None,140.81731790001504,None,j,4.527298000000883,140.81731790001504,None,target,144.3043475000013,None,None,None,None,None,None,,,,,,,,,,,,,,ST01_112522,2022-11-25_13h28.27.147,Hippopolis_4AFCT,2021.1.4,60.19849853380518,
Camponello,stimuli/subj_files/ST01_112522_cityB.csv,./stimuli/hallstatt.jpg,./stimuli/street_plate2.png,KERÉK UTCA,stimuli/scenes/021a.jpg,scene,2,stimuli/objects/053a.jpg,stimuli/objects/105b.jpg,stimuli/objects/105a.jpg,stimuli/objects/053b.jpg,stimuli/objects/053a.jpg,dist2,dist1,lure,target,0,0,0,0,0,21,21,17,,,,,,,,,,,145.36964990000706,None,146.3852029000118,None,146.3852029000118,None,146.3852029000118,None,146.3852029000118,None,146.3852029000118,None,146.3852029000118,None,146.3852029000118,None,146.3852029000118,None,146.3852029000118,None,146.3852029000118,None,146.3852029000118,None,j,4.039269700006116,146.3852029000118,None,lure,149.87040100002196,None,None,None,None,None,None,,,,,,,,,,,,,,ST01_112522,2022-11-25_13h28.27.147,Hippopolis_4AFCT,2021.1.4,60.19849853380518,
Camponello,stimuli/subj_files/ST01_112522_cityB.csv,./stimuli/hallstatt.jpg,./stimuli/street_plate2.png,VITORLA UTCA,stimuli/objects/099a.jpg,object,0,stimuli/objects/099a.jpg,stimuli/objects/099a.jpg,stimuli/objects/115b.jpg,stimuli/objects/115a.jpg,stimuli/objects/099b.jpg,target,dist2,dist1,lure,0,0,0,0,0,22,22,37,,,,,,,,,,,150.45350540001527,None,151.47245660002227,None,151.47245660002227,None,151.47245660002227,None,151.47245660002227,None,151.47245660002227,None,151.47245660002227,None,151.47245660002227,None,151.47245660002227,None,151.47245660002227,None,151.47245660002227,None,151.47245660002227,None,d,2.5503590000153054,151.47245660002227,None,target,None,None,None,None,None,None,None,,,,,,,,,,,,,,ST01_112522,2022-11-25_13h28.27.147,Hippopolis_4AFCT,2021.1.4,60.19849853380518,
Camponello,stimuli/subj_files/ST01_112522_cityB.csv,./stimuli/hallstatt.jpg,./stimuli/street_plate2.png,FOGAS UTCA,stimuli/scenes/019a.jpg,scene,0,stimuli/scenes/019a.jpg,stimuli/scenes/019b.jpg,stimuli/objects/098a.jpg,stimuli/objects/098b.jpg,stimuli/scenes/019a.jpg,lure,dist1,dist2,target,0,0,0,0,0,23,23,23,,,,,,,,,,,154.05306720000226,None,155.0874596000067,None,155.0874596000067,None,155.0874596000067,None,155.0874596000067,None,155.0874596000067,None,155.0874596000067,None,155.0874596000067,None,155.0874596000067,None,155.0874596000067,None,155.0874596000067,None,155.0874596000067,None,k,3.090165399975376,155.0874596000067,None,target,None,None,None,None,None,None,None,,,,,,,,,,,,,,ST01_112522,2022-11-25_13h28.27.147,Hippopolis_4AFCT,2021.1.4,60.19849853380518,
Camponello,stimuli/subj_files/ST01_112522_cityB.csv,./stimuli/hallstatt.jpg,./stimuli/street_plate2.png,EGÉR UTCA,stimuli/objects/115a.jpg,object,0,stimuli/objects/115a.jpg,stimuli/scenes/010a.jpg,stimuli/objects/115a.jpg,stimuli/scenes/010b.jpg,stimuli/objects/115b.jpg,dist1,target,dist2,lure,0,0,0,0,0,24,24,44,,,,,,,,,,,158.20322110000416,None,159.21917340002256,None,159.21917340002256,None,159.21917340002256,None,159.21917340002256,None,159.21917340002256,None,159.21917340002256,None,159.21917340002256,None,159.21917340002256,None,159.21917340002256,None,159.21917340002256,None,159.21917340002256,None,f,3.556011100008618,159.21917340002256,None,target,162.72077760001412,None,None,None,None,None,None,,,,,,,,,,,,,,ST01_112522,2022-11-25_13h28.27.147,Hippopolis_4AFCT,2021.1.4,60.19849853380518,
Camponello,stimuli/subj_files/ST01_112522_cityB.csv,./stimuli/hallstatt.jpg,./stimuli/street_plate2.png,VIHAR UTCA,stimuli/scenes/110a.jpg,scene,0,stimuli/scenes/110a.jpg,stimuli/scenes/110b.jpg,stimuli/scenes/049a.jpg,stimuli/scenes/110a.jpg,stimuli/scenes/049b.jpg,lure,dist1,target,dist2,0,0,0,0,0,25,25,20,,,,,,,,,,,162.80306299999938,None,163.82224510001834,None,163.82224510001834,None,163.82224510001834,None,163.82224510001834,None,163.82224510001834,None,163.82224510001834,None,163.82224510001834,None,163.82224510001834,None,163.82224510001834,None,163.82224510001834,None,163.82224510001834,None,d,1.9388924000086263,163.82224510001834,None,lure,None,None,None,None,None,None,None,,,,,,,,,,,,,,ST01_112522,2022-11-25_13h28.27.147,Hippopolis_4AFCT,2021.1.4,60.19849853380518,
Camponello,stimuli/subj_files/ST01_112522_cityB.csv,./stimuli/hallstatt.jpg,./stimuli/street_plate2.png,HENTES UTCA,stimuli/objects/103a.jpg,object,0,stimuli/objects/103a.jpg,stimuli/objects/106a.jpg,stimuli/objects/106b.jpg,stimuli/objects/103b.jpg,stimuli/objects/103a.jpg,dist1,dist2,lure,target,0,0,0,0,0,26,26,73,,,,,,,,,,,165.7861283000093,None,166.82319580001058,None,166.82319580001058,None,166.82319580001058,None,166.82319580001058,None,166.82319580001058,None,166.82319580001058,None,166.82319580001058,None,166.82319580001058,None,166.82319580001058,None,166.82319580001058,None,166.82319580001058,None,k,2.6365487999864854,166.82319580001058,None,target,None,None,None,None,None,None,None,,,,,,,,,,,,,,ST01_112522,2022-11-25_13h28.27.147,Hippopolis_4AFCT,2021.1.4,60.19849853380518,
Camponello,stimuli/subj_files/ST01_112522_cityB.csv,./stimuli/hallstatt.jpg,./stimuli/street_plate2.png,MARTINI UTCA,stimuli/scenes/043a.jpg,scene,0,stimuli/scenes/043a.jpg,stimuli/scenes/043b.jpg,stimuli/objects/044a.jpg,stimuli/scenes/043a.jpg,stimuli/objects/044b.jpg,lure,dist1,target,dist2,0,0,0,0,0,27,27,33,,,,,,,,,,,169.48591320001287,None,170.50490610001725,None,170.50490610001725,None,170.50490610001725,None,170.50490610001725,None,170.50490610001725,None,170.50490610001725,None,170.50490610001725,None,170.50490610001725,None,170.50490610001725,None,170.50490610001725,None,170.50490610001725,None,j,3.643050700018648,170.50490610001725,None,target,174.0039241000195,None,None,None,None,None,None,,,,,,,,,,,,,,ST01_112522,2022-11-25_13h28.27.147,Hippopolis_4AFCT,2021.1.4,60.19849853380518,
Camponello,stimuli/subj_files/ST01_112522_cityB.csv,./stimuli/hallstatt.jpg,./stimuli/street_plate2.png,TULIPÁN UTCA,stimuli/scenes/013a.jpg,scene,0,stimuli/scenes/013a.jpg,stimuli/scenes/026a.jpg,stimuli/scenes/013a.jpg,stimuli/scenes/013b.jpg,stimuli/scenes/026b.jpg,dist1,target,lure,dist2,0,0,0,0,0,28,28,13,,,,,,,,,,,174.16934220000985,None,175.18817610002588,None,175.18817610002588,None,175.18817610002588,None,175.18817610002588,None,175.18817610002588,None,175.18817610002588,None,175.18817610002588,None,175.18817610002588,None,175.18817610002588,None,175.18817610002588,None,175.18817610002588,None,f,3.2042071000032593,175.18817610002588,None,target,None,None,None,None,None,None,None,,,,,,,,,,,,,,ST01_112522,2022-11-25_13h28.27.147,Hippopolis_4AFCT,2021.1.4,60.19849853380518,
Camponello,stimuli/subj_files/ST01_112522_cityB.csv,./stimuli/hallstatt.jpg,./stimuli/street_plate2.png,FÜGE UTCA,stimuli/objects/110a.jpg,object,0,stimuli/objects/110a.jpg,stimuli/objects/110b.jpg,stimuli/scenes/036a.jpg,stimuli/scenes/036b.jpg,stimuli/objects/110a.jpg,lure,dist1,dist2,target,0,0,0,0,0,29,29,43,,,,,,,,,,,178.41936220001662,None,179.43951070000185,None,179.43951070000185,None,179.43951070000185,None,179.43951070000185,None,179.43951070000185,None,179.43951070000185,None,179.43951070000185,None,179.43951070000185,None,179.43951070000185,None,179.43951070000185,None,179.43951070000185,None,d,1.1819261999917217,179.43951070000185,None,lure,None,None,None,None,None,None,None,,,,,,,,,,,,,,ST01_112522,2022-11-25_13h28.27.147,Hippopolis_4AFCT,2021.1.4,60.19849853380518,
Camponello,stimuli/subj_files/ST01_112522_cityB.csv,./stimuli/hallstatt.jpg,./stimuli/street_plate2.png,CSAVAR UTCA,stimuli/scenes/051a.jpg,scene,0,stimuli/scenes/051a.jpg,stimuli/scenes/051b.jpg,stimuli/scenes/051a.jpg,stimuli/scenes/008b.jpg,stimuli/scenes/008a.jpg,lure,target,dist2,dist1,0,0,0,0,0,30,30,18,,,,,,,,,,,180.65284780002548,None,181.66502040001797,None,181.66502040001797,None,181.66502040001797,None,181.66502040001797,None,181.66502040001797,None,181.66502040001797,None,181.66502040001797,None,181.66502040001797,None,181.66502040001797,None,181.66502040001797,None,181.66502040001797,None,f,2.8698149000119884,181.66502040001797,None,target,None,None,None,None,None,None,None,,,,,,,,,,,,,,ST01_112522,2022-11-25_13h28.27.147,Hippopolis_4AFCT,2021.1.4,60.19849853380518,
Camponello,stimuli/subj_files/ST01_112522_cityB.csv,./stimuli/hallstatt.jpg,./stimuli/street_plate2.png,TOLMÁCS UTCA,stimuli/objects/090a.jpg,object,0,stimuli/objects/090a.jpg,stimuli/objects/090a.jpg,stimuli/objects/109a.jpg,stimuli/objects/090b.jpg,stimuli/objects/109b.jpg,target,dist1,lure,dist2,0,0,0,0,0,31,31,11,,,,,,,,,,,184.55232310001156,None,185.59500520001166,None,185.59500520001166,None,185.59500520001166,None,185.59500520001166,None,185.59500520001166,None,185.59500520001166,None,185.59500520001166,None,185.59500520001166,None,185.59500520001166,None,185.59500520001166,None,185.59500520001166,None,d,2.189995100023225,185.59500520001166,None,target,None,None,None,None,None,None,None,,,,,,,,,,,,,,ST01_112522,2022-11-25_13h28.27.147,Hippopolis_4AFCT,2021.1.4,60.19849853380518,
Camponello,stimuli/subj_files/ST01_112522_cityB.csv,./stimuli/hallstatt.jpg,./stimuli/street_plate2.png,RÁDIÓ UTCA,stimuli/scenes/024a.jpg,scene,2,stimuli/objects/105a.jpg,stimuli/scenes/030a.jpg,stimuli/scenes/030b.jpg,stimuli/objects/105b.jpg,stimuli/objects/105a.jpg,dist1,dist2,lure,target,0,0,0,0,0,32,32,78,,,,,,,,,,,187.80208820002736,None,188.823867900006,None,188.823867900006,None,188.823867900006,None,188.823867900006,None,188.823867900006,None,188.823867900006,None,188.823867900006,None,188.823867900006,None,188.823867900006,None,188.823867900006,None,188.823867900006,None,j,4.698697299987543,188.823867900006,None,lure,192.32070400001248,None,None,None,None,None,None,,,,,,,,,,,,,,ST01_112522,2022-11-25_13h28.27.147,Hippopolis_4AFCT,2021.1.4,60.19849853380518,
Camponello,stimuli/subj_files/ST01_112522_cityB.csv,./stimuli/hallstatt.jpg,./stimuli/street_plate2.png,KAKAS UTCA,stimuli/scenes/025a.jpg,scene,0,stimuli/scenes/025a.jpg,stimuli/scenes/025a.jpg,stimuli/objects/103b.jpg,stimuli/scenes/025b.jpg,stimuli/objects/103a.jpg,target,dist2,lure,dist1,0,0,0,0,0,33,33,24,,,,,,,,,,,193.55178030001116,None,194.55660190002527,None,194.55660190002527,None,194.55660190002527,None,194.55660190002527,None,194.55660190002527,None,194.55660190002527,None,194.55660190002527,None,194.55660190002527,None,194.55660190002527,None,194.55660190002527,None,194.55660190002527,None,None,,194.55660190002527,None,invalid,198.05293070001062,199.55335140001262,None,None,None,None,None,,,,,,,,,,,,,,ST01_112522,2022-11-25_13h28.27.147,Hippopolis_4AFCT,2021.1.4,60.19849853380518,
Camponello,stimuli/subj_files/ST01_112522_cityB.csv,./stimuli/hallstatt.jpg,./stimuli/street_plate2.png,AJÁNDÉK UTCA,stimuli/scenes/118a.jpg,scene,0,stimuli/scenes/118a.jpg,stimuli/scenes/118a.jpg,stimuli/scenes/118b.jpg,stimuli/objects/038a.jpg,stimuli/objects/038b.jpg,target,lure,dist1,dist2,0,0,0,0,0,34,34,60,,,,,,,,,,,199.5691224000184,None,200.60532430000603,None,200.60532430000603,None,200.60532430000603,None,200.60532430000603,None,200.60532430000603,None,200.60532430000603,None,200.60532430000603,None,200.60532430000603,None,200.60532430000603,None,200.60532430000603,None,200.60532430000603,None,d,0.982646400021622,200.60532430000603,None,target,None,None,None,None,None,None,None,,,,,,,,,,,,,,ST01_112522,2022-11-25_13h28.27.147,Hippopolis_4AFCT,2021.1.4,60.19849853380518,
Camponello,stimuli/subj_files/ST01_112522_cityB.csv,./stimuli/hallstatt.jpg,./stimuli/street_plate2.png,RIBIZLI UTCA,stimuli/scenes/106a.jpg,scene,0,stimuli/scenes/106a.jpg,stimuli/scenes/013b.jpg,stimuli/scenes/106a.jpg,stimuli/scenes/106b.jpg,stimuli/scenes/013a.jpg,dist2,target,lure,dist1,0,0,0,0,0,35,35,8,,,,,,,,,,,201.6186454000126,None,202.6333553000004,None,202.6333553000004,None,202.6333553000004,None,202.6333553000004,None,202.6333553000004,None,202.6333553000004,None,202.6333553000004,None,202.6333553000004,None,202.6333553000004,None,202.6333553000004,None,202.6333553000004,None,f,2.5349213000154123,202.6333553000004,None,target,None,None,None,None,None,None,None,,,,,,,,,,,,,,ST01_112522,2022-11-25_13h28.27.147,Hippopolis_4AFCT,2021.1.4,60.19849853380518,
Camponello,stimuli/subj_files/ST01_112522_cityB.csv,./stimuli/hallstatt.jpg,./stimuli/street_plate2.png,NARANCS UTCA,stimuli/scenes/044a.jpg,scene,2,stimuli/objects/016a.jpg,stimuli/scenes/017b.jpg,stimuli/objects/016b.jpg,stimuli/objects/016a.jpg,stimuli/scenes/017a.jpg,dist2,lure,target,dist1,0,0,0,0,0,36,36,7,,,,,,,,,,,205.18511940000462,None,206.20359840002493,None,206.20359840002493,None,206.20359840002493,None,206.20359840002493,None,206.20359840002493,None,206.20359840002493,None,206.20359840002493,None,206.20359840002493,None,206.20359840002493,None,206.20359840002493,None,206.20359840002493,None,j,2.603729700000258,206.20359840002493,None,target,None,None,None,None,None,None,None,,,,,,,,,,,,,,ST01_112522,2022-11-25_13h28.27.147,Hippopolis_4AFCT,2021.1.4,60.19849853380518,
Camponello,stimuli/subj_files/ST01_112522_cityB.csv,./stimuli/hallstatt.jpg,./stimuli/street_plate2.png,HAJÓ UTCA,stimuli/scenes/049a.jpg,scene,0,stimuli/scenes/049a.jpg,stimuli/scenes/099a.jpg,stimuli/scenes/049a.jpg,stimuli/scenes/049b.jpg,stimuli/scenes/099b.jpg,dist1,target,lure,dist2,0,0,0,0,0,37,37,63,,,,,,,,,,,208.83595370000694,None,209.85268190002535,None,209.85268190002535,None,209.85268190002535,None,209.85268190002535,None,209.85268190002535,None,209.85268190002535,None,209.85268190002535,None,209.85268190002535,None,209.85268190002535,None,209.85268190002535,None,209.85268190002535,None,f,2.835935800016159,209.85268190002535,None,target,None,None,None,None,None,None,None,,,,,,,,,,,,,,ST01_112522,2022-11-25_13h28.27.147,Hippopolis_4AFCT,2021.1.4,60.19849853380518,
Camponello,stimuli/subj_files/ST01_112522_cityB.csv,./stimuli/hallstatt.jpg,./stimuli/street_plate2.png,LOVAGLÁS UTCA,stimuli/objects/087a.jpg,object,0,stimuli/objects/087a.jpg,stimuli/scenes/110a.jpg,stimuli/scenes/110b.jpg,stimuli/objects/087b.jpg,stimuli/objects/087a.jpg,dist1,dist2,lure,target,0,0,0,0,0,38,38,39,,,,,,,,,,,212.71902650000993,None,213.74536900001112,None,213.74536900001112,None,213.74536900001112,None,213.74536900001112,None,213.74536900001112,None,213.74536900001112,None,213.74536900001112,None,213.74536900001112,None,213.74536900001112,None,213.74536900001112,None,213.74536900001112,None,k,1.8978919999790378,213.74536900001112,None,target,None,None,None,None,None,None,None,,,,,,,,,,,,,,ST01_112522,2022-11-25_13h28.27.147,Hippopolis_4AFCT,2021.1.4,60.19849853380518,
Camponello,stimuli/subj_files/ST01_112522_cityB.csv,./stimuli/hallstatt.jpg,./stimuli/street_plate2.png,LÉTRA UTCA,stimuli/scenes/053a.jpg,scene,0,stimuli/scenes/053a.jpg,stimuli/scenes/053b.jpg,stimuli/objects/068a.jpg,stimuli/scenes/053a.jpg,stimuli/objects/068b.jpg,lure,dist1,target,dist2,0,0,0,0,0,39,39,28,,,,,,,,,,,215.6688896000269,None,216.69012980000116,None,216.69012980000116,None,216.69012980000116,None,216.69012980000116,None,216.69012980000116,None,216.69012980000116,None,216.69012980000116,None,216.69012980000116,None,216.69012980000116,None,216.69012980000116,None,216.69012980000116,None,j,2.718925199995283,216.69012980000116,None,target,None,None,None,None,None,None,None,,,,,,,,,,,,,,ST01_112522,2022-11-25_13h28.27.147,Hippopolis_4AFCT,2021.1.4,60.19849853380518,
Camponello,stimuli/subj_files/ST01_112522_cityB.csv,./stimuli/hallstatt.jpg,./stimuli/street_plate2.png,LEGELŐ UTCA,stimuli/objects/034a.jpg,object,1,stimuli/objects/065a.jpg,stimuli/objects/067b.jpg,stimuli/objects/065a.jpg,stimuli/objects/067a.jpg,stimuli/objects/065b.jpg,dist2,target,dist1,lure,0,0,0,0,0,40,40,21,,,,,,,,,,,219.43496199999936,None,220.4588633000094,None,220.4588633000094,None,220.4588633000094,None,220.4588633000094,None,220.4588633000094,None,220.4588633000094,None,220.4588633000094,None,220.4588633000094,None,220.4588633000094,None,220.4588633000094,None,220.4588633000094,None,f,2.1064334000111558,220.4588633000094,None,target,None,None,None,None,None,None,None,,,,,,,,,,,,,,ST01_112522,2022-11-25_13h28.27.147,Hippopolis_4AFCT,2021.1.4,60.19849853380518,
Camponello,stimuli/subj_files/ST01_112522_cityB.csv,./stimuli/hallstatt.jpg,./stimuli/street_plate2.png,TERÍTŐ UTCA,stimuli/objects/070a.jpg,object,0,stimuli/objects/070a.jpg,stimuli/objects/070b.jpg,stimuli/objects/070a.jpg,stimuli/objects/030a.jpg,stimuli/objects/030b.jpg,lure,target,dist1,dist2,0,0,0,0,0,41,41,64,,,,,,,,,,,222.58501950002392,None,223.62182940001367,None,223.62182940001367,None,223.62182940001367,None,223.62182940001367,None,223.62182940001367,None,223.62182940001367,None,223.62182940001367,None,223.62182940001367,None,223.62182940001367,None,223.62182940001367,None,223.62182940001367,None,f,2.9006263999908697,223.62182940001367,None,target,None,None,None,None,None,None,None,,,,,,,,,,,,,,ST01_112522,2022-11-25_13h28.27.147,Hippopolis_4AFCT,2021.1.4,60.19849853380518,
Camponello,stimuli/subj_files/ST01_112522_cityB.csv,./stimuli/hallstatt.jpg,./stimuli/street_plate2.png,TOJÁS UTCA,stimuli/objects/003a.jpg,object,0,stimuli/objects/003a.jpg,stimuli/objects/087a.jpg,stimuli/objects/087b.jpg,stimuli/objects/003a.jpg,stimuli/objects/003b.jpg,dist1,dist2,target,lure,0,0,0,0,0,42,42,47,,,,,,,,,,,226.55240280000726,None,227.58898380000028,None,227.58898380000028,None,227.58898380000028,None,227.58898380000028,None,227.58898380000028,None,227.58898380000028,None,227.58898380000028,None,227.58898380000028,None,227.58898380000028,None,227.58898380000028,None,227.58898380000028,None,j,2.191750099998899,227.58898380000028,None,target,None,None,None,None,None,None,None,,,,,,,,,,,,,,ST01_112522,2022-11-25_13h28.27.147,Hippopolis_4AFCT,2021.1.4,60.19849853380518,
Camponello,stimuli/subj_files/ST01_112522_cityB.csv,./stimuli/hallstatt.jpg,./stimuli/street_plate2.png,PÉKSÉG UTCA,stimuli/scenes/105a.jpg,scene,1,stimuli/scenes/089a.jpg,stimuli/scenes/089b.jpg,stimuli/scenes/074b.jpg,stimuli/scenes/074a.jpg,stimuli/scenes/089a.jpg,lure,dist2,dist1,target,0,0,0,0,0,43,43,77,,,,,,,,,,,229.80138000001898,None,230.82170700002462,None,230.82170700002462,None,230.82170700002462,None,230.82170700002462,None,230.82170700002462,None,230.82170700002462,None,230.82170700002462,None,230.82170700002462,None,230.82170700002462,None,230.82170700002462,None,230.82170700002462,None,k,4.546120699989842,230.82170700002462,None,target,234.31902900000568,None,None,None,None,None,None,,,,,,,,,,,,,,ST01_112522,2022-11-25_13h28.27.147,Hippopolis_4AFCT,2021.1.4,60.19849853380518,
Camponello,stimuli/subj_files/ST01_112522_cityB.csv,./stimuli/hallstatt.jpg,./stimuli/street_plate2.png,CITROM UTCA,stimuli/scenes/052a.jpg,scene,1,stimuli/scenes/082a.jpg,stimuli/scenes/045b.jpg,stimuli/scenes/082b.jpg,stimuli/scenes/082a.jpg,stimuli/scenes/045a.jpg,dist2,lure,target,dist1,0,0,0,0,0,44,44,55,,,,,,,,,,,235.38522940000985,None,236.39430680000805,None,236.39430680000805,None,236.39430680000805,None,236.39430680000805,None,236.39430680000805,None,236.39430680000805,None,236.39430680000805,None,236.39430680000805,None,236.39430680000805,None,236.39430680000805,None,236.39430680000805,None,d,4.680198899994139,236.39430680000805,None,dist2,239.8856450000021,None,241.10186270001577,None,space,241.10186270001577,None,2.7507142999966163,,,,,,,,,,,,,ST01_112522,2022-11-25_13h28.27.147,Hippopolis_4AFCT,2021.1.4,60.19849853380518,
Camponello,stimuli/subj_files/ST01_112522_cityB.csv,./stimuli/hallstatt.jpg,./stimuli/street_plate2.png,AKÁC UTCA,stimuli/objects/062a.jpg,object,0,stimuli/objects/062a.jpg,stimuli/scenes/053a.jpg,stimuli/scenes/053b.jpg,stimuli/objects/062a.jpg,stimuli/objects/062b.jpg,dist1,dist2,target,lure,0,0,0,0,0,45,45,41,,,,,,,,,,,243.8850774000166,None,244.91412320002564,None,244.91412320002564,None,244.91412320002564,None,244.91412320002564,None,244.91412320002564,None,244.91412320002564,None,244.91412320002564,None,244.91412320002564,None,244.91412320002564,None,244.91412320002564,None,244.91412320002564,None,j,2.4564267999958247,244.91412320002564,None,target,None,None,None,None,None,None,None,,,,,,,,,,,,,,ST01_112522,2022-11-25_13h28.27.147,Hippopolis_4AFCT,2021.1.4,60.19849853380518,
Camponello,stimuli/subj_files/ST01_112522_cityB.csv,./stimuli/hallstatt.jpg,./stimuli/street_plate2.png,KOKTÉL UTCA,stimuli/objects/030a.jpg,object,0,stimuli/objects/030a.jpg,stimuli/objects/030a.jpg,stimuli/objects/030b.jpg,stimuli/scenes/081a.jpg,stimuli/scenes/081b.jpg,target,lure,dist1,dist2,0,0,0,0,0,46,46,35,,,,,,,,,,,247.40181840001605,None,248.43174040000304,None,248.43174040000304,None,248.43174040000304,None,248.43174040000304,None,248.43174040000304,None,248.43174040000304,None,248.43174040000304,None,248.43174040000304,None,248.43174040000304,None,248.43174040000304,None,248.43174040000304,None,d,1.5859186000016052,248.43174040000304,None,target,None,None,None,None,None,None,None,,,,,,,,,,,,,,ST01_112522,2022-11-25_13h28.27.147,Hippopolis_4AFCT,2021.1.4,60.19849853380518,
Camponello,stimuli/subj_files/ST01_112522_cityB.csv,./stimuli/hallstatt.jpg,./stimuli/street_plate2.png,BETON UTCA,stimuli/scenes/095a.jpg,scene,1,stimuli/scenes/080a.jpg,stimuli/scenes/080b.jpg,stimuli/scenes/080a.jpg,stimuli/objects/091a.jpg,stimuli/objects/091b.jpg,lure,target,dist1,dist2,0,0,0,0,0,47,47,14,,,,,,,,,,,250.03484780000872,None,251.05301970001892,None,251.05301970001892,None,251.05301970001892,None,251.05301970001892,None,251.05301970001892,None,251.05301970001892,None,251.05301970001892,None,251.05301970001892,None,251.05301970001892,None,251.05301970001892,None,251.05301970001892,None,j,2.0852805999747943,251.05301970001892,None,dist1,None,None,None,None,None,None,None,,,,,,,,,,,,,,ST01_112522,2022-11-25_13h28.27.147,Hippopolis_4AFCT,2021.1.4,60.19849853380518,
Camponello,stimuli/subj_files/ST01_112522_cityB.csv,./stimuli/hallstatt.jpg,./stimuli/street_plate2.png,FÓKA UTCA,stimuli/objects/106a.jpg,object,0,stimuli/objects/106a.jpg,stimuli/objects/106a.jpg,stimuli/objects/051b.jpg,stimuli/objects/051a.jpg,stimuli/objects/106b.jpg,target,dist2,dist1,lure,0,0,0,0,0,48,48,50,,,,,,,,,,,253.16826670002774,None,254.19354320000275,None,254.19354320000275,None,254.19354320000275,None,254.19354320000275,None,254.19354320000275,None,254.19354320000275,None,254.19354320000275,None,254.19354320000275,None,254.19354320000275,None,254.19354320000275,None,254.19354320000275,None,d,3.482524500024738,254.19354320000275,None,target,257.68532740001683,None,None,None,None,None,None,,,,,,,,,,,,,,ST01_112522,2022-11-25_13h28.27.147,Hippopolis_4AFCT,2021.1.4,60.19849853380518,
Camponello,stimuli/subj_files/ST01_112522_cityB.csv,./stimuli/hallstatt.jpg,./stimuli/street_plate2.png,ZÁSZLÓ UTCA,stimuli/objects/050a.jpg,object,1,stimuli/objects/067a.jpg,stimuli/objects/065b.jpg,stimuli/objects/065a.jpg,stimuli/objects/067a.jpg,stimuli/objects/067b.jpg,dist2,dist1,target,lure,0,0,0,0,0,49,49,71,,,,,,,,,,,257.7015695000009,None,258.7138226000243,None,258.7138226000243,None,258.7138226000243,None,258.7138226000243,None,258.7138226000243,None,258.7138226000243,None,258.7138226000243,None,258.7138226000243,None,258.7138226000243,None,258.7138226000243,None,258.7138226000243,None,j,3.121237499988638,258.7138226000243,None,target,None,None,None,None,None,None,None,,,,,,,,,,,,,,ST01_112522,2022-11-25_13h28.27.147,Hippopolis_4AFCT,2021.1.4,60.19849853380518,
Camponello,stimuli/subj_files/ST01_112522_cityB.csv,./stimuli/hallstatt.jpg,./stimuli/street_plate2.png,KULLANCS UTCA,stimuli/objects/040a.jpg,object,2,stimuli/scenes/109a.jpg,stimuli/objects/016a.jpg,stimuli/objects/016b.jpg,stimuli/scenes/109b.jpg,stimuli/scenes/109a.jpg,dist1,dist2,lure,target,0,0,0,0,0,50,50,67,,,,,,,,,,,261.85145240000566,None,262.9042984000116,None,262.9042984000116,None,262.9042984000116,None,262.9042984000116,None,262.9042984000116,None,262.9042984000116,None,262.9042984000116,None,262.9042984000116,None,262.9042984000116,None,262.9042984000116,None,262.9042984000116,None,k,2.592339199996786,262.9042984000116,None,target,None,None,None,None,None,None,None,,,,,,,,,,,,,,ST01_112522,2022-11-25_13h28.27.147,Hippopolis_4AFCT,2021.1.4,60.19849853380518,
Camponello,stimuli/subj_files/ST01_112522_cityB.csv,./stimuli/hallstatt.jpg,./stimuli/street_plate2.png,SZŐLŐ UTCA,stimuli/objects/098a.jpg,object,0,stimuli/objects/098a.jpg,stimuli/scenes/038b.jpg,stimuli/scenes/038a.jpg,stimuli/objects/098b.jpg,stimuli/objects/098a.jpg,dist2,dist1,lure,target,0,0,0,0,0,51,51,57,,,,,,,,,,,265.51799220000976,None,266.5493937000283,None,266.5493937000283,None,266.5493937000283,None,266.5493937000283,None,266.5493937000283,None,266.5493937000283,None,266.5493937000283,None,266.5493937000283,None,266.5493937000283,None,266.5493937000283,None,266.5493937000283,None,j,2.026998300018022,266.5493937000283,None,lure,None,None,None,None,None,None,None,,,,,,,,,,,,,,ST01_112522,2022-11-25_13h28.27.147,Hippopolis_4AFCT,2021.1.4,60.19849853380518,
Camponello,stimuli/subj_files/ST01_112522_cityB.csv,./stimuli/hallstatt.jpg,./stimuli/street_plate2.png,SZALVÉTA UTCA,stimuli/objects/011a.jpg,object,0,stimuli/objects/011a.jpg,stimuli/objects/013b.jpg,stimuli/objects/011a.jpg,stimuli/objects/011b.jpg,stimuli/objects/013a.jpg,dist2,target,lure,dist1,0,0,0,0,0,52,52,46,,,,,,,,,,,268.6012916000036,None,269.63907610002207,None,269.63907610002207,None,269.63907610002207,None,269.63907610002207,None,269.63907610002207,None,269.63907610002207,None,269.63907610002207,None,269.63907610002207,None,269.63907610002207,None,269.63907610002207,None,269.63907610002207,None,f,4.458374500012724,269.63907610002207,None,target,273.1350578000129,None,None,None,None,None,None,,,,,,,,,,,,,,ST01_112522,2022-11-25_13h28.27.147,Hippopolis_4AFCT,2021.1.4,60.19849853380518,
Camponello,stimuli/subj_files/ST01_112522_cityB.csv,./stimuli/hallstatt.jpg,./stimuli/street_plate2.png,POLIP UTCA,stimuli/scenes/099a.jpg,scene,0,stimuli/scenes/099a.jpg,stimuli/scenes/099b.jpg,stimuli/scenes/090b.jpg,stimuli/scenes/090a.jpg,stimuli/scenes/099a.jpg,lure,dist2,dist1,target,0,0,0,0,0,53,53,4,,,,,,,,,,,274.1171854000131,None,275.1375148000079,None,275.1375148000079,None,275.1375148000079,None,275.1375148000079,None,275.1375148000079,None,275.1375148000079,None,275.1375148000079,None,275.1375148000079,None,275.1375148000079,None,275.1375148000079,None,275.1375148000079,None,k,1.9755537000019103,275.1375148000079,None,target,None,None,None,None,None,None,None,,,,,,,,,,,,,,ST01_112522,2022-11-25_13h28.27.147,Hippopolis_4AFCT,2021.1.4,60.19849853380518,
Camponello,stimuli/subj_files/ST01_112522_cityB.csv,./stimuli/hallstatt.jpg,./stimuli/street_plate2.png,GYŰRŰ UTCA,stimuli/objects/025a.jpg,object,0,stimuli/objects/025a.jpg,stimuli/objects/025b.jpg,stimuli/objects/062a.jpg,stimuli/objects/025a.jpg,stimuli/objects/062b.jpg,lure,dist1,target,dist2,0,0,0,0,0,54,54,34,,,,,,,,,,,277.13443950001965,None,278.1725246000278,None,278.1725246000278,None,278.1725246000278,None,278.1725246000278,None,278.1725246000278,None,278.1725246000278,None,278.1725246000278,None,278.1725246000278,None,278.1725246000278,None,278.1725246000278,None,278.1725246000278,None,j,1.8491344999929424,278.1725246000278,None,target,None,None,None,None,None,None,None,,,,,,,,,,,,,,ST01_112522,2022-11-25_13h28.27.147,Hippopolis_4AFCT,2021.1.4,60.19849853380518,
Camponello,stimuli/subj_files/ST01_112522_cityB.csv,./stimuli/hallstatt.jpg,./stimuli/street_plate2.png,TALICSKA UTCA,stimuli/objects/097a.jpg,object,0,stimuli/objects/097a.jpg,stimuli/objects/097a.jpg,stimuli/objects/097b.jpg,stimuli/scenes/083b.jpg,stimuli/scenes/083a.jpg,target,lure,dist2,dist1,0,0,0,0,0,55,55,15,,,,,,,,,,,280.051180200011,None,281.0795144000149,None,281.0795144000149,None,281.0795144000149,None,281.0795144000149,None,281.0795144000149,None,281.0795144000149,None,281.0795144000149,None,281.0795144000149,None,281.0795144000149,None,281.0795144000149,None,281.0795144000149,None,d,1.9321689000062179,281.0795144000149,None,target,None,None,None,None,None,None,None,,,,,,,,,,,,,,ST01_112522,2022-11-25_13h28.27.147,Hippopolis_4AFCT,2021.1.4,60.19849853380518,
Camponello,stimuli/subj_files/ST01_112522_cityB.csv,./stimuli/hallstatt.jpg,./stimuli/street_plate2.png,LIGET UTCA,stimuli/scenes/061a.jpg,scene,0,stimuli/scenes/061a.jpg,stimuli/scenes/061b.jpg,stimuli/objects/025a.jpg,stimuli/objects/025b.jpg,stimuli/scenes/061a.jpg,lure,dist1,dist2,target,0,0,0,0,0,56,56,25,,,,,,,,,,,283.03432410000823,None,284.06644780002534,None,284.06644780002534,None,284.06644780002534,None,284.06644780002534,None,284.06644780002534,None,284.06644780002534,None,284.06644780002534,None,284.06644780002534,None,284.06644780002534,None,284.06644780002534,None,284.06644780002534,None,d,2.8510161000012886,284.06644780002534,None,lure,None,None,None,None,None,None,None,,,,,,,,,,,,,,ST01_112522,2022-11-25_13h28.27.147,Hippopolis_4AFCT,2021.1.4,60.19849853380518,
Camponello,stimuli/subj_files/ST01_112522_cityB.csv,./stimuli/hallstatt.jpg,./stimuli/street_plate2.png,MOGYORÓ UTCA,stimuli/scenes/092a.jpg,scene,2,stimuli/objects/014a.jpg,stimuli/scenes/041b.jpg,stimuli/objects/014a.jpg,stimuli/scenes/041a.jpg,stimuli/objects/014b.jpg,dist2,target,dist1,lure,0,0,0,0,0,57,57,32,,,,,,,,,,,286.93385000000126,None,287.9598206000228,None,287.9598206000228,None,287.9598206000228,None,287.9598206000228,None,287.9598206000228,None,287.9598206000228,None,287.9598206000228,None,287.9598206000228,None,287.9598206000228,None,287.9598206000228,None,287.9598206000228,None,f,3.445871599979,287.9598206000228,None,target,None,None,None,None,None,None,None,,,,,,,,,,,,,,ST01_112522,2022-11-25_13h28.27.147,Hippopolis_4AFCT,2021.1.4,60.19849853380518,
Camponello,stimuli/subj_files/ST01_112522_cityB.csv,./stimuli/hallstatt.jpg,./stimuli/street_plate2.png,SIRÁLY UTCA,stimuli/objects/004a.jpg,object,2,stimuli/scenes/030a.jpg,stimuli/scenes/030b.jpg,stimuli/objects/014a.jpg,stimuli/scenes/030a.jpg,stimuli/objects/014b.jpg,lure,dist1,target,dist2,0,0,0,0,0,58,58,42,,,,,,,,,,,291.43419620001805,None,292.4365528000053,None,292.4365528000053,None,292.4365528000053,None,292.4365528000053,None,292.4365528000053,None,292.4365528000053,None,292.4365528000053,None,292.4365528000053,None,292.4365528000053,None,292.4365528000053,None,292.4365528000053,None,j,3.4392958999960683,292.4365528000053,None,target,None,None,None,None,None,None,None,,,,,,,,,,,,,,ST01_112522,2022-11-25_13h28.27.147,Hippopolis_4AFCT,2021.1.4,60.19849853380518,
Camponello,stimuli/subj_files/ST01_112522_cityB.csv,./stimuli/hallstatt.jpg,./stimuli/street_plate2.png,KESZTYŰ UTCA,stimuli/objects/118a.jpg,object,2,stimuli/scenes/017a.jpg,stimuli/scenes/017a.jpg,stimuli/scenes/017b.jpg,stimuli/objects/058b.jpg,stimuli/objects/058a.jpg,target,lure,dist2,dist1,0,0,0,0,0,59,59,36,,,,,,,,,,,295.9007808000024,None,296.91298690001713,None,296.91298690001713,None,296.91298690001713,None,296.91298690001713,None,296.91298690001713,None,296.91298690001713,None,296.91298690001713,None,296.91298690001713,None,296.91298690001713,None,296.91298690001713,None,296.91298690001713,None,d,2.38117219999549,296.91298690001713,None,target,None,None,None,None,None,None,None,,,,,,,,,,,,,,ST01_112522,2022-11-25_13h28.27.147,Hippopolis_4AFCT,2021.1.4,60.19849853380518,
Camponello,stimuli/subj_files/ST01_112522_cityB.csv,./stimuli/hallstatt.jpg,./stimuli/street_plate2.png,TERASZ UTCA,stimuli/objects/072a.jpg,object,0,stimuli/objects/072a.jpg,stimuli/objects/072a.jpg,stimuli/scenes/118a.jpg,stimuli/objects/072b.jpg,stimuli/scenes/118b.jpg,target,dist1,lure,dist2,0,0,0,0,0,60,60,65,,,,,,,,,,,299.3172067000123,None,300.34858340001665,None,300.34858340001665,None,300.34858340001665,None,300.34858340001665,None,300.34858340001665,None,300.34858340001665,None,300.34858340001665,None,300.34858340001665,None,300.34858340001665,None,300.34858340001665,None,300.34858340001665,None,d,1.3318244999973103,300.34858340001665,None,target,None,None,None,None,None,None,None,,,,,,,,,,,,,,ST01_112522,2022-11-25_13h28.27.147,Hippopolis_4AFCT,2021.1.4,60.19849853380518,
Camponello,stimuli/subj_files/ST01_112522_cityB.csv,./stimuli/hallstatt.jpg,./stimuli/street_plate2.png,ÁRNYÉK UTCA,stimuli/objects/033a.jpg,object,0,stimuli/objects/033a.jpg,stimuli/objects/070a.jpg,stimuli/objects/070b.jpg,stimuli/objects/033a.jpg,stimuli/objects/033b.jpg,dist1,dist2,target,lure,0,0,0,0,0,61,61,2,,,,,,,,,,,301.7008441000071,None,302.7188053000136,None,302.7188053000136,None,302.7188053000136,None,302.7188053000136,None,302.7188053000136,None,302.7188053000136,None,302.7188053000136,None,302.7188053000136,None,302.7188053000136,None,302.7188053000136,None,302.7188053000136,None,j,2.4541334999958053,302.7188053000136,None,target,None,None,None,None,None,None,None,,,,,,,,,,,,,,ST01_112522,2022-11-25_13h28.27.147,Hippopolis_4AFCT,2021.1.4,60.19849853380518,
Camponello,stimuli/subj_files/ST01_112522_cityB.csv,./stimuli/hallstatt.jpg,./stimuli/street_plate2.png,HERNYÓ UTCA,stimuli/objects/109a.jpg,object,0,stimuli/objects/109a.jpg,stimuli/scenes/061b.jpg,stimuli/objects/109b.jpg,stimuli/scenes/061a.jpg,stimuli/objects/109a.jpg,dist2,lure,dist1,target,0,0,0,0,0,62,62,31,,,,,,,,,,,305.20050480001373,None,306.2096772000077,None,306.2096772000077,None,306.2096772000077,None,306.2096772000077,None,306.2096772000077,None,306.2096772000077,None,306.2096772000077,None,306.2096772000077,None,306.2096772000077,None,306.2096772000077,None,306.2096772000077,None,k,2.604839500010712,306.2096772000077,None,target,None,None,None,None,None,None,None,,,,,,,,,,,,,,ST01_112522,2022-11-25_13h28.27.147,Hippopolis_4AFCT,2021.1.4,60.19849853380518,
Camponello,stimuli/subj_files/ST01_112522_cityB.csv,./stimuli/hallstatt.jpg,./stimuli/street_plate2.png,PÁRNA UTCA,stimuli/scenes/037a.jpg,scene,1,stimuli/scenes/074a.jpg,stimuli/scenes/074b.jpg,stimuli/objects/100a.jpg,stimuli/objects/100b.jpg,stimuli/scenes/074a.jpg,lure,dist1,dist2,target,0,0,0,0,0,63,63,49,,,,,,,,,,,308.8339014000085,None,309.84698110001045,None,309.84698110001045,None,309.84698110001045,None,309.84698110001045,None,309.84698110001045,None,309.84698110001045,None,309.84698110001045,None,309.84698110001045,None,309.84698110001045,None,309.84698110001045,None,309.84698110001045,None,k,2.4027453000016976,309.84698110001045,None,target,None,None,None,None,None,None,None,,,,,,,,,,,,,,ST01_112522,2022-11-25_13h28.27.147,Hippopolis_4AFCT,2021.1.4,60.19849853380518,
Camponello,stimuli/subj_files/ST01_112522_cityB.csv,./stimuli/hallstatt.jpg,./stimuli/street_plate2.png,SZILVA UTCA,stimuli/scenes/090a.jpg,scene,0,stimuli/scenes/090a.jpg,stimuli/scenes/065a.jpg,stimuli/scenes/065b.jpg,stimuli/scenes/090a.jpg,stimuli/scenes/090b.jpg,dist1,dist2,target,lure,0,0,0,0,0,64,64,16,,,,,,,,,,,312.2666413000261,None,313.2871536000166,None,313.2871536000166,None,313.2871536000166,None,313.2871536000166,None,313.2871536000166,None,313.2871536000166,None,313.2871536000166,None,313.2871536000166,None,313.2871536000166,None,313.2871536000166,None,313.2871536000166,None,j,2.4689281999890227,313.2871536000166,None,target,None,None,None,None,None,None,None,,,,,,,,,,,,,,ST01_112522,2022-11-25_13h28.27.147,Hippopolis_4AFCT,2021.1.4,60.19849853380518,
Camponello,stimuli/subj_files/ST01_112522_cityB.csv,./stimuli/hallstatt.jpg,./stimuli/street_plate2.png,KÓKUSZ UTCA,stimuli/objects/076a.jpg,object,0,stimuli/objects/076a.jpg,stimuli/objects/090a.jpg,stimuli/objects/076a.jpg,stimuli/objects/076b.jpg,stimuli/objects/090b.jpg,dist1,target,lure,dist2,0,0,0,0,0,65,65,10,,,,,,,,,,,315.7838186000008,None,316.8008539000002,None,316.8008539000002,None,316.8008539000002,None,316.8008539000002,None,316.8008539000002,None,316.8008539000002,None,316.8008539000002,None,316.8008539000002,None,316.8008539000002,None,316.8008539000002,None,316.8008539000002,None,f,2.020862200006377,316.8008539000002,None,target,None,None,None,None,None,None,None,,,,,,,,,,,,,,ST01_112522,2022-11-25_13h28.27.147,Hippopolis_4AFCT,2021.1.4,60.19849853380518,
Camponello,stimuli/subj_files/ST01_112522_cityB.csv,./stimuli/hallstatt.jpg,./stimuli/street_plate2.png,KRÉTA UTCA,stimuli/objects/093a.jpg,object,0,stimuli/objects/093a.jpg,stimuli/objects/003a.jpg,stimuli/objects/003b.jpg,stimuli/objects/093b.jpg,stimuli/objects/093a.jpg,dist1,dist2,lure,target,0,0,0,0,0,66,66,53,,,,,,,,,,,318.85040790002677,None,319.87541590002365,None,319.87541590002365,None,319.87541590002365,None,319.87541590002365,None,319.87541590002365,None,319.87541590002365,None,319.87541590002365,None,319.87541590002365,None,319.87541590002365,None,319.87541590002365,None,319.87541590002365,None,k,2.1430429999891203,319.87541590002365,None,target,None,None,None,None,None,None,None,,,,,,,,,,,,,,ST01_112522,2022-11-25_13h28.27.147,Hippopolis_4AFCT,2021.1.4,60.19849853380518,
Camponello,stimuli/subj_files/ST01_112522_cityB.csv,./stimuli/hallstatt.jpg,./stimuli/street_plate2.png,SIVATAG UTCA,stimuli/objects/013a.jpg,object,0,stimuli/objects/013a.jpg,stimuli/objects/097b.jpg,stimuli/objects/097a.jpg,stimuli/objects/013a.jpg,stimuli/objects/013b.jpg,dist2,dist1,target,lure,0,0,0,0,0,67,67,62,,,,,,,,,,,322.05042950002826,None,323.0781488000066,None,323.0781488000066,None,323.0781488000066,None,323.0781488000066,None,323.0781488000066,None,323.0781488000066,None,323.0781488000066,None,323.0781488000066,None,323.0781488000066,None,323.0781488000066,None,323.0781488000066,None,j,2.0558982999937143,323.0781488000066,None,target,None,None,None,None,None,None,None,,,,,,,,,,,,,,ST01_112522,2022-11-25_13h28.27.147,Hippopolis_4AFCT,2021.1.4,60.19849853380518,
Camponello,stimuli/subj_files/ST01_112522_cityB.csv,./stimuli/hallstatt.jpg,./stimuli/street_plate2.png,LÁNDZSA UTCA,stimuli/scenes/036a.jpg,scene,0,stimuli/scenes/036a.jpg,stimuli/scenes/036b.jpg,stimuli/scenes/093b.jpg,stimuli/scenes/093a.jpg,stimuli/scenes/036a.jpg,lure,dist2,dist1,target,0,0,0,0,0,68,68,19,,,,,,,,,,,325.1497508000175,None,326.16164640002535,None,326.16164640002535,None,326.16164640002535,None,326.16164640002535,None,326.16164640002535,None,326.16164640002535,None,326.16164640002535,None,326.16164640002535,None,326.16164640002535,None,326.16164640002535,None,326.16164640002535,None,k,2.3871599000121932,326.16164640002535,None,target,None,None,None,None,None,None,None,,,,,,,,,,,,,,ST01_112522,2022-11-25_13h28.27.147,Hippopolis_4AFCT,2021.1.4,60.19849853380518,
Camponello,stimuli/subj_files/ST01_112522_cityB.csv,./stimuli/hallstatt.jpg,./stimuli/street_plate2.png,PAPRIKA UTCA,stimuli/scenes/038a.jpg,scene,0,stimuli/scenes/038a.jpg,stimuli/scenes/038b.jpg,stimuli/scenes/043b.jpg,stimuli/scenes/043a.jpg,stimuli/scenes/038a.jpg,lure,dist2,dist1,target,0,0,0,0,0,69,69,30,,,,,,,,,,,328.56637200000114,None,329.5793556999997,None,329.5793556999997,None,329.5793556999997,None,329.5793556999997,None,329.5793556999997,None,329.5793556999997,None,329.5793556999997,None,329.5793556999997,None,329.5793556999997,None,329.5793556999997,None,329.5793556999997,None,k,3.0067000999988522,329.5793556999997,None,target,None,None,None,None,None,None,None,,,,,,,,,,,,,,ST01_112522,2022-11-25_13h28.27.147,Hippopolis_4AFCT,2021.1.4,60.19849853380518,
Camponello,stimuli/subj_files/ST01_112522_cityB.csv,./stimuli/hallstatt.jpg,./stimuli/street_plate2.png,KOCKA UTCA,stimuli/scenes/010a.jpg,scene,0,stimuli/scenes/010a.jpg,stimuli/scenes/075b.jpg,stimuli/scenes/075a.jpg,stimuli/scenes/010b.jpg,stimuli/scenes/010a.jpg,dist2,dist1,lure,target,0,0,0,0,0,70,70,74,,,,,,,,,,,332.61656310001854,None,333.63282580001396,None,333.63282580001396,None,333.63282580001396,None,333.63282580001396,None,333.63282580001396,None,333.63282580001396,None,333.63282580001396,None,333.63282580001396,None,333.63282580001396,None,333.63282580001396,None,333.63282580001396,None,k,2.558823900006246,333.63282580001396,None,target,None,None,None,None,None,None,None,,,,,,,,,,,,,,ST01_112522,2022-11-25_13h28.27.147,Hippopolis_4AFCT,2021.1.4,60.19849853380518,
Camponello,stimuli/subj_files/ST01_112522_cityB.csv,./stimuli/hallstatt.jpg,./stimuli/street_plate2.png,MENTA UTCA,stimuli/objects/104a.jpg,object,1,stimuli/objects/092a.jpg,stimuli/objects/092a.jpg,stimuli/scenes/080b.jpg,stimuli/objects/092b.jpg,stimuli/scenes/080a.jpg,target,dist2,lure,dist1,0,0,0,0,0,71,71,70,,,,,,,,,,,336.2169040000008,None,337.2215145000082,None,337.2215145000082,None,337.2215145000082,None,337.2215145000082,None,337.2215145000082,None,337.2215145000082,None,337.2215145000082,None,337.2215145000082,None,337.2215145000082,None,337.2215145000082,None,337.2215145000082,None,d,1.8837117000075523,337.2215145000082,None,target,None,None,None,None,None,None,None,,,,,,,,,,,,,,ST01_112522,2022-11-25_13h28.27.147,Hippopolis_4AFCT,2021.1.4,60.19849853380518,
Camponello,stimuli/subj_files/ST01_112522_cityB.csv,./stimuli/hallstatt.jpg,./stimuli/street_plate2.png,MOSODA UTCA,stimuli/scenes/065a.jpg,scene,0,stimuli/scenes/065a.jpg,stimuli/scenes/065a.jpg,stimuli/objects/057b.jpg,stimuli/scenes/065b.jpg,stimuli/objects/057a.jpg,target,dist2,lure,dist1,0,0,0,0,0,72,72,1,,,,,,,,,,,339.13340800002334,None,340.1567806000239,None,340.1567806000239,None,340.1567806000239,None,340.1567806000239,None,340.1567806000239,None,340.1567806000239,None,340.1567806000239,None,340.1567806000239,None,340.1567806000239,None,340.1567806000239,None,340.1567806000239,None,d,1.8278076999995392,340.1567806000239,None,target,None,None,None,None,None,None,None,,,,,,,,,,,,,,ST01_112522,2022-11-25_13h28.27.147,Hippopolis_4AFCT,2021.1.4,60.19849853380518,
Camponello,stimuli/subj_files/ST01_112522_cityB.csv,./stimuli/hallstatt.jpg,./stimuli/street_plate2.png,KERET UTCA,stimuli/objects/094a.jpg,object,1,stimuli/objects/091a.jpg,stimuli/objects/091b.jpg,stimuli/objects/007b.jpg,stimuli/objects/091a.jpg,stimuli/objects/007a.jpg,lure,dist2,target,dist1,0,0,0,0,0,73,73,6,,,,,,,,,,,342.01676770002814,None,343.0441605000233,None,343.0441605000233,None,343.0441605000233,None,343.0441605000233,None,343.0441605000233,None,343.0441605000233,None,343.0441605000233,None,343.0441605000233,None,343.0441605000233,None,343.0441605000233,None,343.0441605000233,None,k,1.8359207000175957,343.0441605000233,None,dist1,None,None,None,None,None,None,None,,,,,,,,,,,,,,ST01_112522,2022-11-25_13h28.27.147,Hippopolis_4AFCT,2021.1.4,60.19849853380518,
Camponello,stimuli/subj_files/ST01_112522_cityB.csv,./stimuli/hallstatt.jpg,./stimuli/street_plate2.png,BÚJÓCSKA UTCA,stimuli/scenes/047a.jpg,scene,0,stimuli/scenes/047a.jpg,stimuli/scenes/047a.jpg,stimuli/objects/072a.jpg,stimuli/objects/072b.jpg,stimuli/scenes/047b.jpg,target,dist1,dist2,lure,0,0,0,0,0,74,74,9,,,,,,,,,,,344.90000530000543,None,345.91681630001403,None,345.91681630001403,None,345.91681630001403,None,345.91681630001403,None,345.91681630001403,None,345.91681630001403,None,345.91681630001403,None,345.91681630001403,None,345.91681630001403,None,345.91681630001403,None,345.91681630001403,None,d,2.9397107000113465,345.91681630001403,None,target,None,None,None,None,None,None,None,,,,,,,,,,,,,,ST01_112522,2022-11-25_13h28.27.147,Hippopolis_4AFCT,2021.1.4,60.19849853380518,
Camponello,stimuli/subj_files/ST01_112522_cityB.csv,./stimuli/hallstatt.jpg,./stimuli/street_plate2.png,ASZTAL UTCA,stimuli/scenes/066a.jpg,scene,2,stimuli/objects/078a.jpg,stimuli/objects/078a.jpg,stimuli/scenes/109b.jpg,stimuli/objects/078b.jpg,stimuli/scenes/109a.jpg,target,dist2,lure,dist1,0,0,0,0,0,75,75,59,,,,,,,,,,,348.88314119999995,None,349.9038068000227,None,349.9038068000227,None,349.9038068000227,None,349.9038068000227,None,349.9038068000227,None,349.9038068000227,None,349.9038068000227,None,349.9038068000227,None,349.9038068000227,None,349.9038068000227,None,349.9038068000227,None,j,3.239500899973791,349.9038068000227,None,lure,None,None,None,None,None,None,None,,,,,,,,,,,,,,ST01_112522,2022-11-25_13h28.27.147,Hippopolis_4AFCT,2021.1.4,60.19849853380518,
Camponello,stimuli/subj_files/ST01_112522_cityB.csv,./stimuli/hallstatt.jpg,./stimuli/street_plate2.png,FÉNYKÉP UTCA,stimuli/scenes/075a.jpg,scene,0,stimuli/scenes/075a.jpg,stimuli/scenes/075a.jpg,stimuli/scenes/047a.jpg,stimuli/scenes/075b.jpg,stimuli/scenes/047b.jpg,target,dist1,lure,dist2,0,0,0,0,0,76,76,52,,,,,,,,,,,353.1660642000206,None,354.1814704000135,None,354.1814704000135,None,354.1814704000135,None,354.1814704000135,None,354.1814704000135,None,354.1814704000135,None,354.1814704000135,None,354.1814704000135,None,354.1814704000135,None,354.1814704000135,None,354.1814704000135,None,d,2.3106234000006225,354.1814704000135,None,target,None,None,None,None,None,None,None,,,,,,,,,,,,,,ST01_112522,2022-11-25_13h28.27.147,Hippopolis_4AFCT,2021.1.4,60.19849853380518,
Camponello,stimuli/subj_files/ST01_112522_cityB.csv,./stimuli/hallstatt.jpg,./stimuli/street_plate2.png,HORDÓ UTCA,stimuli/objects/084a.jpg,object,0,stimuli/objects/084a.jpg,stimuli/objects/084a.jpg,stimuli/scenes/039a.jpg,stimuli/objects/084b.jpg,stimuli/scenes/039b.jpg,target,dist1,lure,dist2,0,0,0,0,0,77,77,75,,,,,,,,,,,356.5164783000073,None,357.5433775000274,None,357.5433775000274,None,357.5433775000274,None,357.5433775000274,None,357.5433775000274,None,357.5433775000274,None,357.5433775000274,None,357.5433775000274,None,357.5433775000274,None,357.5433775000274,None,357.5433775000274,None,d,2.053260200016666,357.5433775000274,None,target,None,None,None,None,None,None,None,,,,,,,,,,,,,,ST01_112522,2022-11-25_13h28.27.147,Hippopolis_4AFCT,2021.1.4,60.19849853380518,
Camponello,stimuli/subj_files/ST01_112522_cityB.csv,./stimuli/hallstatt.jpg,./stimuli/street_plate2.png,MOTOR UTCA,stimuli/scenes/083a.jpg,scene,0,stimuli/scenes/083a.jpg,stimuli/objects/084b.jpg,stimuli/objects/084a.jpg,stimuli/scenes/083a.jpg,stimuli/scenes/083b.jpg,dist2,dist1,target,lure,0,0,0,0,0,78,78,58,,,,,,,,,,,359.6159449000261,None,360.63170550001087,None,360.63170550001087,None,360.63170550001087,None,360.63170550001087,None,360.63170550001087,None,360.63170550001087,None,360.63170550001087,None,360.63170550001087,None,360.63170550001087,None,360.63170550001087,None,360.63170550001087,None,j,2.0969072000007145,360.63170550001087,None,target,None,None,None,None,None,None,None,,,,,,,,,,,,,,ST01_112522,2022-11-25_13h28.27.147,Hippopolis_4AFCT,2021.1.4,60.19849853380518,
Camponello,stimuli/subj_files/ST01_112522_cityB.csv,./stimuli/hallstatt.jpg,./stimuli/street_plate2.png,MÁRVÁNY UTCA,stimuli/scenes/081a.jpg,scene,0,stimuli/scenes/081a.jpg,stimuli/scenes/051a.jpg,stimuli/scenes/051b.jpg,stimuli/scenes/081b.jpg,stimuli/scenes/081a.jpg,dist1,dist2,lure,target,0,0,0,0,0,79,79,48,,,,,,,,,,,362.7495486000262,None,363.7596771000244,None,363.7596771000244,None,363.7596771000244,None,363.7596771000244,None,363.7596771000244,None,363.7596771000244,None,363.7596771000244,None,363.7596771000244,None,363.7596771000244,None,363.7596771000244,None,363.7596771000244,None,k,2.0081646000035107,363.7596771000244,None,target,None,None,None,None,None,None,None,,,,,,,,,,,,,,ST01_112522,2022-11-25_13h28.27.147,Hippopolis_4AFCT,2021.1.4,60.19849853380518,
Hippopolis,stimuli/subj_files/ST01_112522_cityA.csv,./stimuli/seattle.jpg,./stimuli/street_plate1.png,SÜTEMÉNY UTCA,stimuli/objects/119a.jpg,object,1,stimuli/objects/019a.jpg,stimuli/scenes/103b.jpg,stimuli/objects/019a.jpg,stimuli/objects/019b.jpg,stimuli/scenes/103a.jpg,dist2,target,lure,dist1,0,1,1,1,0,0,0,54,,,,,,,368.1709415000223,None,368.1709415000223,None,371.15922730002785,None,372.19267650000984,None,372.19267650000984,None,372.19267650000984,None,372.19267650000984,None,372.19267650000984,None,372.19267650000984,None,372.19267650000984,None,372.19267650000984,None,372.19267650000984,None,372.19267650000984,None,372.19267650000984,None,f,2.111197899997933,372.19267650000984,None,target,None,None,None,None,None,None,None,,63,9,6,1,365.7996571000258,None,space,2.30240600000252,365.7996571000258,None,,,ST01_112522,2022-11-25_13h28.27.147,Hippopolis_4AFCT,2021.1.4,60.19849853380518,
Hippopolis,stimuli/subj_files/ST01_112522_cityA.csv,./stimuli/seattle.jpg,./stimuli/street_plate1.png,BANÁN UTCA,stimuli/objects/015a.jpg,object,1,stimuli/objects/049a.jpg,stimuli/objects/019b.jpg,stimuli/objects/049b.jpg,stimuli/objects/019a.jpg,stimuli/objects/049a.jpg,dist2,lure,dist1,target,0,1,1,1,0,1,1,4,,,,,,,,,,,374.3325226000161,None,375.352289500006,None,375.352289500006,None,375.352289500006,None,375.352289500006,None,375.352289500006,None,375.352289500006,None,375.352289500006,None,375.352289500006,None,375.352289500006,None,375.352289500006,None,375.352289500006,None,k,1.7100932000030298,375.352289500006,None,target,None,None,None,None,None,None,None,,,,,,,,,,,,,,ST01_112522,2022-11-25_13h28.27.147,Hippopolis_4AFCT,2021.1.4,60.19849853380518,
Hippopolis,stimuli/subj_files/ST01_112522_cityA.csv,./stimuli/seattle.jpg,./stimuli/street_plate1.png,KUTYA UTCA,stimuli/scenes/006a.jpg,scene,1,stimuli/scenes/113a.jpg,stimuli/scenes/113b.jpg,stimuli/scenes/001a.jpg,stimuli/scenes/001b.jpg,stimuli/scenes/113a.jpg,lure,dist1,dist2,target,0,1,1,1,0,2,2,72,,,,,,,,,,,377.08248420001473,None,378.10687630000757,None,378.10687630000757,None,378.10687630000757,None,378.10687630000757,None,378.10687630000757,None,378.10687630000757,None,378.10687630000757,None,378.10687630000757,None,378.10687630000757,None,378.10687630000757,None,378.10687630000757,None,k,2.2782024999905843,378.10687630000757,None,target,None,None,None,None,None,None,None,,,,,,,,,,,,,,ST01_112522,2022-11-25_13h28.27.147,Hippopolis_4AFCT,2021.1.4,60.19849853380518,
Hippopolis,stimuli/subj_files/ST01_112522_cityA.csv,./stimuli/seattle.jpg,./stimuli/street_plate1.png,SZÖCSKE UTCA,stimuli/scenes/085a.jpg,scene,1,stimuli/scenes/001a.jpg,stimuli/scenes/001b.jpg,stimuli/scenes/001a.jpg,stimuli/scenes/018a.jpg,stimuli/scenes/018b.jpg,lure,target,dist1,dist2,0,1,1,1,0,3,3,64,,,,,,,,,,,380.4154053000093,None,381.4322709000262,None,381.4322709000262,None,381.4322709000262,None,381.4322709000262,None,381.4322709000262,None,381.4322709000262,None,381.4322709000262,None,381.4322709000262,None,381.4322709000262,None,381.4322709000262,None,381.4322709000262,None,f,2.5480156000121497,381.4322709000262,None,target,None,None,None,None,None,None,None,,,,,,,,,,,,,,ST01_112522,2022-11-25_13h28.27.147,Hippopolis_4AFCT,2021.1.4,60.19849853380518,
Hippopolis,stimuli/subj_files/ST01_112522_cityA.csv,./stimuli/seattle.jpg,./stimuli/street_plate1.png,FÉSŰ UTCA,stimuli/objects/077a.jpg,object,2,stimuli/scenes/048a.jpg,stimuli/scenes/048a.jpg,stimuli/scenes/048b.jpg,stimuli/objects/039a.jpg,stimuli/objects/039b.jpg,target,lure,dist1,dist2,0,1,1,1,0,4,4,34,,,,,,,,,,,383.9993591000093,None,385.0192867000005,None,385.0192867000005,None,385.0192867000005,None,385.0192867000005,None,385.0192867000005,None,385.0192867000005,None,385.0192867000005,None,385.0192867000005,None,385.0192867000005,None,385.0192867000005,None,385.0192867000005,None,d,1.825136500003282,385.0192867000005,None,target,None,None,None,None,None,None,None,,,,,,,,,,,,,,ST01_112522,2022-11-25_13h28.27.147,Hippopolis_4AFCT,2021.1.4,60.19849853380518,
Hippopolis,stimuli/subj_files/ST01_112522_cityA.csv,./stimuli/seattle.jpg,./stimuli/street_plate1.png,TORONY UTCA,stimuli/scenes/040a.jpg,scene,0,stimuli/scenes/040a.jpg,stimuli/scenes/040b.jpg,stimuli/objects/035b.jpg,stimuli/objects/035a.jpg,stimuli/scenes/040a.jpg,lure,dist2,dist1,target,0,1,1,1,0,5,5,2,,,,,,,,,,,386.8657479000103,None,387.88520509999944,None,387.88520509999944,None,387.88520509999944,None,387.88520509999944,None,387.88520509999944,None,387.88520509999944,None,387.88520509999944,None,387.88520509999944,None,387.88520509999944,None,387.88520509999944,None,387.88520509999944,None,k,1.944209300010698,387.88520509999944,None,target,None,None,None,None,None,None,None,,,,,,,,,,,,,,ST01_112522,2022-11-25_13h28.27.147,Hippopolis_4AFCT,2021.1.4,60.19849853380518,
Hippopolis,stimuli/subj_files/ST01_112522_cityA.csv,./stimuli/seattle.jpg,./stimuli/street_plate1.png,PULÓVER UTCA,stimuli/scenes/064a.jpg,scene,1,stimuli/scenes/111a.jpg,stimuli/objects/049a.jpg,stimuli/objects/049b.jpg,stimuli/scenes/111b.jpg,stimuli/scenes/111a.jpg,dist1,dist2,lure,target,0,1,1,1,0,6,6,69,,,,,,,,,,,389.8491372000135,None,390.8866114000266,None,390.8866114000266,None,390.8866114000266,None,390.8866114000266,None,390.8866114000266,None,390.8866114000266,None,390.8866114000266,None,390.8866114000266,None,390.8866114000266,None,390.8866114000266,None,390.8866114000266,None,j,1.8567463000072166,390.8866114000266,None,lure,None,None,None,None,None,None,None,,,,,,,,,,,,,,ST01_112522,2022-11-25_13h28.27.147,Hippopolis_4AFCT,2021.1.4,60.19849853380518,
Hippopolis,stimuli/subj_files/ST01_112522_cityA.csv,./stimuli/seattle.jpg,./stimuli/street_plate1.png,KAKAÓ UTCA,stimuli/scenes/096a.jpg,scene,1,stimuli/scenes/071a.jpg,stimuli/scenes/071a.jpg,stimuli/scenes/071b.jpg,stimuli/scenes/050b.jpg,stimuli/scenes/050a.jpg,target,lure,dist2,dist1,0,1,1,1,0,7,7,73,,,,,,,,,,,392.7657239000255,None,393.78797340000165,None,393.78797340000165,None,393.78797340000165,None,393.78797340000165,None,393.78797340000165,None,393.78797340000165,None,393.78797340000165,None,393.78797340000165,None,393.78797340000165,None,393.78797340000165,None,393.78797340000165,None,j,4.349639199994272,393.78797340000165,None,dist2,397.2833053000213,None,None,None,None,None,None,,,,,,,,,,,,,,ST01_112522,2022-11-25_13h28.27.147,Hippopolis_4AFCT,2021.1.4,60.19849853380518,
Hippopolis,stimuli/subj_files/ST01_112522_cityA.csv,./stimuli/seattle.jpg,./stimuli/street_plate1.png,CUKOR UTCA,stimuli/scenes/063a.jpg,scene,0,stimuli/scenes/063a.jpg,stimuli/scenes/063a.jpg,stimuli/scenes/063b.jpg,stimuli/objects/113a.jpg,stimuli/objects/113b.jpg,target,lure,dist1,dist2,0,1,1,1,0,8,8,37,,,,,,,,,,,398.1652793000103,None,399.18606830001227,None,399.18606830001227,None,399.18606830001227,None,399.18606830001227,None,399.18606830001227,None,399.18606830001227,None,399.18606830001227,None,399.18606830001227,None,399.18606830001227,None,399.18606830001227,None,399.18606830001227,None,f,2.0778651000000536,399.18606830001227,None,lure,None,None,None,None,None,None,None,,,,,,,,,,,,,,ST01_112522,2022-11-25_13h28.27.147,Hippopolis_4AFCT,2021.1.4,60.19849853380518,
Hippopolis,stimuli/subj_files/ST01_112522_cityA.csv,./stimuli/seattle.jpg,./stimuli/street_plate1.png,MAJOM UTCA,stimuli/scenes/094a.jpg,scene,1,stimuli/scenes/098a.jpg,stimuli/scenes/098a.jpg,stimuli/objects/102b.jpg,stimuli/scenes/098b.jpg,stimuli/objects/102a.jpg,target,dist2,lure,dist1,0,1,1,1,0,9,9,46,,,,,,,,,,,401.2818945000181,None,402.2989577000262,None,402.2989577000262,None,402.2989577000262,None,402.2989577000262,None,402.2989577000262,None,402.2989577000262,None,402.2989577000262,None,402.2989577000262,None,402.2989577000262,None,402.2989577000262,None,402.2989577000262,None,d,2.383166000014171,402.2989577000262,None,target,None,None,None,None,None,None,None,,,,,,,,,,,,,,ST01_112522,2022-11-25_13h28.27.147,Hippopolis_4AFCT,2021.1.4,60.19849853380518,
Hippopolis,stimuli/subj_files/ST01_112522_cityA.csv,./stimuli/seattle.jpg,./stimuli/street_plate1.png,PAPUCS UTCA,stimuli/scenes/119a.jpg,scene,2,stimuli/objects/039a.jpg,stimuli/objects/088a.jpg,stimuli/objects/088b.jpg,stimuli/objects/039a.jpg,stimuli/objects/039b.jpg,dist1,dist2,target,lure,0,1,1,1,0,10,10,16,,,,,,,,,,,404.698406600015,None,405.7244171000202,None,405.7244171000202,None,405.7244171000202,None,405.7244171000202,None,405.7244171000202,None,405.7244171000202,None,405.7244171000202,None,405.7244171000202,None,405.7244171000202,None,405.7244171000202,None,405.7244171000202,None,d,1.6358373999828473,405.7244171000202,None,dist1,None,None,None,None,None,None,None,,,,,,,,,,,,,,ST01_112522,2022-11-25_13h28.27.147,Hippopolis_4AFCT,2021.1.4,60.19849853380518,
Hippopolis,stimuli/subj_files/ST01_112522_cityA.csv,./stimuli/seattle.jpg,./stimuli/street_plate1.png,SZOBOR UTCA,stimuli/objects/023a.jpg,object,1,stimuli/objects/114a.jpg,stimuli/objects/114a.jpg,stimuli/objects/114b.jpg,stimuli/objects/059b.jpg,stimuli/objects/059a.jpg,target,lure,dist2,dist1,0,1,1,1,0,11,11,14,,,,,,,,,,,407.382325100014,None,408.4097237000242,None,408.4097237000242,None,408.4097237000242,None,408.4097237000242,None,408.4097237000242,None,408.4097237000242,None,408.4097237000242,None,408.4097237000242,None,408.4097237000242,None,408.4097237000242,None,408.4097237000242,None,d,2.5752388999972027,408.4097237000242,None,target,None,None,None,None,None,None,None,,,,,,,,,,,,,,ST01_112522,2022-11-25_13h28.27.147,Hippopolis_4AFCT,2021.1.4,60.19849853380518,
Hippopolis,stimuli/subj_files/ST01_112522_cityA.csv,./stimuli/seattle.jpg,./stimuli/street_plate1.png,TÉRKÉP UTCA,stimuli/objects/026a.jpg,object,0,stimuli/objects/026a.jpg,stimuli/objects/026b.jpg,stimuli/objects/085b.jpg,stimuli/objects/085a.jpg,stimuli/objects/026a.jpg,lure,dist2,dist1,target,0,1,1,1,0,12,12,27,,,,,,,,,,,411.0147961000039,None,412.0512705000001,None,412.0512705000001,None,412.0512705000001,None,412.0512705000001,None,412.0512705000001,None,412.0512705000001,None,412.0512705000001,None,412.0512705000001,None,412.0512705000001,None,412.0512705000001,None,412.0512705000001,None,k,3.9761710000166204,412.0512705000001,None,target,415.5496115999995,None,None,None,None,None,None,,,,,,,,,,,,,,ST01_112522,2022-11-25_13h28.27.147,Hippopolis_4AFCT,2021.1.4,60.19849853380518,
Hippopolis,stimuli/subj_files/ST01_112522_cityA.csv,./stimuli/seattle.jpg,./stimuli/street_plate1.png,VÁSÁR UTCA,stimuli/scenes/060a.jpg,scene,2,stimuli/objects/024a.jpg,stimuli/scenes/059b.jpg,stimuli/objects/024b.jpg,stimuli/scenes/059a.jpg,stimuli/objects/024a.jpg,dist2,lure,dist1,target,0,1,1,1,0,13,13,52,,,,,,,,,,,416.0485339000006,None,417.0761675000249,None,417.0761675000249,None,417.0761675000249,None,417.0761675000249,None,417.0761675000249,None,417.0761675000249,None,417.0761675000249,None,417.0761675000249,None,417.0761675000249,None,417.0761675000249,None,417.0761675000249,None,k,1.794469599990407,417.0761675000249,None,target,None,None,None,None,None,None,None,,,,,,,,,,,,,,ST01_112522,2022-11-25_13h28.27.147,Hippopolis_4AFCT,2021.1.4,60.19849853380518,
Hippopolis,stimuli/subj_files/ST01_112522_cityA.csv,./stimuli/seattle.jpg,./stimuli/street_plate1.png,FEJSZE UTCA,stimuli/scenes/003a.jpg,scene,2,stimuli/objects/001a.jpg,stimuli/scenes/107b.jpg,stimuli/objects/001a.jpg,stimuli/scenes/107a.jpg,stimuli/objects/001b.jpg,dist2,target,dist1,lure,0,1,1,1,0,14,14,60,,,,,,,,,,,418.8985959000129,None,419.93422280001687,None,419.93422280001687,None,419.93422280001687,None,419.93422280001687,None,419.93422280001687,None,419.93422280001687,None,419.93422280001687,None,419.93422280001687,None,419.93422280001687,None,419.93422280001687,None,419.93422280001687,None,j,4.217170300020371,419.93422280001687,None,dist1,423.4329382000142,None,None,None,None,None,None,,,,,,,,,,,,,,ST01_112522,2022-11-25_13h28.27.147,Hippopolis_4AFCT,2021.1.4,60.19849853380518,
Hippopolis,stimuli/subj_files/ST01_112522_cityA.csv,./stimuli/seattle.jpg,./stimuli/street_plate1.png,KESELYŰ UTCA,stimuli/objects/085a.jpg,object,0,stimuli/objects/085a.jpg,stimuli/scenes/078b.jpg,stimuli/scenes/078a.jpg,stimuli/objects/085a.jpg,stimuli/objects/085b.jpg,dist2,dist1,target,lure,0,1,1,1,0,15,15,47,,,,,,,,,,,424.1819558000134,None,425.20487640000647,None,425.20487640000647,None,425.20487640000647,None,425.20487640000647,None,425.20487640000647,None,425.20487640000647,None,425.20487640000647,None,425.20487640000647,None,425.20487640000647,None,425.20487640000647,None,425.20487640000647,None,j,3.0491384000051767,425.20487640000647,None,target,None,None,None,None,None,None,None,,,,,,,,,,,,,,ST01_112522,2022-11-25_13h28.27.147,Hippopolis_4AFCT,2021.1.4,60.19849853380518,
Hippopolis,stimuli/subj_files/ST01_112522_cityA.csv,./stimuli/seattle.jpg,./stimuli/street_plate1.png,MUSTÁR UTCA,stimuli/objects/020a.jpg,object,2,stimuli/scenes/033a.jpg,stimuli/scenes/069a.jpg,stimuli/scenes/033b.jpg,stimuli/scenes/069b.jpg,stimuli/scenes/033a.jpg,dist1,lure,dist2,target,0,1,1,1,0,16,16,20,,,,,,,,,,,428.28159740002593,None,429.3068588000024,None,429.3068588000024,None,429.3068588000024,None,429.3068588000024,None,429.3068588000024,None,429.3068588000024,None,429.3068588000024,None,429.3068588000024,None,429.3068588000024,None,429.3068588000024,None,429.3068588000024,None,k,2.554013000015402,429.3068588000024,None,target,None,None,None,None,None,None,None,,,,,,,,,,,,,,ST01_112522,2022-11-25_13h28.27.147,Hippopolis_4AFCT,2021.1.4,60.19849853380518,
Hippopolis,stimuli/subj_files/ST01_112522_cityA.csv,./stimuli/seattle.jpg,./stimuli/street_plate1.png,SUGÁR UTCA,stimuli/objects/096a.jpg,object,0,stimuli/objects/096a.jpg,stimuli/scenes/063a.jpg,stimuli/scenes/063b.jpg,stimuli/objects/096b.jpg,stimuli/objects/096a.jpg,dist1,dist2,lure,target,0,1,1,1,0,17,17,70,,,,,,,,,,,431.8817375000217,None,432.91283939999994,None,432.91283939999994,None,432.91283939999994,None,432.91283939999994,None,432.91283939999994,None,432.91283939999994,None,432.91283939999994,None,432.91283939999994,None,432.91283939999994,None,432.91283939999994,None,432.91283939999994,None,k,2.2366222999989986,432.91283939999994,None,target,None,None,None,None,None,None,None,,,,,,,,,,,,,,ST01_112522,2022-11-25_13h28.27.147,Hippopolis_4AFCT,2021.1.4,60.19849853380518,
Hippopolis,stimuli/subj_files/ST01_112522_cityA.csv,./stimuli/seattle.jpg,./stimuli/street_plate1.png,KANÁL UTCA,stimuli/objects/017a.jpg,object,2,stimuli/scenes/054a.jpg,stimuli/scenes/002a.jpg,stimuli/scenes/054a.jpg,stimuli/scenes/002b.jpg,stimuli/scenes/054b.jpg,dist1,target,dist2,lure,0,1,1,1,0,18,18,12,,,,,,,,,,,435.1815478000208,None,436.2023186000006,None,436.2023186000006,None,436.2023186000006,None,436.2023186000006,None,436.2023186000006,None,436.2023186000006,None,436.2023186000006,None,436.2023186000006,None,436.2023186000006,None,436.2023186000006,None,436.2023186000006,None,k,2.726259499992011,436.2023186000006,None,lure,None,None,None,None,None,None,None,,,,,,,,,,,,,,ST01_112522,2022-11-25_13h28.27.147,Hippopolis_4AFCT,2021.1.4,60.19849853380518,
Hippopolis,stimuli/subj_files/ST01_112522_cityA.csv,./stimuli/seattle.jpg,./stimuli/street_plate1.png,TOLLTARTÓ UTCA,stimuli/scenes/022a.jpg,scene,1,stimuli/scenes/007a.jpg,stimuli/scenes/007b.jpg,stimuli/scenes/071a.jpg,stimuli/scenes/071b.jpg,stimuli/scenes/007a.jpg,lure,dist1,dist2,target,0,1,1,1,0,19,19,43,,,,,,,,,,,438.9482817000244,None,439.9703076000151,None,439.9703076000151,None,439.9703076000151,None,439.9703076000151,None,439.9703076000151,None,439.9703076000151,None,439.9703076000151,None,439.9703076000151,None,439.9703076000151,None,439.9703076000151,None,439.9703076000151,None,k,2.603876899986062,439.9703076000151,None,target,None,None,None,None,None,None,None,,,,,,,,,,,,,,ST01_112522,2022-11-25_13h28.27.147,Hippopolis_4AFCT,2021.1.4,60.19849853380518,
Hippopolis,stimuli/subj_files/ST01_112522_cityA.csv,./stimuli/seattle.jpg,./stimuli/street_plate1.png,PAPAGÁJ UTCA,stimuli/scenes/100a.jpg,scene,2,stimuli/objects/079a.jpg,stimuli/objects/117a.jpg,stimuli/objects/079a.jpg,stimuli/objects/079b.jpg,stimuli/objects/117b.jpg,dist1,target,lure,dist2,0,1,1,1,0,20,20,78,,,,,,,,,,,442.59765820001485,None,443.6318788000208,None,443.6318788000208,None,443.6318788000208,None,443.6318788000208,None,443.6318788000208,None,443.6318788000208,None,443.6318788000208,None,443.6318788000208,None,443.6318788000208,None,443.6318788000208,None,443.6318788000208,None,d,2.412688899989007,443.6318788000208,None,dist1,None,None,None,None,None,None,None,,,,,,,,,,,,,,ST01_112522,2022-11-25_13h28.27.147,Hippopolis_4AFCT,2021.1.4,60.19849853380518,
Hippopolis,stimuli/subj_files/ST01_112522_cityA.csv,./stimuli/seattle.jpg,./stimuli/street_plate1.png,FÜZET UTCA,stimuli/objects/043a.jpg,object,0,stimuli/objects/043a.jpg,stimuli/scenes/115a.jpg,stimuli/objects/043b.jpg,stimuli/objects/043a.jpg,stimuli/scenes/115b.jpg,dist1,lure,target,dist2,0,1,1,1,0,21,21,57,,,,,,,,,,,446.064388000028,None,447.08772180002416,None,447.08772180002416,None,447.08772180002416,None,447.08772180002416,None,447.08772180002416,None,447.08772180002416,None,447.08772180002416,None,447.08772180002416,None,447.08772180002416,None,447.08772180002416,None,447.08772180002416,None,f,2.912846699997317,447.08772180002416,None,lure,None,None,None,None,None,None,None,,,,,,,,,,,,,,ST01_112522,2022-11-25_13h28.27.147,Hippopolis_4AFCT,2021.1.4,60.19849853380518,
Hippopolis,stimuli/subj_files/ST01_112522_cityA.csv,./stimuli/seattle.jpg,./stimuli/street_plate1.png,KÖTÉNY UTCA,stimuli/objects/082a.jpg,object,1,stimuli/objects/005a.jpg,stimuli/objects/005b.jpg,stimuli/objects/005a.jpg,stimuli/objects/008b.jpg,stimuli/objects/008a.jpg,lure,target,dist2,dist1,0,1,1,1,0,22,22,19,,,,,,,,,,,450.0314966000151,None,451.05496890001814,None,451.05496890001814,None,451.05496890001814,None,451.05496890001814,None,451.05496890001814,None,451.05496890001814,None,451.05496890001814,None,451.05496890001814,None,451.05496890001814,None,451.05496890001814,None,451.05496890001814,None,f,3.7462145000172313,451.05496890001814,None,target,454.54853070000536,None,None,None,None,None,None,,,,,,,,,,,,,,ST01_112522,2022-11-25_13h28.27.147,Hippopolis_4AFCT,2021.1.4,60.19849853380518,
Hippopolis,stimuli/subj_files/ST01_112522_cityA.csv,./stimuli/seattle.jpg,./stimuli/street_plate1.png,TENISZ UTCA,stimuli/scenes/014a.jpg,scene,0,stimuli/scenes/014a.jpg,stimuli/objects/037a.jpg,stimuli/scenes/014a.jpg,stimuli/objects/037b.jpg,stimuli/scenes/014b.jpg,dist1,target,dist2,lure,0,1,1,1,0,23,23,79,,,,,,,,,,,454.83149480001885,None,455.8576775000256,None,455.8576775000256,None,455.8576775000256,None,455.8576775000256,None,455.8576775000256,None,455.8576775000256,None,455.8576775000256,None,455.8576775000256,None,455.8576775000256,None,455.8576775000256,None,455.8576775000256,None,f,1.5719569999782834,455.8576775000256,None,target,None,None,None,None,None,None,None,,,,,,,,,,,,,,ST01_112522,2022-11-25_13h28.27.147,Hippopolis_4AFCT,2021.1.4,60.19849853380518,
Hippopolis,stimuli/subj_files/ST01_112522_cityA.csv,./stimuli/seattle.jpg,./stimuli/street_plate1.png,SZŐNYEG UTCA,stimuli/scenes/016a.jpg,scene,2,stimuli/objects/060a.jpg,stimuli/objects/060a.jpg,stimuli/objects/060b.jpg,stimuli/objects/028a.jpg,stimuli/objects/028b.jpg,target,lure,dist1,dist2,0,1,1,1,0,24,24,56,,,,,,,,,,,457.4474335000268,None,458.48189990001265,None,458.48189990001265,None,458.48189990001265,None,458.48189990001265,None,458.48189990001265,None,458.48189990001265,None,458.48189990001265,None,458.48189990001265,None,458.48189990001265,None,458.48189990001265,None,458.48189990001265,None,f,2.9604612000111956,458.48189990001265,None,lure,None,None,None,None,None,None,None,,,,,,,,,,,,,,ST01_112522,2022-11-25_13h28.27.147,Hippopolis_4AFCT,2021.1.4,60.19849853380518,
Hippopolis,stimuli/subj_files/ST01_112522_cityA.csv,./stimuli/seattle.jpg,./stimuli/street_plate1.png,KORONG UTCA,stimuli/objects/083a.jpg,object,1,stimuli/objects/008a.jpg,stimuli/objects/008b.jpg,stimuli/objects/005b.jpg,stimuli/objects/008a.jpg,stimuli/objects/005a.jpg,lure,dist2,target,dist1,0,1,1,1,0,25,25,68,,,,,,,,,,,461.46447130001616,None,462.48637170001166,None,462.48637170001166,None,462.48637170001166,None,462.48637170001166,None,462.48637170001166,None,462.48637170001166,None,462.48637170001166,None,462.48637170001166,None,462.48637170001166,None,462.48637170001166,None,462.48637170001166,None,j,2.9689846000110265,462.48637170001166,None,target,None,None,None,None,None,None,None,,,,,,,,,,,,,,ST01_112522,2022-11-25_13h28.27.147,Hippopolis_4AFCT,2021.1.4,60.19849853380518,
Hippopolis,stimuli/subj_files/ST01_112522_cityA.csv,./stimuli/seattle.jpg,./stimuli/street_plate1.png,SZAPPAN UTCA,stimuli/scenes/112a.jpg,scene,0,stimuli/scenes/112a.jpg,stimuli/scenes/112a.jpg,stimuli/scenes/057a.jpg,stimuli/scenes/057b.jpg,stimuli/scenes/112b.jpg,target,dist1,dist2,lure,0,1,1,1,0,26,26,71,,,,,,,,,,,465.4812338000047,None,466.49977430002764,None,466.49977430002764,None,466.49977430002764,None,466.49977430002764,None,466.49977430002764,None,466.49977430002764,None,466.49977430002764,None,466.49977430002764,None,466.49977430002764,None,466.49977430002764,None,466.49977430002764,None,d,2.1171362999884877,466.49977430002764,None,target,None,None,None,None,None,None,None,,,,,,,,,,,,,,ST01_112522,2022-11-25_13h28.27.147,Hippopolis_4AFCT,2021.1.4,60.19849853380518,
Hippopolis,stimuli/subj_files/ST01_112522_cityA.csv,./stimuli/seattle.jpg,./stimuli/street_plate1.png,LABDA UTCA,stimuli/scenes/046a.jpg,scene,2,stimuli/objects/028a.jpg,stimuli/scenes/068b.jpg,stimuli/objects/028b.jpg,stimuli/objects/028a.jpg,stimuli/scenes/068a.jpg,dist2,lure,target,dist1,0,1,1,1,0,27,27,9,,,,,,,,,,,468.6477501000045,None,469.67336260000593,None,469.67336260000593,None,469.67336260000593,None,469.67336260000593,None,469.67336260000593,None,469.67336260000593,None,469.67336260000593,None,469.67336260000593,None,469.67336260000593,None,469.67336260000593,None,469.67336260000593,None,j,3.703280999994604,469.67336260000593,None,target,473.1652201000252,None,None,None,None,None,None,,,,,,,,,,,,,,ST01_112522,2022-11-25_13h28.27.147,Hippopolis_4AFCT,2021.1.4,60.19849853380518,
Hippopolis,stimuli/subj_files/ST01_112522_cityA.csv,./stimuli/seattle.jpg,./stimuli/street_plate1.png,TISZTÁS UTCA,stimuli/objects/042a.jpg,object,0,stimuli/objects/042a.jpg,stimuli/scenes/072a.jpg,stimuli/scenes/072b.jpg,stimuli/objects/042a.jpg,stimuli/objects/042b.jpg,dist1,dist2,target,lure,0,1,1,1,0,28,28,67,,,,,,,,,,,473.39763200000743,None,474.42845270002726,None,474.42845270002726,None,474.42845270002726,None,474.42845270002726,None,474.42845270002726,None,474.42845270002726,None,474.42845270002726,None,474.42845270002726,None,474.42845270002726,None,474.42845270002726,None,474.42845270002726,None,j,1.530273300013505,474.42845270002726,None,target,None,None,None,None,None,None,None,,,,,,,,,,,,,,ST01_112522,2022-11-25_13h28.27.147,Hippopolis_4AFCT,2021.1.4,60.19849853380518,
Hippopolis,stimuli/subj_files/ST01_112522_cityA.csv,./stimuli/seattle.jpg,./stimuli/street_plate1.png,KÍGYÓ UTCA,stimuli/scenes/073a.jpg,scene,2,stimuli/objects/095a.jpg,stimuli/objects/029b.jpg,stimuli/objects/029a.jpg,stimuli/objects/095a.jpg,stimuli/objects/095b.jpg,dist2,dist1,target,lure,0,1,1,1,0,29,29,31,,,,,,,,,,,475.9809886000003,None,477.0189114000241,None,477.0189114000241,None,477.0189114000241,None,477.0189114000241,None,477.0189114000241,None,477.0189114000241,None,477.0189114000241,None,477.0189114000241,None,477.0189114000241,None,477.0189114000241,None,477.0189114000241,None,j,3.3311272999853827,477.0189114000241,None,target,None,None,None,None,None,None,None,,,,,,,,,,,,,,ST01_112522,2022-11-25_13h28.27.147,Hippopolis_4AFCT,2021.1.4,60.19849853380518,
Hippopolis,stimuli/subj_files/ST01_112522_cityA.csv,./stimuli/seattle.jpg,./stimuli/street_plate1.png,ZONGORA UTCA,stimuli/scenes/108a.jpg,scene,0,stimuli/scenes/108a.jpg,stimuli/scenes/108a.jpg,stimuli/scenes/108b.jpg,stimuli/scenes/070a.jpg,stimuli/scenes/070b.jpg,target,lure,dist1,dist2,0,1,1,1,0,30,30,1,,,,,,,,,,,480.3808780000254,None,481.4078924000205,None,481.4078924000205,None,481.4078924000205,None,481.4078924000205,None,481.4078924000205,None,481.4078924000205,None,481.4078924000205,None,481.4078924000205,None,481.4078924000205,None,481.4078924000205,None,481.4078924000205,None,d,2.3914251000096556,481.4078924000205,None,target,None,None,None,None,None,None,None,,,,,,,,,,,,,,ST01_112522,2022-11-25_13h28.27.147,Hippopolis_4AFCT,2021.1.4,60.19849853380518,
Hippopolis,stimuli/subj_files/ST01_112522_cityA.csv,./stimuli/seattle.jpg,./stimuli/street_plate1.png,HEGESZTŐ UTCA,stimuli/scenes/088a.jpg,scene,1,stimuli/scenes/005a.jpg,stimuli/objects/114a.jpg,stimuli/objects/114b.jpg,stimuli/scenes/005a.jpg,stimuli/scenes/005b.jpg,dist1,dist2,target,lure,0,1,1,1,0,31,31,41,,,,,,,,,,,483.8302934000094,None,484.84617650002474,None,484.84617650002474,None,484.84617650002474,None,484.84617650002474,None,484.84617650002474,None,484.84617650002474,None,484.84617650002474,None,484.84617650002474,None,484.84617650002474,None,484.84617650002474,None,484.84617650002474,None,j,2.70973070000764,484.84617650002474,None,target,None,None,None,None,None,None,None,,,,,,,,,,,,,,ST01_112522,2022-11-25_13h28.27.147,Hippopolis_4AFCT,2021.1.4,60.19849853380518,
Hippopolis,stimuli/subj_files/ST01_112522_cityA.csv,./stimuli/seattle.jpg,./stimuli/street_plate1.png,BÖGRE UTCA,stimuli/scenes/058a.jpg,scene,1,stimuli/scenes/034a.jpg,stimuli/objects/108a.jpg,stimuli/scenes/034b.jpg,stimuli/objects/108b.jpg,stimuli/scenes/034a.jpg,dist1,lure,dist2,target,0,1,1,1,0,32,32,22,,,,,,,,,,,487.5802769000002,None,488.59919580002315,None,488.59919580002315,None,488.59919580002315,None,488.59919580002315,None,488.59919580002315,None,488.59919580002315,None,488.59919580002315,None,488.59919580002315,None,488.59919580002315,None,488.59919580002315,None,488.59919580002315,None,k,4.830681399995228,488.59919580002315,None,target,492.0981893000135,None,None,None,None,None,None,,,,,,,,,,,,,,ST01_112522,2022-11-25_13h28.27.147,Hippopolis_4AFCT,2021.1.4,60.19849853380518,
Hippopolis,stimuli/subj_files/ST01_112522_cityA.csv,./stimuli/seattle.jpg,./stimuli/street_plate1.png,HORGONY UTCA,stimuli/objects/032a.jpg,object,1,stimuli/objects/089a.jpg,stimuli/objects/089a.jpg,stimuli/objects/089b.jpg,stimuli/objects/047a.jpg,stimuli/objects/047b.jpg,target,lure,dist1,dist2,0,1,1,1,0,33,33,38,,,,,,,,,,,493.4471764000191,None,494.4736492000229,None,494.4736492000229,None,494.4736492000229,None,494.4736492000229,None,494.4736492000229,None,494.4736492000229,None,494.4736492000229,None,494.4736492000229,None,494.4736492000229,None,494.4736492000229,None,494.4736492000229,None,f,3.413554899976589,494.4736492000229,None,lure,None,None,None,None,None,None,None,,,,,,,,,,,,,,ST01_112522,2022-11-25_13h28.27.147,Hippopolis_4AFCT,2021.1.4,60.19849853380518,
Hippopolis,stimuli/subj_files/ST01_112522_cityA.csv,./stimuli/seattle.jpg,./stimuli/street_plate1.png,FOLYÓ UTCA,stimuli/objects/069a.jpg,object,2,stimuli/scenes/002a.jpg,stimuli/scenes/054a.jpg,stimuli/scenes/002a.jpg,stimuli/scenes/002b.jpg,stimuli/scenes/054b.jpg,dist1,target,lure,dist2,0,1,1,1,0,34,34,8,,,,,,,,,,,497.91391830000794,None,498.92662070001825,None,498.92662070001825,None,498.92662070001825,None,498.92662070001825,None,498.92662070001825,None,498.92662070001825,None,498.92662070001825,None,498.92662070001825,None,498.92662070001825,None,498.92662070001825,None,498.92662070001825,None,f,2.7318525000009686,498.92662070001825,None,target,None,None,None,None,None,None,None,,,,,,,,,,,,,,ST01_112522,2022-11-25_13h28.27.147,Hippopolis_4AFCT,2021.1.4,60.19849853380518,
Hippopolis,stimuli/subj_files/ST01_112522_cityA.csv,./stimuli/seattle.jpg,./stimuli/street_plate1.png,PIZSAMA UTCA,stimuli/objects/052a.jpg,object,2,stimuli/scenes/009a.jpg,stimuli/scenes/009a.jpg,stimuli/objects/001a.jpg,stimuli/objects/001b.jpg,stimuli/scenes/009b.jpg,target,dist1,dist2,lure,0,1,1,1,0,35,35,53,,,,,,,,,,,501.6805063000065,None,502.7079127000179,None,502.7079127000179,None,502.7079127000179,None,502.7079127000179,None,502.7079127000179,None,502.7079127000179,None,502.7079127000179,None,502.7079127000179,None,502.7079127000179,None,502.7079127000179,None,502.7079127000179,None,None,,502.7079127000179,None,invalid,506.1981145000027,None,None,None,None,None,None,,,,,,,,,,,,,,ST01_112522,2022-11-25_13h28.27.147,Hippopolis_4AFCT,2021.1.4,60.19849853380518,
Hippopolis,stimuli/subj_files/ST01_112522_cityA.csv,./stimuli/seattle.jpg,./stimuli/street_plate1.png,PADLÓ UTCA,stimuli/scenes/067a.jpg,scene,1,stimuli/scenes/086a.jpg,stimuli/scenes/005b.jpg,stimuli/scenes/086a.jpg,stimuli/scenes/086b.jpg,stimuli/scenes/005a.jpg,dist2,target,lure,dist1,0,1,1,1,0,36,36,21,,,,,,,,,,,507.6971459000197,None,508.7101337000204,None,508.7101337000204,None,508.7101337000204,None,508.7101337000204,None,508.7101337000204,None,508.7101337000204,None,508.7101337000204,None,508.7101337000204,None,508.7101337000204,None,508.7101337000204,None,508.7101337000204,None,f,2.72563580001588,508.7101337000204,None,target,None,None,None,None,None,None,None,,,,,,,,,,,,,,ST01_112522,2022-11-25_13h28.27.147,Hippopolis_4AFCT,2021.1.4,60.19849853380518,
Hippopolis,stimuli/subj_files/ST01_112522_cityA.csv,./stimuli/seattle.jpg,./stimuli/street_plate1.png,ÜVEG UTCA,stimuli/scenes/078a.jpg,scene,0,stimuli/scenes/078a.jpg,stimuli/scenes/078a.jpg,stimuli/scenes/108a.jpg,stimuli/scenes/108b.jpg,stimuli/scenes/078b.jpg,target,dist1,dist2,lure,0,1,1,1,0,37,37,36,,,,,,,,,,,511.46313710001414,None,512.4721601000056,None,512.4721601000056,None,512.4721601000056,None,512.4721601000056,None,512.4721601000056,None,512.4721601000056,None,512.4721601000056,None,512.4721601000056,None,512.4721601000056,None,512.4721601000056,None,512.4721601000056,None,d,1.5800119999912567,512.4721601000056,None,target,None,None,None,None,None,None,None,,,,,,,,,,,,,,ST01_112522,2022-11-25_13h28.27.147,Hippopolis_4AFCT,2021.1.4,60.19849853380518,
Hippopolis,stimuli/subj_files/ST01_112522_cityA.csv,./stimuli/seattle.jpg,./stimuli/street_plate1.png,LAKAT UTCA,stimuli/objects/037a.jpg,object,0,stimuli/objects/037a.jpg,stimuli/objects/043b.jpg,stimuli/objects/037b.jpg,stimuli/objects/043a.jpg,stimuli/objects/037a.jpg,dist2,lure,dist1,target,0,1,1,1,0,38,38,24,,,,,,,,,,,514.0802641000191,None,515.1002454000118,None,515.1002454000118,None,515.1002454000118,None,515.1002454000118,None,515.1002454000118,None,515.1002454000118,None,515.1002454000118,None,515.1002454000118,None,515.1002454000118,None,515.1002454000118,None,515.1002454000118,None,k,1.9168440000212286,515.1002454000118,None,target,None,None,None,None,None,None,None,,,,,,,,,,,,,,ST01_112522,2022-11-25_13h28.27.147,Hippopolis_4AFCT,2021.1.4,60.19849853380518,
Hippopolis,stimuli/subj_files/ST01_112522_cityA.csv,./stimuli/seattle.jpg,./stimuli/street_plate1.png,KOSÁR UTCA,stimuli/scenes/070a.jpg,scene,0,stimuli/scenes/070a.jpg,stimuli/objects/096b.jpg,stimuli/scenes/070b.jpg,stimuli/objects/096a.jpg,stimuli/scenes/070a.jpg,dist2,lure,dist1,target,0,1,1,1,0,39,39,18,,,,,,,,,,,517.0470482000092,None,518.0652837000089,None,518.0652837000089,None,518.0652837000089,None,518.0652837000089,None,518.0652837000089,None,518.0652837000089,None,518.0652837000089,None,518.0652837000089,None,518.0652837000089,None,518.0652837000089,None,518.0652837000089,None,k,2.0238477000093553,518.0652837000089,None,target,None,None,None,None,None,None,None,,,,,,,,,,,,,,ST01_112522,2022-11-25_13h28.27.147,Hippopolis_4AFCT,2021.1.4,60.19849853380518,
Hippopolis,stimuli/subj_files/ST01_112522_cityA.csv,./stimuli/seattle.jpg,./stimuli/street_plate1.png,FIÓK UTCA,stimuli/objects/064a.jpg,object,0,stimuli/objects/064a.jpg,stimuli/objects/064b.jpg,stimuli/scenes/112a.jpg,stimuli/scenes/112b.jpg,stimuli/objects/064a.jpg,lure,dist1,dist2,target,0,1,1,1,0,40,40,45,,,,,,,,,,,520.1134563000232,None,521.1417996000091,None,521.1417996000091,None,521.1417996000091,None,521.1417996000091,None,521.1417996000091,None,521.1417996000091,None,521.1417996000091,None,521.1417996000091,None,521.1417996000091,None,521.1417996000091,None,521.1417996000091,None,k,1.7983566999901086,521.1417996000091,None,target,None,None,None,None,None,None,None,,,,,,,,,,,,,,ST01_112522,2022-11-25_13h28.27.147,Hippopolis_4AFCT,2021.1.4,60.19849853380518,
Hippopolis,stimuli/subj_files/ST01_112522_cityA.csv,./stimuli/seattle.jpg,./stimuli/street_plate1.png,ÁLOM UTCA,stimuli/scenes/031a.jpg,scene,1,stimuli/scenes/032a.jpg,stimuli/scenes/032a.jpg,stimuli/scenes/111b.jpg,stimuli/scenes/111a.jpg,stimuli/scenes/032b.jpg,target,dist2,dist1,lure,0,1,1,1,0,41,41,44,,,,,,,,,,,522.9633981000225,None,523.9805691000074,None,523.9805691000074,None,523.9805691000074,None,523.9805691000074,None,523.9805691000074,None,523.9805691000074,None,523.9805691000074,None,523.9805691000074,None,523.9805691000074,None,523.9805691000074,None,523.9805691000074,None,d,2.809669699985534,523.9805691000074,None,target,None,None,None,None,None,None,None,,,,,,,,,,,,,,ST01_112522,2022-11-25_13h28.27.147,Hippopolis_4AFCT,2021.1.4,60.19849853380518,
Hippopolis,stimuli/subj_files/ST01_112522_cityA.csv,./stimuli/seattle.jpg,./stimuli/street_plate1.png,SZIKLA UTCA,stimuli/objects/010a.jpg,object,2,stimuli/scenes/107a.jpg,stimuli/scenes/107a.jpg,stimuli/scenes/107b.jpg,stimuli/objects/112a.jpg,stimuli/objects/112b.jpg,target,lure,dist1,dist2,0,1,1,1,0,42,42,74,,,,,,,,,,,526.8133687000081,None,527.8275369000039,None,527.8275369000039,None,527.8275369000039,None,527.8275369000039,None,527.8275369000039,None,527.8275369000039,None,527.8275369000039,None,527.8275369000039,None,527.8275369000039,None,527.8275369000039,None,527.8275369000039,None,d,2.1546746999956667,527.8275369000039,None,target,None,None,None,None,None,None,None,,,,,,,,,,,,,,ST01_112522,2022-11-25_13h28.27.147,Hippopolis_4AFCT,2021.1.4,60.19849853380518,
Hippopolis,stimuli/subj_files/ST01_112522_cityA.csv,./stimuli/seattle.jpg,./stimuli/street_plate1.png,KARTON UTCA,stimuli/objects/074a.jpg,object,1,stimuli/objects/108a.jpg,stimuli/scenes/086b.jpg,stimuli/objects/108a.jpg,stimuli/objects/108b.jpg,stimuli/scenes/086a.jpg,dist2,target,lure,dist1,0,1,1,1,0,43,43,58,,,,,,,,,,,530.0130874000024,None,531.0254490000079,None,531.0254490000079,None,531.0254490000079,None,531.0254490000079,None,531.0254490000079,None,531.0254490000079,None,531.0254490000079,None,531.0254490000079,None,531.0254490000079,None,531.0254490000079,None,531.0254490000079,None,f,2.873430199979339,531.0254490000079,None,target,None,None,None,None,None,None,None,,,,,,,,,,,,,,ST01_112522,2022-11-25_13h28.27.147,Hippopolis_4AFCT,2021.1.4,60.19849853380518,
