CityName,StimuliFile,CityImage,StreetSign,Cue,Image,Category,Novelty,UpdateImage,TestImage1,TestImage2,TestImage3,TestImage4,TestImage1Type,TestImage2Type,TestImage3Type,TestImage4Type,CityBlock.thisRepN,CityBlock.thisTrialN,CityBlock.thisN,CityBlock.thisIndex,LearningTrials.thisRepN,LearningTrials.thisTrialN,LearningTrials.thisN,LearningTrials.thisIndex,trials.thisRepN,trials.thisTrialN,trials.thisN,trials.thisIndex,learning_instructions_text.started,learning_instructions_text.stopped,intro_key.keys,intro_key.rt,intro_key.started,intro_key.stopped,cityname_text.started,cityname_text.stopped,city_image.started,city_image.stopped,fx_cross.started,fx_cross.stopped,plate.started,plate.stopped,city_text.started,city_text.stopped,street_text.started,street_text.stopped,learning_image.started,learning_image.stopped,short_break_text.started,short_break_text.stopped,short_break_key.keys,short_break_key.started,short_break_key.stopped,short_break_key.rt,test_text.started,test_text.stopped,key_resp.keys,key_resp.rt,key_resp.started,key_resp.stopped,plate_test.started,plate_test.stopped,city_text_test.started,city_text_test.stopped,street_text_test.started,street_text_test.stopped,test_question.started,test_question.stopped,test_key_resp.keys,test_key_resp.started,test_key_resp.stopped,button_image.started,button_image.stopped,plate_verbal.started,plate_verbal.stopped,street_text_verbal.started,street_text_verbal.stopped,city_text_verbal.started,city_text_verbal.stopped,question_verbal.started,question_verbal.stopped,verbal_test_key_resp.keys,verbal_test_key_resp.started,verbal_test_key_resp.stopped,test_key_resp.rt,verbal_test_key_resp.rt,n_remembered,break_text.started,break_text.stopped,break_key_resp.keys,break_key_resp.rt,break_key_resp.started,break_key_resp.stopped,end_text.started,end_text.stopped,participant,date,expName,psychopyVersion,frameRate,
,,,,,,,,,,,,,,,,,,,,,,,,,,,,,26.702598399977433,None,space,29.35460880000028,26.702598399977433,None,,,,,,,,,,,,,,,,,,,,,,,,,,,,,,,,,,,,,,,,,,,,,,,,,,,,,,,,,,,,,,ST01_112522,2022-11-25_12h23.23.259,Hippopolis_Learning,2021.1.4,60.18538301655544,
Camponello,stimuli/subj_files/ST01_112522_cityB.csv,./stimuli/hallstatt.jpg,./stimuli/street_plate2.png,KÓKUSZ UTCA,stimuli/objects/076a.jpg,object,0,stimuli/objects/076a.jpg,stimuli/objects/090a.jpg,stimuli/objects/076a.jpg,stimuli/objects/076b.jpg,stimuli/objects/090b.jpg,dist1,target,lure,dist2,0,0,0,0,0,0,0,10,,,,,,,,,,,56.18042069999501,None,56.18042069999501,None,59.12286089998088,None,60.13770159997512,None,60.13770159997512,None,60.13770159997512,None,60.13770159997512,None,None,None,None,None,None,,,,,,,,,,,,,,,,,,,,,,,,,,,,,,,,,,,,,,,,,,,ST01_112522,2022-11-25_12h23.23.259,Hippopolis_Learning,2021.1.4,60.18538301655544,
Camponello,stimuli/subj_files/ST01_112522_cityB.csv,./stimuli/hallstatt.jpg,./stimuli/street_plate2.png,MENTA UTCA,stimuli/objects/104a.jpg,object,1,stimuli/objects/092a.jpg,stimuli/objects/092a.jpg,stimuli/scenes/080b.jpg,stimuli/objects/092b.jpg,stimuli/scenes/080a.jpg,target,dist2,lure,dist1,0,0,0,0,0,1,1,70,,,,,,,,,,,,,,,63.101422999985516,None,64.11188379998202,None,64.11188379998202,None,64.11188379998202,None,64.11188379998202,None,None,None,None,None,None,,,,,,,,,,,,,,,,,,,,,,,,,,,,,,,,,,,,,,,,,,,ST01_112522,2022-11-25_12h23.23.259,Hippopolis_Learning,2021.1.4,60.18538301655544,
Camponello,stimuli/subj_files/ST01_112522_cityB.csv,./stimuli/hallstatt.jpg,./stimuli/street_plate2.png,TOBOZ UTCA,stimuli/objects/057a.jpg,object,0,stimuli/objects/057a.jpg,stimuli/objects/057a.jpg,stimuli/objects/057b.jpg,stimuli/objects/110b.jpg,stimuli/objects/110a.jpg,target,lure,dist2,dist1,0,0,0,0,0,2,2,22,,,,,,,,,,,,,,,67.1173165999935,None,68.13138320000144,None,68.13138320000144,None,68.13138320000144,None,68.13138320000144,None,None,None,None,None,None,,,,,,,,,,,,,,,,,,,,,,,,,,,,,,,,,,,,,,,,,,,ST01_112522,2022-11-25_12h23.23.259,Hippopolis_Learning,2021.1.4,60.18538301655544,
Camponello,stimuli/subj_files/ST01_112522_cityB.csv,./stimuli/hallstatt.jpg,./stimuli/street_plate2.png,SZALVÉTA UTCA,stimuli/objects/011a.jpg,object,0,stimuli/objects/011a.jpg,stimuli/objects/013b.jpg,stimuli/objects/011a.jpg,stimuli/objects/011b.jpg,stimuli/objects/013a.jpg,dist2,target,lure,dist1,0,0,0,0,0,3,3,46,,,,,,,,,,,,,,,71.13385600000038,None,72.14974609998171,None,72.14974609998171,None,72.14974609998171,None,72.14974609998171,None,None,None,None,None,None,,,,,,,,,,,,,,,,,,,,,,,,,,,,,,,,,,,,,,,,,,,ST01_112522,2022-11-25_12h23.23.259,Hippopolis_Learning,2021.1.4,60.18538301655544,
Camponello,stimuli/subj_files/ST01_112522_cityB.csv,./stimuli/hallstatt.jpg,./stimuli/street_plate2.png,RÁDIÓ UTCA,stimuli/scenes/024a.jpg,scene,2,stimuli/objects/105a.jpg,stimuli/scenes/030a.jpg,stimuli/scenes/030b.jpg,stimuli/objects/105b.jpg,stimuli/objects/105a.jpg,dist1,dist2,lure,target,0,0,0,0,0,4,4,78,,,,,,,,,,,,,,,75.15044889997807,None,76.17062669998268,None,76.17062669998268,None,76.17062669998268,None,76.17062669998268,None,None,None,None,None,None,,,,,,,,,,,,,,,,,,,,,,,,,,,,,,,,,,,,,,,,,,,ST01_112522,2022-11-25_12h23.23.259,Hippopolis_Learning,2021.1.4,60.18538301655544,
Camponello,stimuli/subj_files/ST01_112522_cityB.csv,./stimuli/hallstatt.jpg,./stimuli/street_plate2.png,BÚJÓCSKA UTCA,stimuli/scenes/047a.jpg,scene,0,stimuli/scenes/047a.jpg,stimuli/scenes/047a.jpg,stimuli/objects/072a.jpg,stimuli/objects/072b.jpg,stimuli/scenes/047b.jpg,target,dist1,dist2,lure,0,0,0,0,0,5,5,9,,,,,,,,,,,,,,,79.16718089999631,None,80.18220809998456,None,80.18220809998456,None,80.18220809998456,None,80.18220809998456,None,None,None,None,None,None,,,,,,,,,,,,,,,,,,,,,,,,,,,,,,,,,,,,,,,,,,,ST01_112522,2022-11-25_12h23.23.259,Hippopolis_Learning,2021.1.4,60.18538301655544,
Camponello,stimuli/subj_files/ST01_112522_cityB.csv,./stimuli/hallstatt.jpg,./stimuli/street_plate2.png,LOVAGLÁS UTCA,stimuli/objects/087a.jpg,object,0,stimuli/objects/087a.jpg,stimuli/scenes/110a.jpg,stimuli/scenes/110b.jpg,stimuli/objects/087b.jpg,stimuli/objects/087a.jpg,dist1,dist2,lure,target,0,0,0,0,0,6,6,39,,,,,,,,,,,,,,,83.18420540000079,None,84.20085019999533,None,84.20085019999533,None,84.20085019999533,None,84.20085019999533,None,None,None,None,None,None,,,,,,,,,,,,,,,,,,,,,,,,,,,,,,,,,,,,,,,,,,,ST01_112522,2022-11-25_12h23.23.259,Hippopolis_Learning,2021.1.4,60.18538301655544,
Camponello,stimuli/subj_files/ST01_112522_cityB.csv,./stimuli/hallstatt.jpg,./stimuli/street_plate2.png,BETON UTCA,stimuli/scenes/095a.jpg,scene,1,stimuli/scenes/080a.jpg,stimuli/scenes/080b.jpg,stimuli/scenes/080a.jpg,stimuli/objects/091a.jpg,stimuli/objects/091b.jpg,lure,target,dist1,dist2,0,0,0,0,0,7,7,14,,,,,,,,,,,,,,,87.2004665999848,None,88.219835099997,None,88.219835099997,None,88.219835099997,None,88.219835099997,None,None,None,None,None,None,,,,,,,,,,,,,,,,,,,,,,,,,,,,,,,,,,,,,,,,,,,ST01_112522,2022-11-25_12h23.23.259,Hippopolis_Learning,2021.1.4,60.18538301655544,
Camponello,stimuli/subj_files/ST01_112522_cityB.csv,./stimuli/hallstatt.jpg,./stimuli/street_plate2.png,KÁRTYA UTCA,stimuli/objects/038a.jpg,object,0,stimuli/objects/038a.jpg,stimuli/objects/038b.jpg,stimuli/scenes/035b.jpg,stimuli/scenes/035a.jpg,stimuli/objects/038a.jpg,lure,dist2,dist1,target,0,0,0,0,0,8,8,69,,,,,,,,,,,,,,,91.21691399998963,None,92.2403287999914,None,92.2403287999914,None,92.2403287999914,None,92.2403287999914,None,None,None,None,None,None,,,,,,,,,,,,,,,,,,,,,,,,,,,,,,,,,,,,,,,,,,,ST01_112522,2022-11-25_12h23.23.259,Hippopolis_Learning,2021.1.4,60.18538301655544,
Camponello,stimuli/subj_files/ST01_112522_cityB.csv,./stimuli/hallstatt.jpg,./stimuli/street_plate2.png,KOKTÉL UTCA,stimuli/objects/030a.jpg,object,0,stimuli/objects/030a.jpg,stimuli/objects/030a.jpg,stimuli/objects/030b.jpg,stimuli/scenes/081a.jpg,stimuli/scenes/081b.jpg,target,lure,dist1,dist2,0,0,0,0,0,9,9,35,,,,,,,,,,,,,,,95.23394779997761,None,96.25093859998742,None,96.25093859998742,None,96.25093859998742,None,96.25093859998742,None,None,None,None,None,None,,,,,,,,,,,,,,,,,,,,,,,,,,,,,,,,,,,,,,,,,,,ST01_112522,2022-11-25_12h23.23.259,Hippopolis_Learning,2021.1.4,60.18538301655544,
Camponello,stimuli/subj_files/ST01_112522_cityB.csv,./stimuli/hallstatt.jpg,./stimuli/street_plate2.png,LÉPCSŐ UTCA,stimuli/scenes/023a.jpg,scene,1,stimuli/scenes/120a.jpg,stimuli/scenes/089a.jpg,stimuli/scenes/120b.jpg,stimuli/scenes/120a.jpg,stimuli/scenes/089b.jpg,dist1,lure,target,dist2,0,0,0,0,0,10,10,0,,,,,,,,,,,,,,,99.2503391999926,None,100.25934550000238,None,100.25934550000238,None,100.25934550000238,None,100.25934550000238,None,None,None,None,None,None,,,,,,,,,,,,,,,,,,,,,,,,,,,,,,,,,,,,,,,,,,,ST01_112522,2022-11-25_12h23.23.259,Hippopolis_Learning,2021.1.4,60.18538301655544,
Camponello,stimuli/subj_files/ST01_112522_cityB.csv,./stimuli/hallstatt.jpg,./stimuli/street_plate2.png,PÉKSÉG UTCA,stimuli/scenes/105a.jpg,scene,1,stimuli/scenes/089a.jpg,stimuli/scenes/089b.jpg,stimuli/scenes/074b.jpg,stimuli/scenes/074a.jpg,stimuli/scenes/089a.jpg,lure,dist2,dist1,target,0,0,0,0,0,11,11,77,,,,,,,,,,,,,,,103.2671964999754,None,104.27482819999568,None,104.27482819999568,None,104.27482819999568,None,104.27482819999568,None,None,None,None,None,None,,,,,,,,,,,,,,,,,,,,,,,,,,,,,,,,,,,,,,,,,,,ST01_112522,2022-11-25_12h23.23.259,Hippopolis_Learning,2021.1.4,60.18538301655544,
Camponello,stimuli/subj_files/ST01_112522_cityB.csv,./stimuli/hallstatt.jpg,./stimuli/street_plate2.png,RIBIZLI UTCA,stimuli/scenes/106a.jpg,scene,0,stimuli/scenes/106a.jpg,stimuli/scenes/013b.jpg,stimuli/scenes/106a.jpg,stimuli/scenes/106b.jpg,stimuli/scenes/013a.jpg,dist2,target,lure,dist1,0,0,0,0,0,12,12,8,,,,,,,,,,,,,,,107.28328689999762,None,108.29170479997993,None,108.29170479997993,None,108.29170479997993,None,108.29170479997993,None,None,None,None,None,None,,,,,,,,,,,,,,,,,,,,,,,,,,,,,,,,,,,,,,,,,,,ST01_112522,2022-11-25_12h23.23.259,Hippopolis_Learning,2021.1.4,60.18538301655544,
Camponello,stimuli/subj_files/ST01_112522_cityB.csv,./stimuli/hallstatt.jpg,./stimuli/street_plate2.png,BONBON UTCA,stimuli/scenes/102a.jpg,scene,2,stimuli/objects/058a.jpg,stimuli/scenes/097a.jpg,stimuli/objects/058b.jpg,stimuli/objects/058a.jpg,stimuli/scenes/097b.jpg,dist1,lure,target,dist2,0,0,0,0,0,13,13,54,,,,,,,,,,,,,,,111.29987499999697,None,112.31010629999219,None,112.31010629999219,None,112.31010629999219,None,112.31010629999219,None,None,None,None,None,None,,,,,,,,,,,,,,,,,,,,,,,,,,,,,,,,,,,,,,,,,,,ST01_112522,2022-11-25_12h23.23.259,Hippopolis_Learning,2021.1.4,60.18538301655544,
Camponello,stimuli/subj_files/ST01_112522_cityB.csv,./stimuli/hallstatt.jpg,./stimuli/street_plate2.png,MÁRVÁNY UTCA,stimuli/scenes/081a.jpg,scene,0,stimuli/scenes/081a.jpg,stimuli/scenes/051a.jpg,stimuli/scenes/051b.jpg,stimuli/scenes/081b.jpg,stimuli/scenes/081a.jpg,dist1,dist2,lure,target,0,0,0,0,0,14,14,48,,,,,,,,,,,,,,,115.3169963999826,None,116.33029969999916,None,116.33029969999916,None,116.33029969999916,None,116.33029969999916,None,None,None,None,None,None,,,,,,,,,,,,,,,,,,,,,,,,,,,,,,,,,,,,,,,,,,,ST01_112522,2022-11-25_12h23.23.259,Hippopolis_Learning,2021.1.4,60.18538301655544,
Camponello,stimuli/subj_files/ST01_112522_cityB.csv,./stimuli/hallstatt.jpg,./stimuli/street_plate2.png,ÁRNYÉK UTCA,stimuli/objects/033a.jpg,object,0,stimuli/objects/033a.jpg,stimuli/objects/070a.jpg,stimuli/objects/070b.jpg,stimuli/objects/033a.jpg,stimuli/objects/033b.jpg,dist1,dist2,target,lure,0,0,0,0,0,15,15,2,,,,,,,,,,,,,,,119.33357200000319,None,120.34842939997907,None,120.34842939997907,None,120.34842939997907,None,120.34842939997907,None,None,None,None,None,None,,,,,,,,,,,,,,,,,,,,,,,,,,,,,,,,,,,,,,,,,,,ST01_112522,2022-11-25_12h23.23.259,Hippopolis_Learning,2021.1.4,60.18538301655544,
Camponello,stimuli/subj_files/ST01_112522_cityB.csv,./stimuli/hallstatt.jpg,./stimuli/street_plate2.png,KAKAS UTCA,stimuli/scenes/025a.jpg,scene,0,stimuli/scenes/025a.jpg,stimuli/scenes/025a.jpg,stimuli/objects/103b.jpg,stimuli/scenes/025b.jpg,stimuli/objects/103a.jpg,target,dist2,lure,dist1,0,0,0,0,0,16,16,24,,,,,,,,,,,,,,,123.3501469999901,None,124.36654699998326,None,124.36654699998326,None,124.36654699998326,None,124.36654699998326,None,None,None,None,None,None,,,,,,,,,,,,,,,,,,,,,,,,,,,,,,,,,,,,,,,,,,,ST01_112522,2022-11-25_12h23.23.259,Hippopolis_Learning,2021.1.4,60.18538301655544,
Camponello,stimuli/subj_files/ST01_112522_cityB.csv,./stimuli/hallstatt.jpg,./stimuli/street_plate2.png,HERNYÓ UTCA,stimuli/objects/109a.jpg,object,0,stimuli/objects/109a.jpg,stimuli/scenes/061b.jpg,stimuli/objects/109b.jpg,stimuli/scenes/061a.jpg,stimuli/objects/109a.jpg,dist2,lure,dist1,target,0,0,0,0,0,17,17,31,,,,,,,,,,,,,,,127.36694989999523,None,128.38410049999948,None,128.38410049999948,None,128.38410049999948,None,128.38410049999948,None,None,None,None,None,None,,,,,,,,,,,,,,,,,,,,,,,,,,,,,,,,,,,,,,,,,,,ST01_112522,2022-11-25_12h23.23.259,Hippopolis_Learning,2021.1.4,60.18538301655544,
Camponello,stimuli/subj_files/ST01_112522_cityB.csv,./stimuli/hallstatt.jpg,./stimuli/street_plate2.png,KULLANCS UTCA,stimuli/objects/040a.jpg,object,2,stimuli/scenes/109a.jpg,stimuli/objects/016a.jpg,stimuli/objects/016b.jpg,stimuli/scenes/109b.jpg,stimuli/scenes/109a.jpg,dist1,dist2,lure,target,0,0,0,0,0,18,18,67,,,,,,,,,,,,,,,131.3834319000016,None,132.39931059998344,None,132.39931059998344,None,132.39931059998344,None,132.39931059998344,None,None,None,None,None,None,,,,,,,,,,,,,,,,,,,,,,,,,,,,,,,,,,,,,,,,,,,ST01_112522,2022-11-25_12h23.23.259,Hippopolis_Learning,2021.1.4,60.18538301655544,
Camponello,stimuli/subj_files/ST01_112522_cityB.csv,./stimuli/hallstatt.jpg,./stimuli/street_plate2.png,MOTOR UTCA,stimuli/scenes/083a.jpg,scene,0,stimuli/scenes/083a.jpg,stimuli/objects/084b.jpg,stimuli/objects/084a.jpg,stimuli/scenes/083a.jpg,stimuli/scenes/083b.jpg,dist2,dist1,target,lure,0,0,0,0,0,19,19,58,,,,,,,,,,,,,,,135.40005029999884,None,136.4150647999777,None,136.4150647999777,None,136.4150647999777,None,136.4150647999777,None,None,None,None,None,None,,,,,,,,,,,,,,,,,,,,,,,,,,,,,,,,,,,,,,,,,,,ST01_112522,2022-11-25_12h23.23.259,Hippopolis_Learning,2021.1.4,60.18538301655544,
Camponello,stimuli/subj_files/ST01_112522_cityB.csv,./stimuli/hallstatt.jpg,./stimuli/street_plate2.png,FOGAS UTCA,stimuli/scenes/019a.jpg,scene,0,stimuli/scenes/019a.jpg,stimuli/scenes/019b.jpg,stimuli/objects/098a.jpg,stimuli/objects/098b.jpg,stimuli/scenes/019a.jpg,lure,dist1,dist2,target,0,0,0,0,0,20,20,23,,,,,,,,,,,,,,,139.41652619998786,None,140.42111579998164,None,140.42111579998164,None,140.42111579998164,None,140.42111579998164,None,None,None,None,None,None,,,,,,,,,,,,,,,,,,,,,,,,,,,,,,,,,,,,,,,,,,,ST01_112522,2022-11-25_12h23.23.259,Hippopolis_Learning,2021.1.4,60.18538301655544,
Camponello,stimuli/subj_files/ST01_112522_cityB.csv,./stimuli/hallstatt.jpg,./stimuli/street_plate2.png,SZILVA UTCA,stimuli/scenes/090a.jpg,scene,0,stimuli/scenes/090a.jpg,stimuli/scenes/065a.jpg,stimuli/scenes/065b.jpg,stimuli/scenes/090a.jpg,stimuli/scenes/090b.jpg,dist1,dist2,target,lure,0,0,0,0,0,21,21,16,,,,,,,,,,,,,,,143.4332811999775,None,144.44001099999878,None,144.44001099999878,None,144.44001099999878,None,144.44001099999878,None,None,None,None,None,None,,,,,,,,,,,,,,,,,,,,,,,,,,,,,,,,,,,,,,,,,,,ST01_112522,2022-11-25_12h23.23.259,Hippopolis_Learning,2021.1.4,60.18538301655544,
Camponello,stimuli/subj_files/ST01_112522_cityB.csv,./stimuli/hallstatt.jpg,./stimuli/street_plate2.png,PETÁRDA UTCA,stimuli/objects/006a.jpg,object,1,stimuli/objects/100a.jpg,stimuli/objects/100a.jpg,stimuli/objects/100b.jpg,stimuli/scenes/082a.jpg,stimuli/scenes/082b.jpg,target,lure,dist1,dist2,0,0,0,0,0,22,22,3,,,,,,,,,,,,,,,147.44934869999997,None,148.47288220000337,None,148.47288220000337,None,148.47288220000337,None,148.47288220000337,None,None,None,None,None,None,,,,,,,,,,,,,,,,,,,,,,,,,,,,,,,,,,,,,,,,,,,ST01_112522,2022-11-25_12h23.23.259,Hippopolis_Learning,2021.1.4,60.18538301655544,
Camponello,stimuli/subj_files/ST01_112522_cityB.csv,./stimuli/hallstatt.jpg,./stimuli/street_plate2.png,POLIP UTCA,stimuli/scenes/099a.jpg,scene,0,stimuli/scenes/099a.jpg,stimuli/scenes/099b.jpg,stimuli/scenes/090b.jpg,stimuli/scenes/090a.jpg,stimuli/scenes/099a.jpg,lure,dist2,dist1,target,0,0,0,0,0,23,23,4,,,,,,,,,,,,,,,151.46636019999278,None,152.48195339998347,None,152.48195339998347,None,152.48195339998347,None,152.48195339998347,None,None,None,None,None,None,,,,,,,,,,,,,,,,,,,,,,,,,,,,,,,,,,,,,,,,,,,ST01_112522,2022-11-25_12h23.23.259,Hippopolis_Learning,2021.1.4,60.18538301655544,
Camponello,stimuli/subj_files/ST01_112522_cityB.csv,./stimuli/hallstatt.jpg,./stimuli/street_plate2.png,FÉNYKÉP UTCA,stimuli/scenes/075a.jpg,scene,0,stimuli/scenes/075a.jpg,stimuli/scenes/075a.jpg,stimuli/scenes/047a.jpg,stimuli/scenes/075b.jpg,stimuli/scenes/047b.jpg,target,dist1,lure,dist2,0,0,0,0,0,24,24,52,,,,,,,,,,,,,,,155.48300639999798,None,156.49553059999016,None,156.49553059999016,None,156.49553059999016,None,156.49553059999016,None,None,None,None,None,None,,,,,,,,,,,,,,,,,,,,,,,,,,,,,,,,,,,,,,,,,,,ST01_112522,2022-11-25_12h23.23.259,Hippopolis_Learning,2021.1.4,60.18538301655544,
Camponello,stimuli/subj_files/ST01_112522_cityB.csv,./stimuli/hallstatt.jpg,./stimuli/street_plate2.png,POGÁCSA UTCA,stimuli/objects/018a.jpg,object,2,stimuli/scenes/041a.jpg,stimuli/scenes/079b.jpg,stimuli/scenes/041b.jpg,stimuli/scenes/079a.jpg,stimuli/scenes/041a.jpg,dist2,lure,dist1,target,0,0,0,0,0,25,25,56,,,,,,,,,,,,,,,159.49911139998585,None,160.50776759997825,None,160.50776759997825,None,160.50776759997825,None,160.50776759997825,None,None,None,None,None,None,,,,,,,,,,,,,,,,,,,,,,,,,,,,,,,,,,,,,,,,,,,ST01_112522,2022-11-25_12h23.23.259,Hippopolis_Learning,2021.1.4,60.18538301655544,
Camponello,stimuli/subj_files/ST01_112522_cityB.csv,./stimuli/hallstatt.jpg,./stimuli/street_plate2.png,KÖNYVTÁR UTCA,stimuli/scenes/008a.jpg,scene,0,stimuli/scenes/008a.jpg,stimuli/scenes/106b.jpg,stimuli/scenes/106a.jpg,stimuli/scenes/008a.jpg,stimuli/scenes/008b.jpg,dist2,dist1,target,lure,0,0,0,0,0,26,26,51,,,,,,,,,,,,,,,163.5156386999879,None,164.53174409997882,None,164.53174409997882,None,164.53174409997882,None,164.53174409997882,None,None,None,None,None,None,,,,,,,,,,,,,,,,,,,,,,,,,,,,,,,,,,,,,,,,,,,ST01_112522,2022-11-25_12h23.23.259,Hippopolis_Learning,2021.1.4,60.18538301655544,
Camponello,stimuli/subj_files/ST01_112522_cityB.csv,./stimuli/hallstatt.jpg,./stimuli/street_plate2.png,KRÉTA UTCA,stimuli/objects/093a.jpg,object,0,stimuli/objects/093a.jpg,stimuli/objects/003a.jpg,stimuli/objects/003b.jpg,stimuli/objects/093b.jpg,stimuli/objects/093a.jpg,dist1,dist2,lure,target,0,0,0,0,0,27,27,53,,,,,,,,,,,,,,,167.53272409999045,None,168.54918959998759,None,168.54918959998759,None,168.54918959998759,None,168.54918959998759,None,None,None,None,None,None,,,,,,,,,,,,,,,,,,,,,,,,,,,,,,,,,,,,,,,,,,,ST01_112522,2022-11-25_12h23.23.259,Hippopolis_Learning,2021.1.4,60.18538301655544,
Camponello,stimuli/subj_files/ST01_112522_cityB.csv,./stimuli/hallstatt.jpg,./stimuli/street_plate2.png,SZŐLŐ UTCA,stimuli/objects/098a.jpg,object,0,stimuli/objects/098a.jpg,stimuli/scenes/038b.jpg,stimuli/scenes/038a.jpg,stimuli/objects/098b.jpg,stimuli/objects/098a.jpg,dist2,dist1,lure,target,0,0,0,0,0,28,28,57,,,,,,,,,,,,,,,171.5492979999981,None,172.56111769998097,None,172.56111769998097,None,172.56111769998097,None,172.56111769998097,None,None,None,None,None,None,,,,,,,,,,,,,,,,,,,,,,,,,,,,,,,,,,,,,,,,,,,ST01_112522,2022-11-25_12h23.23.259,Hippopolis_Learning,2021.1.4,60.18538301655544,
Camponello,stimuli/subj_files/ST01_112522_cityB.csv,./stimuli/hallstatt.jpg,./stimuli/street_plate2.png,BOLYGÓ UTCA,stimuli/scenes/039a.jpg,scene,0,stimuli/scenes/039a.jpg,stimuli/scenes/025b.jpg,stimuli/scenes/039b.jpg,stimuli/scenes/039a.jpg,stimuli/scenes/025a.jpg,dist2,lure,target,dist1,0,0,0,0,0,29,29,79,,,,,,,,,,,,,,,175.56547579998733,None,176.5732914999826,None,176.5732914999826,None,176.5732914999826,None,176.5732914999826,None,None,None,None,None,None,,,,,,,,,,,,,,,,,,,,,,,,,,,,,,,,,,,,,,,,,,,ST01_112522,2022-11-25_12h23.23.259,Hippopolis_Learning,2021.1.4,60.18538301655544,
Camponello,stimuli/subj_files/ST01_112522_cityB.csv,./stimuli/hallstatt.jpg,./stimuli/street_plate2.png,TÜKÖR UTCA,stimuli/scenes/093a.jpg,scene,0,stimuli/scenes/093a.jpg,stimuli/scenes/093b.jpg,stimuli/scenes/093a.jpg,stimuli/scenes/104b.jpg,stimuli/scenes/104a.jpg,lure,target,dist2,dist1,0,0,0,0,0,30,30,27,,,,,,,,,,,,,,,179.58206210000208,None,180.6064500999928,None,180.6064500999928,None,180.6064500999928,None,180.6064500999928,None,None,None,None,None,None,,,,,,,,,,,,,,,,,,,,,,,,,,,,,,,,,,,,,,,,,,,ST01_112522,2022-11-25_12h23.23.259,Hippopolis_Learning,2021.1.4,60.18538301655544,
Camponello,stimuli/subj_files/ST01_112522_cityB.csv,./stimuli/hallstatt.jpg,./stimuli/street_plate2.png,KESZTYŰ UTCA,stimuli/objects/118a.jpg,object,2,stimuli/scenes/017a.jpg,stimuli/scenes/017a.jpg,stimuli/scenes/017b.jpg,stimuli/objects/058b.jpg,stimuli/objects/058a.jpg,target,lure,dist2,dist1,0,0,0,0,0,31,31,36,,,,,,,,,,,,,,,183.59917439997662,None,184.61227519999375,None,184.61227519999375,None,184.61227519999375,None,184.61227519999375,None,None,None,None,None,None,,,,,,,,,,,,,,,,,,,,,,,,,,,,,,,,,,,,,,,,,,,ST01_112522,2022-11-25_12h23.23.259,Hippopolis_Learning,2021.1.4,60.18538301655544,
Camponello,stimuli/subj_files/ST01_112522_cityB.csv,./stimuli/hallstatt.jpg,./stimuli/street_plate2.png,LIGET UTCA,stimuli/scenes/061a.jpg,scene,0,stimuli/scenes/061a.jpg,stimuli/scenes/061b.jpg,stimuli/objects/025a.jpg,stimuli/objects/025b.jpg,stimuli/scenes/061a.jpg,lure,dist1,dist2,target,0,0,0,0,0,32,32,25,,,,,,,,,,,,,,,187.61566119999043,None,188.62879389998852,None,188.62879389998852,None,188.62879389998852,None,188.62879389998852,None,None,None,None,None,None,,,,,,,,,,,,,,,,,,,,,,,,,,,,,,,,,,,,,,,,,,,ST01_112522,2022-11-25_12h23.23.259,Hippopolis_Learning,2021.1.4,60.18538301655544,
Camponello,stimuli/subj_files/ST01_112522_cityB.csv,./stimuli/hallstatt.jpg,./stimuli/street_plate2.png,ZÁSZLÓ UTCA,stimuli/objects/050a.jpg,object,1,stimuli/objects/067a.jpg,stimuli/objects/065b.jpg,stimuli/objects/065a.jpg,stimuli/objects/067a.jpg,stimuli/objects/067b.jpg,dist2,dist1,target,lure,0,0,0,0,0,33,33,71,,,,,,,,,,,,,,,191.63241579997703,None,192.6468082999927,None,192.6468082999927,None,192.6468082999927,None,192.6468082999927,None,None,None,None,None,None,,,,,,,,,,,,,,,,,,,,,,,,,,,,,,,,,,,,,,,,,,,ST01_112522,2022-11-25_12h23.23.259,Hippopolis_Learning,2021.1.4,60.18538301655544,
Camponello,stimuli/subj_files/ST01_112522_cityB.csv,./stimuli/hallstatt.jpg,./stimuli/street_plate2.png,PÁFRÁNY UTCA,stimuli/scenes/035a.jpg,scene,0,stimuli/scenes/035a.jpg,stimuli/objects/075a.jpg,stimuli/scenes/035a.jpg,stimuli/objects/075b.jpg,stimuli/scenes/035b.jpg,dist1,target,dist2,lure,0,0,0,0,0,34,34,12,,,,,,,,,,,,,,,195.64895139998407,None,196.65772069999366,None,196.65772069999366,None,196.65772069999366,None,196.65772069999366,None,None,None,None,None,None,,,,,,,,,,,,,,,,,,,,,,,,,,,,,,,,,,,,,,,,,,,ST01_112522,2022-11-25_12h23.23.259,Hippopolis_Learning,2021.1.4,60.18538301655544,
Camponello,stimuli/subj_files/ST01_112522_cityB.csv,./stimuli/hallstatt.jpg,./stimuli/street_plate2.png,HÁRFA UTCA,stimuli/objects/051a.jpg,object,0,stimuli/objects/051a.jpg,stimuli/objects/051b.jpg,stimuli/objects/051a.jpg,stimuli/objects/093a.jpg,stimuli/objects/093b.jpg,lure,target,dist1,dist2,0,0,0,0,0,35,35,45,,,,,,,,,,,,,,,199.6648920000007,None,200.6831590999791,None,200.6831590999791,None,200.6831590999791,None,200.6831590999791,None,None,None,None,None,None,,,,,,,,,,,,,,,,,,,,,,,,,,,,,,,,,,,,,,,,,,,ST01_112522,2022-11-25_12h23.23.259,Hippopolis_Learning,2021.1.4,60.18538301655544,
Camponello,stimuli/subj_files/ST01_112522_cityB.csv,./stimuli/hallstatt.jpg,./stimuli/street_plate2.png,NARANCS UTCA,stimuli/scenes/044a.jpg,scene,2,stimuli/objects/016a.jpg,stimuli/scenes/017b.jpg,stimuli/objects/016b.jpg,stimuli/objects/016a.jpg,stimuli/scenes/017a.jpg,dist2,lure,target,dist1,0,0,0,0,0,36,36,7,,,,,,,,,,,,,,,203.68217610000283,None,204.69191019999562,None,204.69191019999562,None,204.69191019999562,None,204.69191019999562,None,None,None,None,None,None,,,,,,,,,,,,,,,,,,,,,,,,,,,,,,,,,,,,,,,,,,,ST01_112522,2022-11-25_12h23.23.259,Hippopolis_Learning,2021.1.4,60.18538301655544,
Camponello,stimuli/subj_files/ST01_112522_cityB.csv,./stimuli/hallstatt.jpg,./stimuli/street_plate2.png,FÉSZEK UTCA,stimuli/objects/075a.jpg,object,0,stimuli/objects/075a.jpg,stimuli/objects/075b.jpg,stimuli/objects/075a.jpg,stimuli/scenes/019b.jpg,stimuli/scenes/019a.jpg,lure,target,dist2,dist1,0,0,0,0,0,37,37,72,,,,,,,,,,,,,,,207.6983408999804,None,208.709398099978,None,208.709398099978,None,208.709398099978,None,208.709398099978,None,None,None,None,None,None,,,,,,,,,,,,,,,,,,,,,,,,,,,,,,,,,,,,,,,,,,,ST01_112522,2022-11-25_12h23.23.259,Hippopolis_Learning,2021.1.4,60.18538301655544,
Camponello,stimuli/subj_files/ST01_112522_cityB.csv,./stimuli/hallstatt.jpg,./stimuli/street_plate2.png,HORDÓ UTCA,stimuli/objects/084a.jpg,object,0,stimuli/objects/084a.jpg,stimuli/objects/084a.jpg,stimuli/scenes/039a.jpg,stimuli/objects/084b.jpg,stimuli/scenes/039b.jpg,target,dist1,lure,dist2,0,0,0,0,0,38,38,75,,,,,,,,,,,,,,,211.71534860000247,None,212.72883559999173,None,212.72883559999173,None,212.72883559999173,None,212.72883559999173,None,None,None,None,None,None,,,,,,,,,,,,,,,,,,,,,,,,,,,,,,,,,,,,,,,,,,,ST01_112522,2022-11-25_12h23.23.259,Hippopolis_Learning,2021.1.4,60.18538301655544,
Camponello,stimuli/subj_files/ST01_112522_cityB.csv,./stimuli/hallstatt.jpg,./stimuli/street_plate2.png,TÁSKA UTCA,stimuli/scenes/012a.jpg,scene,0,stimuli/scenes/012a.jpg,stimuli/scenes/012b.jpg,stimuli/scenes/012a.jpg,stimuli/objects/033b.jpg,stimuli/objects/033a.jpg,lure,target,dist2,dist1,0,0,0,0,0,39,39,61,,,,,,,,,,,,,,,215.73134070000378,None,216.74264089998906,None,216.74264089998906,None,216.74264089998906,None,216.74264089998906,None,None,None,None,None,None,,,,,,,,,,,,,,,,,,,,,,,,,,,,,,,,,,,,,,,,,,,ST01_112522,2022-11-25_12h23.23.259,Hippopolis_Learning,2021.1.4,60.18538301655544,
Camponello,stimuli/subj_files/ST01_112522_cityB.csv,./stimuli/hallstatt.jpg,./stimuli/street_plate2.png,MÁLNA UTCA,stimuli/objects/044a.jpg,object,0,stimuli/objects/044a.jpg,stimuli/objects/099b.jpg,stimuli/objects/044a.jpg,stimuli/objects/099a.jpg,stimuli/objects/044b.jpg,dist2,target,dist1,lure,0,0,0,0,0,40,40,68,,,,,,,,,,,,,,,219.74792019999586,None,220.76657619999605,None,220.76657619999605,None,220.76657619999605,None,220.76657619999605,None,None,None,None,None,None,,,,,,,,,,,,,,,,,,,,,,,,,,,,,,,,,,,,,,,,,,,ST01_112522,2022-11-25_12h23.23.259,Hippopolis_Learning,2021.1.4,60.18538301655544,
Camponello,stimuli/subj_files/ST01_112522_cityB.csv,./stimuli/hallstatt.jpg,./stimuli/street_plate2.png,CSAVAR UTCA,stimuli/scenes/051a.jpg,scene,0,stimuli/scenes/051a.jpg,stimuli/scenes/051b.jpg,stimuli/scenes/051a.jpg,stimuli/scenes/008b.jpg,stimuli/scenes/008a.jpg,lure,target,dist2,dist1,0,0,0,0,0,41,41,18,,,,,,,,,,,,,,,223.7646785999823,None,224.77060570000322,None,224.77060570000322,None,224.77060570000322,None,224.77060570000322,None,None,None,None,None,None,,,,,,,,,,,,,,,,,,,,,,,,,,,,,,,,,,,,,,,,,,,ST01_112522,2022-11-25_12h23.23.259,Hippopolis_Learning,2021.1.4,60.18538301655544,
Camponello,stimuli/subj_files/ST01_112522_cityB.csv,./stimuli/hallstatt.jpg,./stimuli/street_plate2.png,LEGELŐ UTCA,stimuli/objects/034a.jpg,object,1,stimuli/objects/065a.jpg,stimuli/objects/067b.jpg,stimuli/objects/065a.jpg,stimuli/objects/067a.jpg,stimuli/objects/065b.jpg,dist2,target,dist1,lure,0,0,0,0,0,42,42,21,,,,,,,,,,,,,,,227.7812631999841,None,228.790860899986,None,228.790860899986,None,228.790860899986,None,228.790860899986,None,None,None,None,None,None,,,,,,,,,,,,,,,,,,,,,,,,,,,,,,,,,,,,,,,,,,,ST01_112522,2022-11-25_12h23.23.259,Hippopolis_Learning,2021.1.4,60.18538301655544,
Camponello,stimuli/subj_files/ST01_112522_cityB.csv,./stimuli/hallstatt.jpg,./stimuli/street_plate2.png,TULIPÁN UTCA,stimuli/scenes/013a.jpg,scene,0,stimuli/scenes/013a.jpg,stimuli/scenes/026a.jpg,stimuli/scenes/013a.jpg,stimuli/scenes/013b.jpg,stimuli/scenes/026b.jpg,dist1,target,lure,dist2,0,0,0,0,0,43,43,13,,,,,,,,,,,,,,,231.79823429998942,None,232.80910980000044,None,232.80910980000044,None,232.80910980000044,None,232.80910980000044,None,None,None,None,None,None,,,,,,,,,,,,,,,,,,,,,,,,,,,,,,,,,,,,,,,,,,,ST01_112522,2022-11-25_12h23.23.259,Hippopolis_Learning,2021.1.4,60.18538301655544,
Camponello,stimuli/subj_files/ST01_112522_cityB.csv,./stimuli/hallstatt.jpg,./stimuli/street_plate2.png,HAJÓ UTCA,stimuli/scenes/049a.jpg,scene,0,stimuli/scenes/049a.jpg,stimuli/scenes/099a.jpg,stimuli/scenes/049a.jpg,stimuli/scenes/049b.jpg,stimuli/scenes/099b.jpg,dist1,target,lure,dist2,0,0,0,0,0,44,44,63,,,,,,,,,,,,,,,235.81479529998614,None,236.8222699999751,None,236.8222699999751,None,236.8222699999751,None,236.8222699999751,None,239.831672899978,None,space,239.831672899978,None,17.885962200001813,,,,,,,,,,,,,,,,,,,,,,,,,,,,,,,,,,,,,,,,,,ST01_112522,2022-11-25_12h23.23.259,Hippopolis_Learning,2021.1.4,60.18538301655544,
Camponello,stimuli/subj_files/ST01_112522_cityB.csv,./stimuli/hallstatt.jpg,./stimuli/street_plate2.png,TALICSKA UTCA,stimuli/objects/097a.jpg,object,0,stimuli/objects/097a.jpg,stimuli/objects/097a.jpg,stimuli/objects/097b.jpg,stimuli/scenes/083b.jpg,stimuli/scenes/083a.jpg,target,lure,dist2,dist1,0,0,0,0,0,45,45,15,,,,,,,,,,,,,,,257.74717089999467,None,258.7640078999975,None,258.7640078999975,None,258.7640078999975,None,258.7640078999975,None,None,None,None,None,None,,,,,,,,,,,,,,,,,,,,,,,,,,,,,,,,,,,,,,,,,,,ST01_112522,2022-11-25_12h23.23.259,Hippopolis_Learning,2021.1.4,60.18538301655544,
Camponello,stimuli/subj_files/ST01_112522_cityB.csv,./stimuli/hallstatt.jpg,./stimuli/street_plate2.png,GYŰRŰ UTCA,stimuli/objects/025a.jpg,object,0,stimuli/objects/025a.jpg,stimuli/objects/025b.jpg,stimuli/objects/062a.jpg,stimuli/objects/025a.jpg,stimuli/objects/062b.jpg,lure,dist1,target,dist2,0,0,0,0,0,46,46,34,,,,,,,,,,,,,,,261.76393570000073,None,262.7847187999869,None,262.7847187999869,None,262.7847187999869,None,262.7847187999869,None,None,None,None,None,None,,,,,,,,,,,,,,,,,,,,,,,,,,,,,,,,,,,,,,,,,,,ST01_112522,2022-11-25_12h23.23.259,Hippopolis_Learning,2021.1.4,60.18538301655544,
Camponello,stimuli/subj_files/ST01_112522_cityB.csv,./stimuli/hallstatt.jpg,./stimuli/street_plate2.png,HENTES UTCA,stimuli/objects/103a.jpg,object,0,stimuli/objects/103a.jpg,stimuli/objects/106a.jpg,stimuli/objects/106b.jpg,stimuli/objects/103b.jpg,stimuli/objects/103a.jpg,dist1,dist2,lure,target,0,0,0,0,0,47,47,73,,,,,,,,,,,,,,,265.78033809998306,None,266.8019658999983,None,266.8019658999983,None,266.8019658999983,None,266.8019658999983,None,None,None,None,None,None,,,,,,,,,,,,,,,,,,,,,,,,,,,,,,,,,,,,,,,,,,,ST01_112522,2022-11-25_12h23.23.259,Hippopolis_Learning,2021.1.4,60.18538301655544,
Camponello,stimuli/subj_files/ST01_112522_cityB.csv,./stimuli/hallstatt.jpg,./stimuli/street_plate2.png,FÜGE UTCA,stimuli/objects/110a.jpg,object,0,stimuli/objects/110a.jpg,stimuli/objects/110b.jpg,stimuli/scenes/036a.jpg,stimuli/scenes/036b.jpg,stimuli/objects/110a.jpg,lure,dist1,dist2,target,0,0,0,0,0,48,48,43,,,,,,,,,,,,,,,269.79739309998695,None,270.8085388999898,None,270.8085388999898,None,270.8085388999898,None,270.8085388999898,None,None,None,None,None,None,,,,,,,,,,,,,,,,,,,,,,,,,,,,,,,,,,,,,,,,,,,ST01_112522,2022-11-25_12h23.23.259,Hippopolis_Learning,2021.1.4,60.18538301655544,
Camponello,stimuli/subj_files/ST01_112522_cityB.csv,./stimuli/hallstatt.jpg,./stimuli/street_plate2.png,KOCKA UTCA,stimuli/scenes/010a.jpg,scene,0,stimuli/scenes/010a.jpg,stimuli/scenes/075b.jpg,stimuli/scenes/075a.jpg,stimuli/scenes/010b.jpg,stimuli/scenes/010a.jpg,dist2,dist1,lure,target,0,0,0,0,0,49,49,74,,,,,,,,,,,,,,,273.8142665999767,None,274.8197178999835,None,274.8197178999835,None,274.8197178999835,None,274.8197178999835,None,None,None,None,None,None,,,,,,,,,,,,,,,,,,,,,,,,,,,,,,,,,,,,,,,,,,,ST01_112522,2022-11-25_12h23.23.259,Hippopolis_Learning,2021.1.4,60.18538301655544,
Camponello,stimuli/subj_files/ST01_112522_cityB.csv,./stimuli/hallstatt.jpg,./stimuli/street_plate2.png,CITROM UTCA,stimuli/scenes/052a.jpg,scene,1,stimuli/scenes/082a.jpg,stimuli/scenes/045b.jpg,stimuli/scenes/082b.jpg,stimuli/scenes/082a.jpg,stimuli/scenes/045a.jpg,dist2,lure,target,dist1,0,0,0,0,0,50,50,55,,,,,,,,,,,,,,,277.83080159997917,None,278.8373832999787,None,278.8373832999787,None,278.8373832999787,None,278.8373832999787,None,None,None,None,None,None,,,,,,,,,,,,,,,,,,,,,,,,,,,,,,,,,,,,,,,,,,,ST01_112522,2022-11-25_12h23.23.259,Hippopolis_Learning,2021.1.4,60.18538301655544,
Camponello,stimuli/subj_files/ST01_112522_cityB.csv,./stimuli/hallstatt.jpg,./stimuli/street_plate2.png,SIRÁLY UTCA,stimuli/objects/004a.jpg,object,2,stimuli/scenes/030a.jpg,stimuli/scenes/030b.jpg,stimuli/objects/014a.jpg,stimuli/scenes/030a.jpg,stimuli/objects/014b.jpg,lure,dist1,target,dist2,0,0,0,0,0,51,51,42,,,,,,,,,,,,,,,281.84694279998075,None,282.8626010000007,None,282.8626010000007,None,282.8626010000007,None,282.8626010000007,None,None,None,None,None,None,,,,,,,,,,,,,,,,,,,,,,,,,,,,,,,,,,,,,,,,,,,ST01_112522,2022-11-25_12h23.23.259,Hippopolis_Learning,2021.1.4,60.18538301655544,
Camponello,stimuli/subj_files/ST01_112522_cityB.csv,./stimuli/hallstatt.jpg,./stimuli/street_plate2.png,MOGYORÓ UTCA,stimuli/scenes/092a.jpg,scene,2,stimuli/objects/014a.jpg,stimuli/scenes/041b.jpg,stimuli/objects/014a.jpg,stimuli/scenes/041a.jpg,stimuli/objects/014b.jpg,dist2,target,dist1,lure,0,0,0,0,0,52,52,32,,,,,,,,,,,,,,,285.8639711999858,None,286.88103309998405,None,286.88103309998405,None,286.88103309998405,None,286.88103309998405,None,None,None,None,None,None,,,,,,,,,,,,,,,,,,,,,,,,,,,,,,,,,,,,,,,,,,,ST01_112522,2022-11-25_12h23.23.259,Hippopolis_Learning,2021.1.4,60.18538301655544,
Camponello,stimuli/subj_files/ST01_112522_cityB.csv,./stimuli/hallstatt.jpg,./stimuli/street_plate2.png,TERASZ UTCA,stimuli/objects/072a.jpg,object,0,stimuli/objects/072a.jpg,stimuli/objects/072a.jpg,stimuli/scenes/118a.jpg,stimuli/objects/072b.jpg,stimuli/scenes/118b.jpg,target,dist1,lure,dist2,0,0,0,0,0,53,53,65,,,,,,,,,,,,,,,289.8799894999829,None,290.8926664000028,None,290.8926664000028,None,290.8926664000028,None,290.8926664000028,None,None,None,None,None,None,,,,,,,,,,,,,,,,,,,,,,,,,,,,,,,,,,,,,,,,,,,ST01_112522,2022-11-25_12h23.23.259,Hippopolis_Learning,2021.1.4,60.18538301655544,
Camponello,stimuli/subj_files/ST01_112522_cityB.csv,./stimuli/hallstatt.jpg,./stimuli/street_plate2.png,PAPRIKA UTCA,stimuli/scenes/038a.jpg,scene,0,stimuli/scenes/038a.jpg,stimuli/scenes/038b.jpg,stimuli/scenes/043b.jpg,stimuli/scenes/043a.jpg,stimuli/scenes/038a.jpg,lure,dist2,dist1,target,0,0,0,0,0,54,54,30,,,,,,,,,,,,,,,293.8968395999982,None,294.9041452999809,None,294.9041452999809,None,294.9041452999809,None,294.9041452999809,None,None,None,None,None,None,,,,,,,,,,,,,,,,,,,,,,,,,,,,,,,,,,,,,,,,,,,ST01_112522,2022-11-25_12h23.23.259,Hippopolis_Learning,2021.1.4,60.18538301655544,
Camponello,stimuli/subj_files/ST01_112522_cityB.csv,./stimuli/hallstatt.jpg,./stimuli/street_plate2.png,PALACK UTCA,stimuli/scenes/026a.jpg,scene,0,stimuli/scenes/026a.jpg,stimuli/scenes/026b.jpg,stimuli/objects/011a.jpg,stimuli/scenes/026a.jpg,stimuli/objects/011b.jpg,lure,dist1,target,dist2,0,0,0,0,0,55,55,26,,,,,,,,,,,,,,,297.91328639999847,None,298.9223121999821,None,298.9223121999821,None,298.9223121999821,None,298.9223121999821,None,None,None,None,None,None,,,,,,,,,,,,,,,,,,,,,,,,,,,,,,,,,,,,,,,,,,,ST01_112522,2022-11-25_12h23.23.259,Hippopolis_Learning,2021.1.4,60.18538301655544,
Camponello,stimuli/subj_files/ST01_112522_cityB.csv,./stimuli/hallstatt.jpg,./stimuli/street_plate2.png,SIVATAG UTCA,stimuli/objects/013a.jpg,object,0,stimuli/objects/013a.jpg,stimuli/objects/097b.jpg,stimuli/objects/097a.jpg,stimuli/objects/013a.jpg,stimuli/objects/013b.jpg,dist2,dist1,target,lure,0,0,0,0,0,56,56,62,,,,,,,,,,,,,,,301.93044279998867,None,302.9489537999907,None,302.9489537999907,None,302.9489537999907,None,302.9489537999907,None,None,None,None,None,None,,,,,,,,,,,,,,,,,,,,,,,,,,,,,,,,,,,,,,,,,,,ST01_112522,2022-11-25_12h23.23.259,Hippopolis_Learning,2021.1.4,60.18538301655544,
Camponello,stimuli/subj_files/ST01_112522_cityB.csv,./stimuli/hallstatt.jpg,./stimuli/street_plate2.png,TERÍTŐ UTCA,stimuli/objects/070a.jpg,object,0,stimuli/objects/070a.jpg,stimuli/objects/070b.jpg,stimuli/objects/070a.jpg,stimuli/objects/030a.jpg,stimuli/objects/030b.jpg,lure,target,dist1,dist2,0,0,0,0,0,57,57,64,,,,,,,,,,,,,,,305.947088099987,None,306.96493129999726,None,306.96493129999726,None,306.96493129999726,None,306.96493129999726,None,None,None,None,None,None,,,,,,,,,,,,,,,,,,,,,,,,,,,,,,,,,,,,,,,,,,,ST01_112522,2022-11-25_12h23.23.259,Hippopolis_Learning,2021.1.4,60.18538301655544,
Camponello,stimuli/subj_files/ST01_112522_cityB.csv,./stimuli/hallstatt.jpg,./stimuli/street_plate2.png,MOSODA UTCA,stimuli/scenes/065a.jpg,scene,0,stimuli/scenes/065a.jpg,stimuli/scenes/065a.jpg,stimuli/objects/057b.jpg,stimuli/scenes/065b.jpg,stimuli/objects/057a.jpg,target,dist2,lure,dist1,0,0,0,0,0,58,58,1,,,,,,,,,,,,,,,309.96308889999636,None,310.9704948999861,None,310.9704948999861,None,310.9704948999861,None,310.9704948999861,None,None,None,None,None,None,,,,,,,,,,,,,,,,,,,,,,,,,,,,,,,,,,,,,,,,,,,ST01_112522,2022-11-25_12h23.23.259,Hippopolis_Learning,2021.1.4,60.18538301655544,
Camponello,stimuli/subj_files/ST01_112522_cityB.csv,./stimuli/hallstatt.jpg,./stimuli/street_plate2.png,TOLMÁCS UTCA,stimuli/objects/090a.jpg,object,0,stimuli/objects/090a.jpg,stimuli/objects/090a.jpg,stimuli/objects/109a.jpg,stimuli/objects/090b.jpg,stimuli/objects/109b.jpg,target,dist1,lure,dist2,0,0,0,0,0,59,59,11,,,,,,,,,,,,,,,313.9795274999924,None,314.9910454999772,None,314.9910454999772,None,314.9910454999772,None,314.9910454999772,None,None,None,None,None,None,,,,,,,,,,,,,,,,,,,,,,,,,,,,,,,,,,,,,,,,,,,ST01_112522,2022-11-25_12h23.23.259,Hippopolis_Learning,2021.1.4,60.18538301655544,
Camponello,stimuli/subj_files/ST01_112522_cityB.csv,./stimuli/hallstatt.jpg,./stimuli/street_plate2.png,VITORLA UTCA,stimuli/objects/099a.jpg,object,0,stimuli/objects/099a.jpg,stimuli/objects/099a.jpg,stimuli/objects/115b.jpg,stimuli/objects/115a.jpg,stimuli/objects/099b.jpg,target,dist2,dist1,lure,0,0,0,0,0,60,60,37,,,,,,,,,,,,,,,317.99666129998513,None,319.0134865999862,None,319.0134865999862,None,319.0134865999862,None,319.0134865999862,None,None,None,None,None,None,,,,,,,,,,,,,,,,,,,,,,,,,,,,,,,,,,,,,,,,,,,ST01_112522,2022-11-25_12h23.23.259,Hippopolis_Learning,2021.1.4,60.18538301655544,
Camponello,stimuli/subj_files/ST01_112522_cityB.csv,./stimuli/hallstatt.jpg,./stimuli/street_plate2.png,VIHAR UTCA,stimuli/scenes/110a.jpg,scene,0,stimuli/scenes/110a.jpg,stimuli/scenes/110b.jpg,stimuli/scenes/049a.jpg,stimuli/scenes/110a.jpg,stimuli/scenes/049b.jpg,lure,dist1,target,dist2,0,0,0,0,0,61,61,20,,,,,,,,,,,,,,,322.0127075999917,None,323.0310375999834,None,323.0310375999834,None,323.0310375999834,None,323.0310375999834,None,None,None,None,None,None,,,,,,,,,,,,,,,,,,,,,,,,,,,,,,,,,,,,,,,,,,,ST01_112522,2022-11-25_12h23.23.259,Hippopolis_Learning,2021.1.4,60.18538301655544,
Camponello,stimuli/subj_files/ST01_112522_cityB.csv,./stimuli/hallstatt.jpg,./stimuli/street_plate2.png,MOCSÁR UTCA,stimuli/scenes/104a.jpg,scene,0,stimuli/scenes/104a.jpg,stimuli/objects/076a.jpg,stimuli/objects/076b.jpg,stimuli/scenes/104b.jpg,stimuli/scenes/104a.jpg,dist1,dist2,lure,target,0,0,0,0,0,62,62,5,,,,,,,,,,,,,,,326.0298666000017,None,327.0376259999757,None,327.0376259999757,None,327.0376259999757,None,327.0376259999757,None,None,None,None,None,None,,,,,,,,,,,,,,,,,,,,,,,,,,,,,,,,,,,,,,,,,,,ST01_112522,2022-11-25_12h23.23.259,Hippopolis_Learning,2021.1.4,60.18538301655544,
Camponello,stimuli/subj_files/ST01_112522_cityB.csv,./stimuli/hallstatt.jpg,./stimuli/street_plate2.png,TOJÁS UTCA,stimuli/objects/003a.jpg,object,0,stimuli/objects/003a.jpg,stimuli/objects/087a.jpg,stimuli/objects/087b.jpg,stimuli/objects/003a.jpg,stimuli/objects/003b.jpg,dist1,dist2,target,lure,0,0,0,0,0,63,63,47,,,,,,,,,,,,,,,330.0465306999977,None,331.0535518999968,None,331.0535518999968,None,331.0535518999968,None,331.0535518999968,None,None,None,None,None,None,,,,,,,,,,,,,,,,,,,,,,,,,,,,,,,,,,,,,,,,,,,ST01_112522,2022-11-25_12h23.23.259,Hippopolis_Learning,2021.1.4,60.18538301655544,
Camponello,stimuli/subj_files/ST01_112522_cityB.csv,./stimuli/hallstatt.jpg,./stimuli/street_plate2.png,AJÁNDÉK UTCA,stimuli/scenes/118a.jpg,scene,0,stimuli/scenes/118a.jpg,stimuli/scenes/118a.jpg,stimuli/scenes/118b.jpg,stimuli/objects/038a.jpg,stimuli/objects/038b.jpg,target,lure,dist1,dist2,0,0,0,0,0,64,64,60,,,,,,,,,,,,,,,334.0632062999939,None,335.081165999989,None,335.081165999989,None,335.081165999989,None,335.081165999989,None,None,None,None,None,None,,,,,,,,,,,,,,,,,,,,,,,,,,,,,,,,,,,,,,,,,,,ST01_112522,2022-11-25_12h23.23.259,Hippopolis_Learning,2021.1.4,60.18538301655544,
Camponello,stimuli/subj_files/ST01_112522_cityB.csv,./stimuli/hallstatt.jpg,./stimuli/street_plate2.png,HEGEDŰ UTCA,stimuli/objects/041a.jpg,object,2,stimuli/scenes/097a.jpg,stimuli/scenes/097b.jpg,stimuli/objects/053b.jpg,stimuli/scenes/097a.jpg,stimuli/objects/053a.jpg,lure,dist2,target,dist1,0,0,0,0,0,65,65,76,,,,,,,,,,,,,,,338.07972229999723,None,339.08826180000324,None,339.08826180000324,None,339.08826180000324,None,339.08826180000324,None,None,None,None,None,None,,,,,,,,,,,,,,,,,,,,,,,,,,,,,,,,,,,,,,,,,,,ST01_112522,2022-11-25_12h23.23.259,Hippopolis_Learning,2021.1.4,60.18538301655544,
Camponello,stimuli/subj_files/ST01_112522_cityB.csv,./stimuli/hallstatt.jpg,./stimuli/street_plate2.png,KERET UTCA,stimuli/objects/094a.jpg,object,1,stimuli/objects/091a.jpg,stimuli/objects/091b.jpg,stimuli/objects/007b.jpg,stimuli/objects/091a.jpg,stimuli/objects/007a.jpg,lure,dist2,target,dist1,0,0,0,0,0,66,66,6,,,,,,,,,,,,,,,342.09642789998907,None,343.10238229998504,None,343.10238229998504,None,343.10238229998504,None,343.10238229998504,None,None,None,None,None,None,,,,,,,,,,,,,,,,,,,,,,,,,,,,,,,,,,,,,,,,,,,ST01_112522,2022-11-25_12h23.23.259,Hippopolis_Learning,2021.1.4,60.18538301655544,
Camponello,stimuli/subj_files/ST01_112522_cityB.csv,./stimuli/hallstatt.jpg,./stimuli/street_plate2.png,KERÉK UTCA,stimuli/scenes/021a.jpg,scene,2,stimuli/objects/053a.jpg,stimuli/objects/105b.jpg,stimuli/objects/105a.jpg,stimuli/objects/053b.jpg,stimuli/objects/053a.jpg,dist2,dist1,lure,target,0,0,0,0,0,67,67,17,,,,,,,,,,,,,,,346.1129062999971,None,347.12232719999156,None,347.12232719999156,None,347.12232719999156,None,347.12232719999156,None,None,None,None,None,None,,,,,,,,,,,,,,,,,,,,,,,,,,,,,,,,,,,,,,,,,,,ST01_112522,2022-11-25_12h23.23.259,Hippopolis_Learning,2021.1.4,60.18538301655544,
Camponello,stimuli/subj_files/ST01_112522_cityB.csv,./stimuli/hallstatt.jpg,./stimuli/street_plate2.png,LÉTRA UTCA,stimuli/scenes/053a.jpg,scene,0,stimuli/scenes/053a.jpg,stimuli/scenes/053b.jpg,stimuli/objects/068a.jpg,stimuli/scenes/053a.jpg,stimuli/objects/068b.jpg,lure,dist1,target,dist2,0,0,0,0,0,68,68,28,,,,,,,,,,,,,,,350.12948669999605,None,351.13705679998384,None,351.13705679998384,None,351.13705679998384,None,351.13705679998384,None,None,None,None,None,None,,,,,,,,,,,,,,,,,,,,,,,,,,,,,,,,,,,,,,,,,,,ST01_112522,2022-11-25_12h23.23.259,Hippopolis_Learning,2021.1.4,60.18538301655544,
Camponello,stimuli/subj_files/ST01_112522_cityB.csv,./stimuli/hallstatt.jpg,./stimuli/street_plate2.png,KÖMÉNYMAG UTCA,stimuli/scenes/028a.jpg,scene,1,stimuli/scenes/045a.jpg,stimuli/scenes/045b.jpg,stimuli/objects/092b.jpg,stimuli/scenes/045a.jpg,stimuli/objects/092a.jpg,lure,dist2,target,dist1,0,0,0,0,0,69,69,66,,,,,,,,,,,,,,,354.14604229998076,None,355.1511127999984,None,355.1511127999984,None,355.1511127999984,None,355.1511127999984,None,None,None,None,None,None,,,,,,,,,,,,,,,,,,,,,,,,,,,,,,,,,,,,,,,,,,,ST01_112522,2022-11-25_12h23.23.259,Hippopolis_Learning,2021.1.4,60.18538301655544,
Camponello,stimuli/subj_files/ST01_112522_cityB.csv,./stimuli/hallstatt.jpg,./stimuli/street_plate2.png,MARTINI UTCA,stimuli/scenes/043a.jpg,scene,0,stimuli/scenes/043a.jpg,stimuli/scenes/043b.jpg,stimuli/objects/044a.jpg,stimuli/scenes/043a.jpg,stimuli/objects/044b.jpg,lure,dist1,target,dist2,0,0,0,0,0,70,70,33,,,,,,,,,,,,,,,358.1626561000012,None,359.16959320000024,None,359.16959320000024,None,359.16959320000024,None,359.16959320000024,None,None,None,None,None,None,,,,,,,,,,,,,,,,,,,,,,,,,,,,,,,,,,,,,,,,,,,ST01_112522,2022-11-25_12h23.23.259,Hippopolis_Learning,2021.1.4,60.18538301655544,
Camponello,stimuli/subj_files/ST01_112522_cityB.csv,./stimuli/hallstatt.jpg,./stimuli/street_plate2.png,ASZTAL UTCA,stimuli/scenes/066a.jpg,scene,2,stimuli/objects/078a.jpg,stimuli/objects/078a.jpg,stimuli/scenes/109b.jpg,stimuli/objects/078b.jpg,stimuli/scenes/109a.jpg,target,dist2,lure,dist1,0,0,0,0,0,71,71,59,,,,,,,,,,,,,,,362.1792898999993,None,363.18602510000346,None,363.18602510000346,None,363.18602510000346,None,363.18602510000346,None,None,None,None,None,None,,,,,,,,,,,,,,,,,,,,,,,,,,,,,,,,,,,,,,,,,,,ST01_112522,2022-11-25_12h23.23.259,Hippopolis_Learning,2021.1.4,60.18538301655544,
Camponello,stimuli/subj_files/ST01_112522_cityB.csv,./stimuli/hallstatt.jpg,./stimuli/street_plate2.png,EGÉR UTCA,stimuli/objects/115a.jpg,object,0,stimuli/objects/115a.jpg,stimuli/scenes/010a.jpg,stimuli/objects/115a.jpg,stimuli/scenes/010b.jpg,stimuli/objects/115b.jpg,dist1,target,dist2,lure,0,0,0,0,0,72,72,44,,,,,,,,,,,,,,,366.1958849999937,None,367.2176058999903,None,367.2176058999903,None,367.2176058999903,None,367.2176058999903,None,None,None,None,None,None,,,,,,,,,,,,,,,,,,,,,,,,,,,,,,,,,,,,,,,,,,,ST01_112522,2022-11-25_12h23.23.259,Hippopolis_Learning,2021.1.4,60.18538301655544,
Camponello,stimuli/subj_files/ST01_112522_cityB.csv,./stimuli/hallstatt.jpg,./stimuli/street_plate2.png,LEMEZ UTCA,stimuli/objects/120a.jpg,object,1,stimuli/objects/007a.jpg,stimuli/scenes/120a.jpg,stimuli/objects/007b.jpg,stimuli/scenes/120b.jpg,stimuli/objects/007a.jpg,dist1,lure,dist2,target,0,0,0,0,0,73,73,29,,,,,,,,,,,,,,,370.21231149998493,None,371.2326417999866,None,371.2326417999866,None,371.2326417999866,None,371.2326417999866,None,None,None,None,None,None,,,,,,,,,,,,,,,,,,,,,,,,,,,,,,,,,,,,,,,,,,,ST01_112522,2022-11-25_12h23.23.259,Hippopolis_Learning,2021.1.4,60.18538301655544,
Camponello,stimuli/subj_files/ST01_112522_cityB.csv,./stimuli/hallstatt.jpg,./stimuli/street_plate2.png,AKÁC UTCA,stimuli/objects/062a.jpg,object,0,stimuli/objects/062a.jpg,stimuli/scenes/053a.jpg,stimuli/scenes/053b.jpg,stimuli/objects/062a.jpg,stimuli/objects/062b.jpg,dist1,dist2,target,lure,0,0,0,0,0,74,74,41,,,,,,,,,,,,,,,374.22847539998475,None,375.24503719998756,None,375.24503719998756,None,375.24503719998756,None,375.24503719998756,None,None,None,None,None,None,,,,,,,,,,,,,,,,,,,,,,,,,,,,,,,,,,,,,,,,,,,ST01_112522,2022-11-25_12h23.23.259,Hippopolis_Learning,2021.1.4,60.18538301655544,
Camponello,stimuli/subj_files/ST01_112522_cityB.csv,./stimuli/hallstatt.jpg,./stimuli/street_plate2.png,OLDAL UTCA,stimuli/objects/107a.jpg,object,2,stimuli/scenes/079a.jpg,stimuli/scenes/079a.jpg,stimuli/scenes/079b.jpg,stimuli/objects/078b.jpg,stimuli/objects/078a.jpg,target,lure,dist2,dist1,0,0,0,0,0,75,75,40,,,,,,,,,,,,,,,378.24517179999384,None,379.25711720000254,None,379.25711720000254,None,379.25711720000254,None,379.25711720000254,None,None,None,None,None,None,,,,,,,,,,,,,,,,,,,,,,,,,,,,,,,,,,,,,,,,,,,ST01_112522,2022-11-25_12h23.23.259,Hippopolis_Learning,2021.1.4,60.18538301655544,
Camponello,stimuli/subj_files/ST01_112522_cityB.csv,./stimuli/hallstatt.jpg,./stimuli/street_plate2.png,LÁNDZSA UTCA,stimuli/scenes/036a.jpg,scene,0,stimuli/scenes/036a.jpg,stimuli/scenes/036b.jpg,stimuli/scenes/093b.jpg,stimuli/scenes/093a.jpg,stimuli/scenes/036a.jpg,lure,dist2,dist1,target,0,0,0,0,0,76,76,19,,,,,,,,,,,,,,,382.2618648999778,None,383.2697710999928,None,383.2697710999928,None,383.2697710999928,None,383.2697710999928,None,None,None,None,None,None,,,,,,,,,,,,,,,,,,,,,,,,,,,,,,,,,,,,,,,,,,,ST01_112522,2022-11-25_12h23.23.259,Hippopolis_Learning,2021.1.4,60.18538301655544,
Camponello,stimuli/subj_files/ST01_112522_cityB.csv,./stimuli/hallstatt.jpg,./stimuli/street_plate2.png,HARMONIKA UTCA,stimuli/objects/068a.jpg,object,0,stimuli/objects/068a.jpg,stimuli/objects/068b.jpg,stimuli/scenes/012b.jpg,stimuli/objects/068a.jpg,stimuli/scenes/012a.jpg,lure,dist2,target,dist1,0,0,0,0,0,77,77,38,,,,,,,,,,,,,,,386.2789513999887,None,387.28716310000164,None,387.28716310000164,None,387.28716310000164,None,387.28716310000164,None,None,None,None,None,None,,,,,,,,,,,,,,,,,,,,,,,,,,,,,,,,,,,,,,,,,,,ST01_112522,2022-11-25_12h23.23.259,Hippopolis_Learning,2021.1.4,60.18538301655544,
Camponello,stimuli/subj_files/ST01_112522_cityB.csv,./stimuli/hallstatt.jpg,./stimuli/street_plate2.png,PÁRNA UTCA,stimuli/scenes/037a.jpg,scene,1,stimuli/scenes/074a.jpg,stimuli/scenes/074b.jpg,stimuli/objects/100a.jpg,stimuli/objects/100b.jpg,stimuli/scenes/074a.jpg,lure,dist1,dist2,target,0,0,0,0,0,78,78,49,,,,,,,,,,,,,,,390.2948037000024,None,391.29630200000247,None,391.29630200000247,None,391.29630200000247,None,391.29630200000247,None,None,None,None,None,None,,,,,,,,,,,,,,,,,,,,,,,,,,,,,,,,,,,,,,,,,,,ST01_112522,2022-11-25_12h23.23.259,Hippopolis_Learning,2021.1.4,60.18538301655544,
Camponello,stimuli/subj_files/ST01_112522_cityB.csv,./stimuli/hallstatt.jpg,./stimuli/street_plate2.png,FÓKA UTCA,stimuli/objects/106a.jpg,object,0,stimuli/objects/106a.jpg,stimuli/objects/106a.jpg,stimuli/objects/051b.jpg,stimuli/objects/051a.jpg,stimuli/objects/106b.jpg,target,dist2,dist1,lure,0,0,0,0,0,79,79,50,,,,,,,,,,,,,,,394.2953722999955,None,395.30523589998484,None,395.30523589998484,None,395.30523589998484,None,395.30523589998484,None,None,None,None,None,None,,,,,,,,,,,,,,,,,,,,,,,,,,,,,,,,,,,,,,,,,,,ST01_112522,2022-11-25_12h23.23.259,Hippopolis_Learning,2021.1.4,60.18538301655544,
Camponello,stimuli/subj_files/ST01_112522_cityB.csv,./stimuli/hallstatt.jpg,./stimuli/street_plate2.png,FÉSZEK UTCA,stimuli/objects/075a.jpg,object,0,stimuli/objects/075a.jpg,stimuli/objects/075b.jpg,stimuli/objects/075a.jpg,stimuli/scenes/019b.jpg,stimuli/scenes/019a.jpg,lure,target,dist2,dist1,0,0,0,0,,,,,0,0,0,72,,,,,,,,,,,416.93947139999364,None,,,,,,,,,,,,,,,398.31183910000254,None,space,14.576755599991884,398.31183910000254,None,412.9426377999771,None,412.9426377999771,None,412.9426377999771,None,412.9426377999771,None,None,412.9426377999771,None,412.9426377999771,None,None,None,None,None,None,None,None,None,None,None,None,,,,,,,,,,,,ST01_112522,2022-11-25_12h23.23.259,Hippopolis_Learning,2021.1.4,60.18538301655544,
Camponello,stimuli/subj_files/ST01_112522_cityB.csv,./stimuli/hallstatt.jpg,./stimuli/street_plate2.png,HORDÓ UTCA,stimuli/objects/084a.jpg,object,0,stimuli/objects/084a.jpg,stimuli/objects/084a.jpg,stimuli/scenes/039a.jpg,stimuli/objects/084b.jpg,stimuli/scenes/039b.jpg,target,dist1,lure,dist2,0,0,0,0,,,,,0,1,1,75,,,,,,,,,,,428.1942371999903,None,,,,,,,,,,,,,,,,,,,,,417.94537809997564,None,417.94537809997564,None,417.94537809997564,None,417.94537809997564,None,right,417.94537809997564,None,417.94537809997564,None,420.133943599998,None,420.133943599998,None,420.133943599998,None,420.133943599998,None,space,420.133943599998,None,2.1648067999922205,8.043692599982023,,,,,,,,,,ST01_112522,2022-11-25_12h23.23.259,Hippopolis_Learning,2021.1.4,60.18538301655544,
Camponello,stimuli/subj_files/ST01_112522_cityB.csv,./stimuli/hallstatt.jpg,./stimuli/street_plate2.png,TULIPÁN UTCA,stimuli/scenes/013a.jpg,scene,0,stimuli/scenes/013a.jpg,stimuli/scenes/026a.jpg,stimuli/scenes/013a.jpg,stimuli/scenes/013b.jpg,stimuli/scenes/026b.jpg,dist1,target,lure,dist2,0,0,0,0,,,,,0,2,2,13,,,,,,,,,,,431.6627320999978,None,,,,,,,,,,,,,,,,,,,,,429.1948577000003,None,429.1948577000003,None,429.1948577000003,None,429.1948577000003,None,left,429.1948577000003,None,429.1948577000003,None,None,None,None,None,None,None,None,None,None,None,None,2.4477246000024024,,,,,,,,,,,ST01_112522,2022-11-25_12h23.23.259,Hippopolis_Learning,2021.1.4,60.18538301655544,
Camponello,stimuli/subj_files/ST01_112522_cityB.csv,./stimuli/hallstatt.jpg,./stimuli/street_plate2.png,HERNYÓ UTCA,stimuli/objects/109a.jpg,object,0,stimuli/objects/109a.jpg,stimuli/scenes/061b.jpg,stimuli/objects/109b.jpg,stimuli/scenes/061a.jpg,stimuli/objects/109a.jpg,dist2,lure,dist1,target,0,0,0,0,,,,,0,3,3,31,,,,,,,,,,,434.6787443999783,None,,,,,,,,,,,,,,,,,,,,,432.68123590000323,None,432.68123590000323,None,432.68123590000323,None,432.68123590000323,None,left,432.68123590000323,None,432.68123590000323,None,None,None,None,None,None,None,None,None,None,None,None,1.9707262000010815,,,,,,,,,,,ST01_112522,2022-11-25_12h23.23.259,Hippopolis_Learning,2021.1.4,60.18538301655544,
Camponello,stimuli/subj_files/ST01_112522_cityB.csv,./stimuli/hallstatt.jpg,./stimuli/street_plate2.png,VITORLA UTCA,stimuli/objects/099a.jpg,object,0,stimuli/objects/099a.jpg,stimuli/objects/099a.jpg,stimuli/objects/115b.jpg,stimuli/objects/115a.jpg,stimuli/objects/099b.jpg,target,dist2,dist1,lure,0,0,0,0,,,,,0,4,4,37,,,,,,,,,,,439.67829699997674,None,,,,,,,,,,,,,,,,,,,,,435.6779405999987,None,435.6779405999987,None,435.6779405999987,None,435.6779405999987,None,None,435.6779405999987,None,435.6779405999987,None,None,None,None,None,None,None,None,None,None,None,None,,,,,,,,,,,,ST01_112522,2022-11-25_12h23.23.259,Hippopolis_Learning,2021.1.4,60.18538301655544,
Camponello,stimuli/subj_files/ST01_112522_cityB.csv,./stimuli/hallstatt.jpg,./stimuli/street_plate2.png,KERÉK UTCA,stimuli/scenes/021a.jpg,scene,2,stimuli/objects/053a.jpg,stimuli/objects/105b.jpg,stimuli/objects/105a.jpg,stimuli/objects/053b.jpg,stimuli/objects/053a.jpg,dist2,dist1,lure,target,0,0,0,0,,,,,0,5,5,17,,,,,,,,,,,444.37982999999076,None,,,,,,,,,,,,,,,,,,,,,440.6942664999806,None,440.6942664999806,None,440.6942664999806,None,440.6942664999806,None,left,440.6942664999806,None,440.6942664999806,None,None,None,None,None,None,None,None,None,None,None,None,3.6659739000024274,,,,,,,,,,,ST01_112522,2022-11-25_12h23.23.259,Hippopolis_Learning,2021.1.4,60.18538301655544,
Camponello,stimuli/subj_files/ST01_112522_cityB.csv,./stimuli/hallstatt.jpg,./stimuli/street_plate2.png,HEGEDŰ UTCA,stimuli/objects/041a.jpg,object,2,stimuli/scenes/097a.jpg,stimuli/scenes/097b.jpg,stimuli/objects/053b.jpg,stimuli/scenes/097a.jpg,stimuli/objects/053a.jpg,lure,dist2,target,dist1,0,0,0,0,,,,,0,6,6,76,,,,,,,,,,,449.39954319997923,None,,,,,,,,,,,,,,,,,,,,,445.39895400000387,None,445.39895400000387,None,445.39895400000387,None,445.39895400000387,None,None,445.39895400000387,None,445.39895400000387,None,None,None,None,None,None,None,None,None,None,None,None,,,,,,,,,,,,ST01_112522,2022-11-25_12h23.23.259,Hippopolis_Learning,2021.1.4,60.18538301655544,
Camponello,stimuli/subj_files/ST01_112522_cityB.csv,./stimuli/hallstatt.jpg,./stimuli/street_plate2.png,LÉPCSŐ UTCA,stimuli/scenes/023a.jpg,scene,1,stimuli/scenes/120a.jpg,stimuli/scenes/089a.jpg,stimuli/scenes/120b.jpg,stimuli/scenes/120a.jpg,stimuli/scenes/089b.jpg,dist1,lure,target,dist2,0,0,0,0,,,,,0,7,7,0,,,,,,,,,,,452.38090889999876,None,,,,,,,,,,,,,,,,,,,,,450.4132779999927,None,450.4132779999927,None,450.4132779999927,None,450.4132779999927,None,right,450.4132779999927,None,450.4132779999927,None,None,None,None,None,None,None,None,None,None,None,None,1.9441606999898795,,,,,,,,,,,ST01_112522,2022-11-25_12h23.23.259,Hippopolis_Learning,2021.1.4,60.18538301655544,
Camponello,stimuli/subj_files/ST01_112522_cityB.csv,./stimuli/hallstatt.jpg,./stimuli/street_plate2.png,TOJÁS UTCA,stimuli/objects/003a.jpg,object,0,stimuli/objects/003a.jpg,stimuli/objects/087a.jpg,stimuli/objects/087b.jpg,stimuli/objects/003a.jpg,stimuli/objects/003b.jpg,dist1,dist2,target,lure,0,0,0,0,,,,,0,8,8,47,,,,,,,,,,,456.56270429998403,None,,,,,,,,,,,,,,,,,,,,,453.39459089998854,None,453.39459089998854,None,453.39459089998854,None,453.39459089998854,None,left,453.39459089998854,None,453.39459089998854,None,None,None,None,None,None,None,None,None,None,None,None,3.140076199983014,,,,,,,,,,,ST01_112522,2022-11-25_12h23.23.259,Hippopolis_Learning,2021.1.4,60.18538301655544,
Camponello,stimuli/subj_files/ST01_112522_cityB.csv,./stimuli/hallstatt.jpg,./stimuli/street_plate2.png,HÁRFA UTCA,stimuli/objects/051a.jpg,object,0,stimuli/objects/051a.jpg,stimuli/objects/051b.jpg,stimuli/objects/051a.jpg,stimuli/objects/093a.jpg,stimuli/objects/093b.jpg,lure,target,dist1,dist2,0,0,0,0,,,,,0,9,9,45,,,,,,,,,,,461.57870539999567,None,,,,,,,,,,,,,,,,,,,,,457.5796969999792,None,457.5796969999792,None,457.5796969999792,None,457.5796969999792,None,None,457.5796969999792,None,457.5796969999792,None,None,None,None,None,None,None,None,None,None,None,None,,,,,,,,,,,,ST01_112522,2022-11-25_12h23.23.259,Hippopolis_Learning,2021.1.4,60.18538301655544,
Camponello,stimuli/subj_files/ST01_112522_cityB.csv,./stimuli/hallstatt.jpg,./stimuli/street_plate2.png,PAPRIKA UTCA,stimuli/scenes/038a.jpg,scene,0,stimuli/scenes/038a.jpg,stimuli/scenes/038b.jpg,stimuli/scenes/043b.jpg,stimuli/scenes/043a.jpg,stimuli/scenes/038a.jpg,lure,dist2,dist1,target,0,0,0,0,,,,,0,10,10,30,,,,,,,,,,,464.64888449999853,None,,,,,,,,,,,,,,,,,,,,,462.59572339997976,None,462.59572339997976,None,462.59572339997976,None,462.59572339997976,None,right,462.59572339997976,None,462.59572339997976,None,None,None,None,None,None,None,None,None,None,None,None,2.03021309999167,,,,,,,,,,,ST01_112522,2022-11-25_12h23.23.259,Hippopolis_Learning,2021.1.4,60.18538301655544,
Camponello,stimuli/subj_files/ST01_112522_cityB.csv,./stimuli/hallstatt.jpg,./stimuli/street_plate2.png,KESZTYŰ UTCA,stimuli/objects/118a.jpg,object,2,stimuli/scenes/017a.jpg,stimuli/scenes/017a.jpg,stimuli/scenes/017b.jpg,stimuli/objects/058b.jpg,stimuli/objects/058a.jpg,target,lure,dist2,dist1,0,0,0,0,,,,,0,11,11,36,,,,,,,,,,,469.0622753999778,None,,,,,,,,,,,,,,,,,,,,,465.6640927999979,None,465.6640927999979,None,465.6640927999979,None,465.6640927999979,None,left,465.6640927999979,None,465.6640927999979,None,None,None,None,None,None,None,None,None,None,None,None,3.372363200003747,,,,,,,,,,,ST01_112522,2022-11-25_12h23.23.259,Hippopolis_Learning,2021.1.4,60.18538301655544,
Camponello,stimuli/subj_files/ST01_112522_cityB.csv,./stimuli/hallstatt.jpg,./stimuli/street_plate2.png,TOLMÁCS UTCA,stimuli/objects/090a.jpg,object,0,stimuli/objects/090a.jpg,stimuli/objects/090a.jpg,stimuli/objects/109a.jpg,stimuli/objects/090b.jpg,stimuli/objects/109b.jpg,target,dist1,lure,dist2,0,0,0,0,,,,,0,12,12,11,,,,,,,,,,,471.14778069997556,None,,,,,,,,,,,,,,,,,,,,,470.07780149998143,None,470.07780149998143,None,470.07780149998143,None,470.07780149998143,None,right,470.07780149998143,None,470.07780149998143,None,None,None,None,None,None,None,None,None,None,None,None,1.033376200008206,,,,,,,,,,,ST01_112522,2022-11-25_12h23.23.259,Hippopolis_Learning,2021.1.4,60.18538301655544,
Camponello,stimuli/subj_files/ST01_112522_cityB.csv,./stimuli/hallstatt.jpg,./stimuli/street_plate2.png,KOKTÉL UTCA,stimuli/objects/030a.jpg,object,0,stimuli/objects/030a.jpg,stimuli/objects/030a.jpg,stimuli/objects/030b.jpg,stimuli/scenes/081a.jpg,stimuli/scenes/081b.jpg,target,lure,dist1,dist2,0,0,0,0,,,,,0,13,13,35,,,,,,,,,,,481.01063559998875,None,,,,,,,,,,,,,,,,,,,,,472.1605893999804,None,472.1605893999804,None,472.1605893999804,None,472.1605893999804,None,right,472.1605893999804,None,472.1605893999804,None,473.014017199981,None,473.014017199981,None,473.014017199981,None,473.014017199981,None,space,473.014017199981,None,0.8256440999975894,7.965050300001167,,,,,,,,,,ST01_112522,2022-11-25_12h23.23.259,Hippopolis_Learning,2021.1.4,60.18538301655544,
Camponello,stimuli/subj_files/ST01_112522_cityB.csv,./stimuli/hallstatt.jpg,./stimuli/street_plate2.png,RÁDIÓ UTCA,stimuli/scenes/024a.jpg,scene,2,stimuli/objects/105a.jpg,stimuli/scenes/030a.jpg,stimuli/scenes/030b.jpg,stimuli/objects/105b.jpg,stimuli/objects/105a.jpg,dist1,dist2,lure,target,0,0,0,0,,,,,0,14,14,78,,,,,,,,,,,502.3762247999839,None,,,,,,,,,,,,,,,,,,,,,482.01045319999685,None,482.01045319999685,None,482.01045319999685,None,482.01045319999685,None,right,482.01045319999685,None,482.01045319999685,None,483.4137361999892,None,483.4137361999892,None,483.4137361999892,None,483.4137361999892,None,space,483.4137361999892,None,1.3738305000006221,18.93658239999786,,,,,,,,,,ST01_112522,2022-11-25_12h23.23.259,Hippopolis_Learning,2021.1.4,60.18538301655544,
Camponello,stimuli/subj_files/ST01_112522_cityB.csv,./stimuli/hallstatt.jpg,./stimuli/street_plate2.png,BÚJÓCSKA UTCA,stimuli/scenes/047a.jpg,scene,0,stimuli/scenes/047a.jpg,stimuli/scenes/047a.jpg,stimuli/objects/072a.jpg,stimuli/objects/072b.jpg,stimuli/scenes/047b.jpg,target,dist1,dist2,lure,0,0,0,0,,,,,0,15,15,9,,,,,,,,,,,505.7959409999894,None,,,,,,,,,,,,,,,,,,,,,503.3859629999788,None,503.3859629999788,None,503.3859629999788,None,503.3859629999788,None,right,503.3859629999788,None,503.3859629999788,None,None,None,None,None,None,None,None,None,None,None,None,2.379354800010333,,,,,,,,,,,ST01_112522,2022-11-25_12h23.23.259,Hippopolis_Learning,2021.1.4,60.18538301655544,
Camponello,stimuli/subj_files/ST01_112522_cityB.csv,./stimuli/hallstatt.jpg,./stimuli/street_plate2.png,KULLANCS UTCA,stimuli/objects/040a.jpg,object,2,stimuli/scenes/109a.jpg,stimuli/objects/016a.jpg,stimuli/objects/016b.jpg,stimuli/scenes/109b.jpg,stimuli/scenes/109a.jpg,dist1,dist2,lure,target,0,0,0,0,,,,,0,16,16,67,,,,,,,,,,,507.9298757999786,None,,,,,,,,,,,,,,,,,,,,,506.8109335999761,None,506.8109335999761,None,506.8109335999761,None,506.8109335999761,None,right,506.8109335999761,None,506.8109335999761,None,None,None,None,None,None,None,None,None,None,None,None,1.094358000002103,,,,,,,,,,,ST01_112522,2022-11-25_12h23.23.259,Hippopolis_Learning,2021.1.4,60.18538301655544,
Camponello,stimuli/subj_files/ST01_112522_cityB.csv,./stimuli/hallstatt.jpg,./stimuli/street_plate2.png,MARTINI UTCA,stimuli/scenes/043a.jpg,scene,0,stimuli/scenes/043a.jpg,stimuli/scenes/043b.jpg,stimuli/objects/044a.jpg,stimuli/scenes/043a.jpg,stimuli/objects/044b.jpg,lure,dist1,target,dist2,0,0,0,0,,,,,0,17,17,33,,,,,,,,,,,510.06531819998054,None,,,,,,,,,,,,,,,,,,,,,508.94310539998696,None,508.94310539998696,None,508.94310539998696,None,508.94310539998696,None,right,508.94310539998696,None,508.94310539998696,None,None,None,None,None,None,None,None,None,None,None,None,1.0886568000132684,,,,,,,,,,,ST01_112522,2022-11-25_12h23.23.259,Hippopolis_Learning,2021.1.4,60.18538301655544,
Camponello,stimuli/subj_files/ST01_112522_cityB.csv,./stimuli/hallstatt.jpg,./stimuli/street_plate2.png,OLDAL UTCA,stimuli/objects/107a.jpg,object,2,stimuli/scenes/079a.jpg,stimuli/scenes/079a.jpg,stimuli/scenes/079b.jpg,stimuli/objects/078b.jpg,stimuli/objects/078a.jpg,target,lure,dist2,dist1,0,0,0,0,,,,,0,18,18,40,,,,,,,,,,,512.0614331999968,None,,,,,,,,,,,,,,,,,,,,,511.0783283999772,None,511.0783283999772,None,511.0783283999772,None,511.0783283999772,None,left,511.0783283999772,None,511.0783283999772,None,None,None,None,None,None,None,None,None,None,None,None,0.9516502000042237,,,,,,,,,,,ST01_112522,2022-11-25_12h23.23.259,Hippopolis_Learning,2021.1.4,60.18538301655544,
Camponello,stimuli/subj_files/ST01_112522_cityB.csv,./stimuli/hallstatt.jpg,./stimuli/street_plate2.png,PALACK UTCA,stimuli/scenes/026a.jpg,scene,0,stimuli/scenes/026a.jpg,stimuli/scenes/026b.jpg,stimuli/objects/011a.jpg,stimuli/scenes/026a.jpg,stimuli/objects/011b.jpg,lure,dist1,target,dist2,0,0,0,0,,,,,0,19,19,26,,,,,,,,,,,513.9613223999913,None,,,,,,,,,,,,,,,,,,,,,513.0777872999897,None,513.0777872999897,None,513.0777872999897,None,513.0777872999897,None,left,513.0777872999897,None,513.0777872999897,None,None,None,None,None,None,None,None,None,None,None,None,0.8651407000143081,,,,,,,,,,,ST01_112522,2022-11-25_12h23.23.259,Hippopolis_Learning,2021.1.4,60.18538301655544,
Camponello,stimuli/subj_files/ST01_112522_cityB.csv,./stimuli/hallstatt.jpg,./stimuli/street_plate2.png,FÜGE UTCA,stimuli/objects/110a.jpg,object,0,stimuli/objects/110a.jpg,stimuli/objects/110b.jpg,stimuli/scenes/036a.jpg,stimuli/scenes/036b.jpg,stimuli/objects/110a.jpg,lure,dist1,dist2,target,0,0,0,0,,,,,0,20,20,43,,,,,,,,,,,517.5313944999943,None,,,,,,,,,,,,,,,,,,,,,514.9811847999808,None,514.9811847999808,None,514.9811847999808,None,514.9811847999808,None,right,514.9811847999808,None,514.9811847999808,None,None,None,None,None,None,None,None,None,None,None,None,2.511931100016227,,,,,,,,,,,ST01_112522,2022-11-25_12h23.23.259,Hippopolis_Learning,2021.1.4,60.18538301655544,
Camponello,stimuli/subj_files/ST01_112522_cityB.csv,./stimuli/hallstatt.jpg,./stimuli/street_plate2.png,PETÁRDA UTCA,stimuli/objects/006a.jpg,object,1,stimuli/objects/100a.jpg,stimuli/objects/100a.jpg,stimuli/objects/100b.jpg,stimuli/scenes/082a.jpg,stimuli/scenes/082b.jpg,target,lure,dist1,dist2,0,0,0,0,,,,,0,21,21,3,,,,,,,,,,,520.0781371999765,None,,,,,,,,,,,,,,,,,,,,,518.5445976999763,None,518.5445976999763,None,518.5445976999763,None,518.5445976999763,None,right,518.5445976999763,None,518.5445976999763,None,None,None,None,None,None,None,None,None,None,None,None,1.4987785999837797,,,,,,,,,,,ST01_112522,2022-11-25_12h23.23.259,Hippopolis_Learning,2021.1.4,60.18538301655544,
Camponello,stimuli/subj_files/ST01_112522_cityB.csv,./stimuli/hallstatt.jpg,./stimuli/street_plate2.png,LÁNDZSA UTCA,stimuli/scenes/036a.jpg,scene,0,stimuli/scenes/036a.jpg,stimuli/scenes/036b.jpg,stimuli/scenes/093b.jpg,stimuli/scenes/093a.jpg,stimuli/scenes/036a.jpg,lure,dist2,dist1,target,0,0,0,0,,,,,0,22,22,19,,,,,,,,,,,522.3288054000004,None,,,,,,,,,,,,,,,,,,,,,521.0940658999898,None,521.0940658999898,None,521.0940658999898,None,521.0940658999898,None,left,521.0940658999898,None,521.0940658999898,None,None,None,None,None,None,None,None,None,None,None,None,1.2103110999742057,,,,,,,,,,,ST01_112522,2022-11-25_12h23.23.259,Hippopolis_Learning,2021.1.4,60.18538301655544,
Camponello,stimuli/subj_files/ST01_112522_cityB.csv,./stimuli/hallstatt.jpg,./stimuli/street_plate2.png,HARMONIKA UTCA,stimuli/objects/068a.jpg,object,0,stimuli/objects/068a.jpg,stimuli/objects/068b.jpg,stimuli/scenes/012b.jpg,stimuli/objects/068a.jpg,stimuli/scenes/012a.jpg,lure,dist2,target,dist1,0,0,0,0,,,,,0,23,23,38,,,,,,,,,,,527.3099931000033,None,,,,,,,,,,,,,,,,,,,,,523.344427199976,None,523.344427199976,None,523.344427199976,None,523.344427199976,None,left,523.344427199976,None,523.344427199976,None,None,None,None,None,None,None,None,None,None,None,None,3.9448252000147477,,,,,,,,,,,ST01_112522,2022-11-25_12h23.23.259,Hippopolis_Learning,2021.1.4,60.18538301655544,
Camponello,stimuli/subj_files/ST01_112522_cityB.csv,./stimuli/hallstatt.jpg,./stimuli/street_plate2.png,SZILVA UTCA,stimuli/scenes/090a.jpg,scene,0,stimuli/scenes/090a.jpg,stimuli/scenes/065a.jpg,stimuli/scenes/065b.jpg,stimuli/scenes/090a.jpg,stimuli/scenes/090b.jpg,dist1,dist2,target,lure,0,0,0,0,,,,,0,24,24,16,,,,,,,,,,,529.2273614000005,None,,,,,,,,,,,,,,,,,,,,,528.3102440999937,None,528.3102440999937,None,528.3102440999937,None,528.3102440999937,None,left,528.3102440999937,None,528.3102440999937,None,None,None,None,None,None,None,None,None,None,None,None,0.8851716000062879,,,,,,,,,,,ST01_112522,2022-11-25_12h23.23.259,Hippopolis_Learning,2021.1.4,60.18538301655544,
Camponello,stimuli/subj_files/ST01_112522_cityB.csv,./stimuli/hallstatt.jpg,./stimuli/street_plate2.png,TERÍTŐ UTCA,stimuli/objects/070a.jpg,object,0,stimuli/objects/070a.jpg,stimuli/objects/070b.jpg,stimuli/objects/070a.jpg,stimuli/objects/030a.jpg,stimuli/objects/030b.jpg,lure,target,dist1,dist2,0,0,0,0,,,,,0,25,25,64,,,,,,,,,,,531.0467292999965,None,,,,,,,,,,,,,,,,,,,,,530.2266697000014,None,530.2266697000014,None,530.2266697000014,None,530.2266697000014,None,right,530.2266697000014,None,530.2266697000014,None,None,None,None,None,None,None,None,None,None,None,None,0.7832835000008345,,,,,,,,,,,ST01_112522,2022-11-25_12h23.23.259,Hippopolis_Learning,2021.1.4,60.18538301655544,
Camponello,stimuli/subj_files/ST01_112522_cityB.csv,./stimuli/hallstatt.jpg,./stimuli/street_plate2.png,LEMEZ UTCA,stimuli/objects/120a.jpg,object,1,stimuli/objects/007a.jpg,stimuli/scenes/120a.jpg,stimuli/objects/007b.jpg,stimuli/scenes/120b.jpg,stimuli/objects/007a.jpg,dist1,lure,dist2,target,0,0,0,0,,,,,0,26,26,29,,,,,,,,,,,533.1942232000001,None,,,,,,,,,,,,,,,,,,,,,532.0591521000024,None,532.0591521000024,None,532.0591521000024,None,532.0591521000024,None,left,532.0591521000024,None,532.0591521000024,None,None,None,None,None,None,None,None,None,None,None,None,1.1069905000040308,,,,,,,,,,,ST01_112522,2022-11-25_12h23.23.259,Hippopolis_Learning,2021.1.4,60.18538301655544,
Camponello,stimuli/subj_files/ST01_112522_cityB.csv,./stimuli/hallstatt.jpg,./stimuli/street_plate2.png,TOBOZ UTCA,stimuli/objects/057a.jpg,object,0,stimuli/objects/057a.jpg,stimuli/objects/057a.jpg,stimuli/objects/057b.jpg,stimuli/objects/110b.jpg,stimuli/objects/110a.jpg,target,lure,dist2,dist1,0,0,0,0,,,,,0,27,27,22,,,,,,,,,,,538.1934165999992,None,,,,,,,,,,,,,,,,,,,,,534.1933335999784,None,534.1933335999784,None,534.1933335999784,None,534.1933335999784,None,None,534.1933335999784,None,534.1933335999784,None,None,None,None,None,None,None,None,None,None,None,None,,,,,,,,,,,,ST01_112522,2022-11-25_12h23.23.259,Hippopolis_Learning,2021.1.4,60.18538301655544,
Camponello,stimuli/subj_files/ST01_112522_cityB.csv,./stimuli/hallstatt.jpg,./stimuli/street_plate2.png,LIGET UTCA,stimuli/scenes/061a.jpg,scene,0,stimuli/scenes/061a.jpg,stimuli/scenes/061b.jpg,stimuli/objects/025a.jpg,stimuli/objects/025b.jpg,stimuli/scenes/061a.jpg,lure,dist1,dist2,target,0,0,0,0,,,,,0,28,28,25,,,,,,,,,,,542.6613955999783,None,,,,,,,,,,,,,,,,,,,,,539.1932540999842,None,539.1932540999842,None,539.1932540999842,None,539.1932540999842,None,left,539.1932540999842,None,539.1932540999842,None,None,None,None,None,None,None,None,None,None,None,None,3.4437522999942303,,,,,,,,,,,ST01_112522,2022-11-25_12h23.23.259,Hippopolis_Learning,2021.1.4,60.18538301655544,
Camponello,stimuli/subj_files/ST01_112522_cityB.csv,./stimuli/hallstatt.jpg,./stimuli/street_plate2.png,MOGYORÓ UTCA,stimuli/scenes/092a.jpg,scene,2,stimuli/objects/014a.jpg,stimuli/scenes/041b.jpg,stimuli/objects/014a.jpg,stimuli/scenes/041a.jpg,stimuli/objects/014b.jpg,dist2,target,dist1,lure,0,0,0,0,,,,,0,29,29,32,,,,,,,,,,,545.1951399999962,None,,,,,,,,,,,,,,,,,,,,,543.6792549999955,None,543.6792549999955,None,543.6792549999955,None,543.6792549999955,None,left,543.6792549999955,None,543.6792549999955,None,None,None,None,None,None,None,None,None,None,None,None,1.4947720000054687,,,,,,,,,,,ST01_112522,2022-11-25_12h23.23.259,Hippopolis_Learning,2021.1.4,60.18538301655544,
Camponello,stimuli/subj_files/ST01_112522_cityB.csv,./stimuli/hallstatt.jpg,./stimuli/street_plate2.png,KÁRTYA UTCA,stimuli/objects/038a.jpg,object,0,stimuli/objects/038a.jpg,stimuli/objects/038b.jpg,stimuli/scenes/035b.jpg,stimuli/scenes/035a.jpg,stimuli/objects/038a.jpg,lure,dist2,dist1,target,0,0,0,0,,,,,0,30,30,69,,,,,,,,,,,548.5086072999984,None,,,,,,,,,,,,,,,,,,,,,546.2092581999896,None,546.2092581999896,None,546.2092581999896,None,546.2092581999896,None,left,546.2092581999896,None,546.2092581999896,None,None,None,None,None,None,None,None,None,None,None,None,2.2815913999802433,,,,,,,,,,,ST01_112522,2022-11-25_12h23.23.259,Hippopolis_Learning,2021.1.4,60.18538301655544,
Camponello,stimuli/subj_files/ST01_112522_cityB.csv,./stimuli/hallstatt.jpg,./stimuli/street_plate2.png,KÓKUSZ UTCA,stimuli/objects/076a.jpg,object,0,stimuli/objects/076a.jpg,stimuli/objects/090a.jpg,stimuli/objects/076a.jpg,stimuli/objects/076b.jpg,stimuli/objects/090b.jpg,dist1,target,lure,dist2,0,0,0,0,,,,,0,31,31,10,,,,,,,,,,,552.6618122999789,None,,,,,,,,,,,,,,,,,,,,,549.5124031000014,None,549.5124031000014,None,549.5124031000014,None,549.5124031000014,None,left,549.5124031000014,None,549.5124031000014,None,None,None,None,None,None,None,None,None,None,None,None,3.121606000000611,,,,,,,,,,,ST01_112522,2022-11-25_12h23.23.259,Hippopolis_Learning,2021.1.4,60.18538301655544,
Camponello,stimuli/subj_files/ST01_112522_cityB.csv,./stimuli/hallstatt.jpg,./stimuli/street_plate2.png,ÁRNYÉK UTCA,stimuli/objects/033a.jpg,object,0,stimuli/objects/033a.jpg,stimuli/objects/070a.jpg,stimuli/objects/070b.jpg,stimuli/objects/033a.jpg,stimuli/objects/033b.jpg,dist1,dist2,target,lure,0,0,0,0,,,,,0,32,32,2,,,,,,,,,,,557.3605962999864,None,,,,,,,,,,,,,,,,,,,,,553.6767760999792,None,553.6767760999792,None,553.6767760999792,None,553.6767760999792,None,left,553.6767760999792,None,553.6767760999792,None,None,None,None,None,None,None,None,None,None,None,None,3.6620901999995112,,,,,,,,,,,ST01_112522,2022-11-25_12h23.23.259,Hippopolis_Learning,2021.1.4,60.18538301655544,
Camponello,stimuli/subj_files/ST01_112522_cityB.csv,./stimuli/hallstatt.jpg,./stimuli/street_plate2.png,NARANCS UTCA,stimuli/scenes/044a.jpg,scene,2,stimuli/objects/016a.jpg,stimuli/scenes/017b.jpg,stimuli/objects/016b.jpg,stimuli/objects/016a.jpg,stimuli/scenes/017a.jpg,dist2,lure,target,dist1,0,0,0,0,,,,,0,33,33,7,,,,,,,,,,,559.2106433000008,None,,,,,,,,,,,,,,,,,,,,,558.3759005999891,None,558.3759005999891,None,558.3759005999891,None,558.3759005999891,None,left,558.3759005999891,None,558.3759005999891,None,None,None,None,None,None,None,None,None,None,None,None,0.8048022000002675,,,,,,,,,,,ST01_112522,2022-11-25_12h23.23.259,Hippopolis_Learning,2021.1.4,60.18538301655544,
Camponello,stimuli/subj_files/ST01_112522_cityB.csv,./stimuli/hallstatt.jpg,./stimuli/street_plate2.png,AJÁNDÉK UTCA,stimuli/scenes/118a.jpg,scene,0,stimuli/scenes/118a.jpg,stimuli/scenes/118a.jpg,stimuli/scenes/118b.jpg,stimuli/objects/038a.jpg,stimuli/objects/038b.jpg,target,lure,dist1,dist2,0,0,0,0,,,,,0,34,34,60,,,,,,,,,,,564.2256280999864,None,,,,,,,,,,,,,,,,,,,,,560.2259330999805,None,560.2259330999805,None,560.2259330999805,None,560.2259330999805,None,None,560.2259330999805,None,560.2259330999805,None,None,None,None,None,None,None,None,None,None,None,None,,,,,,,,,,,,ST01_112522,2022-11-25_12h23.23.259,Hippopolis_Learning,2021.1.4,60.18538301655544,
Camponello,stimuli/subj_files/ST01_112522_cityB.csv,./stimuli/hallstatt.jpg,./stimuli/street_plate2.png,KÖNYVTÁR UTCA,stimuli/scenes/008a.jpg,scene,0,stimuli/scenes/008a.jpg,stimuli/scenes/106b.jpg,stimuli/scenes/106a.jpg,stimuli/scenes/008a.jpg,stimuli/scenes/008b.jpg,dist2,dist1,target,lure,0,0,0,0,,,,,0,35,35,51,,,,,,,,,,,568.0595440999896,None,,,,,,,,,,,,,,,,,,,,,565.2260754999879,None,565.2260754999879,None,565.2260754999879,None,565.2260754999879,None,left,565.2260754999879,None,565.2260754999879,None,None,None,None,None,None,None,None,None,None,None,None,2.815181899990421,,,,,,,,,,,ST01_112522,2022-11-25_12h23.23.259,Hippopolis_Learning,2021.1.4,60.18538301655544,
Camponello,stimuli/subj_files/ST01_112522_cityB.csv,./stimuli/hallstatt.jpg,./stimuli/street_plate2.png,SIVATAG UTCA,stimuli/objects/013a.jpg,object,0,stimuli/objects/013a.jpg,stimuli/objects/097b.jpg,stimuli/objects/097a.jpg,stimuli/objects/013a.jpg,stimuli/objects/013b.jpg,dist2,dist1,target,lure,0,0,0,0,,,,,0,36,36,62,,,,,,,,,,,580.5087385999796,None,,,,,,,,,,,,,,,,,,,,,569.060195500002,None,569.060195500002,None,569.060195500002,None,569.060195500002,None,right,569.060195500002,None,569.060195500002,None,569.9956424999982,None,569.9956424999982,None,569.9956424999982,None,569.9956424999982,None,space,569.9956424999982,None,0.9144716000009794,10.493548600003123,,,,,,,,,,ST01_112522,2022-11-25_12h23.23.259,Hippopolis_Learning,2021.1.4,60.18538301655544,
Camponello,stimuli/subj_files/ST01_112522_cityB.csv,./stimuli/hallstatt.jpg,./stimuli/street_plate2.png,MÁRVÁNY UTCA,stimuli/scenes/081a.jpg,scene,0,stimuli/scenes/081a.jpg,stimuli/scenes/051a.jpg,stimuli/scenes/051b.jpg,stimuli/scenes/081b.jpg,stimuli/scenes/081a.jpg,dist1,dist2,lure,target,0,0,0,0,,,,,0,37,37,48,,,,,,,,,,,583.3459509999957,None,,,,,,,,,,,,,,,,,,,,,581.5210190999787,None,581.5210190999787,None,581.5210190999787,None,581.5210190999787,None,left,581.5210190999787,None,581.5210190999787,None,None,None,None,None,None,None,None,None,None,None,None,1.7931462000124156,,,,,,,,,,,ST01_112522,2022-11-25_12h23.23.259,Hippopolis_Learning,2021.1.4,60.18538301655544,
Camponello,stimuli/subj_files/ST01_112522_cityB.csv,./stimuli/hallstatt.jpg,./stimuli/street_plate2.png,ZÁSZLÓ UTCA,stimuli/objects/050a.jpg,object,1,stimuli/objects/067a.jpg,stimuli/objects/065b.jpg,stimuli/objects/065a.jpg,stimuli/objects/067a.jpg,stimuli/objects/067b.jpg,dist2,dist1,target,lure,0,0,0,0,,,,,0,38,38,71,,,,,,,,,,,586.4943561999826,None,,,,,,,,,,,,,,,,,,,,,584.3623856999911,None,584.3623856999911,None,584.3623856999911,None,584.3623856999911,None,right,584.3623856999911,None,584.3623856999911,None,None,None,None,None,None,None,None,None,None,None,None,2.0997973999765236,,,,,,,,,,,ST01_112522,2022-11-25_12h23.23.259,Hippopolis_Learning,2021.1.4,60.18538301655544,
Camponello,stimuli/subj_files/ST01_112522_cityB.csv,./stimuli/hallstatt.jpg,./stimuli/street_plate2.png,AKÁC UTCA,stimuli/objects/062a.jpg,object,0,stimuli/objects/062a.jpg,stimuli/scenes/053a.jpg,stimuli/scenes/053b.jpg,stimuli/objects/062a.jpg,stimuli/objects/062b.jpg,dist1,dist2,target,lure,0,0,0,0,,,,,0,39,39,41,,,,,,,,,,,590.1103042000032,None,,,,,,,,,,,,,,,,,,,,,587.5093977999932,None,587.5093977999932,None,587.5093977999932,None,587.5093977999932,None,left,587.5093977999932,None,587.5093977999932,None,None,None,None,None,None,None,None,None,None,None,None,2.5712061999947764,,,,,,,,,,,ST01_112522,2022-11-25_12h23.23.259,Hippopolis_Learning,2021.1.4,60.18538301655544,
Camponello,stimuli/subj_files/ST01_112522_cityB.csv,./stimuli/hallstatt.jpg,./stimuli/street_plate2.png,MOCSÁR UTCA,stimuli/scenes/104a.jpg,scene,0,stimuli/scenes/104a.jpg,stimuli/objects/076a.jpg,stimuli/objects/076b.jpg,stimuli/scenes/104b.jpg,stimuli/scenes/104a.jpg,dist1,dist2,lure,target,0,0,0,0,,,,,0,40,40,5,,,,,,,,,,,592.5105667999887,None,,,,,,,,,,,,,,,,,,,,,591.125847999996,None,591.125847999996,None,591.125847999996,None,591.125847999996,None,left,591.125847999996,None,591.125847999996,None,None,None,None,None,None,None,None,None,None,None,None,1.3659120999800507,,,,,,,,,,,ST01_112522,2022-11-25_12h23.23.259,Hippopolis_Learning,2021.1.4,60.18538301655544,
Camponello,stimuli/subj_files/ST01_112522_cityB.csv,./stimuli/hallstatt.jpg,./stimuli/street_plate2.png,FOGAS UTCA,stimuli/scenes/019a.jpg,scene,0,stimuli/scenes/019a.jpg,stimuli/scenes/019b.jpg,stimuli/objects/098a.jpg,stimuli/objects/098b.jpg,stimuli/scenes/019a.jpg,lure,dist1,dist2,target,0,0,0,0,,,,,0,41,41,23,,,,,,,,,,,597.5244182999886,None,,,,,,,,,,,,,,,,,,,,,593.5248306999856,None,593.5248306999856,None,593.5248306999856,None,593.5248306999856,None,None,593.5248306999856,None,593.5248306999856,None,None,None,None,None,None,None,None,None,None,None,None,,,,,,,,,,,,ST01_112522,2022-11-25_12h23.23.259,Hippopolis_Learning,2021.1.4,60.18538301655544,
Camponello,stimuli/subj_files/ST01_112522_cityB.csv,./stimuli/hallstatt.jpg,./stimuli/street_plate2.png,KOCKA UTCA,stimuli/scenes/010a.jpg,scene,0,stimuli/scenes/010a.jpg,stimuli/scenes/075b.jpg,stimuli/scenes/075a.jpg,stimuli/scenes/010b.jpg,stimuli/scenes/010a.jpg,dist2,dist1,lure,target,0,0,0,0,,,,,0,42,42,74,,,,,,,,,,,599.809487999999,None,,,,,,,,,,,,,,,,,,,,,598.5251951999962,None,598.5251951999962,None,598.5251951999962,None,598.5251951999962,None,right,598.5251951999962,None,598.5251951999962,None,None,None,None,None,None,None,None,None,None,None,None,1.2553851999982726,,,,,,,,,,,ST01_112522,2022-11-25_12h23.23.259,Hippopolis_Learning,2021.1.4,60.18538301655544,
Camponello,stimuli/subj_files/ST01_112522_cityB.csv,./stimuli/hallstatt.jpg,./stimuli/street_plate2.png,POGÁCSA UTCA,stimuli/objects/018a.jpg,object,2,stimuli/scenes/041a.jpg,stimuli/scenes/079b.jpg,stimuli/scenes/041b.jpg,stimuli/scenes/079a.jpg,stimuli/scenes/041a.jpg,dist2,lure,dist1,target,0,0,0,0,,,,,0,43,43,56,,,,,,,,,,,604.8261375000002,None,,,,,,,,,,,,,,,,,,,,,600.8104566999828,None,600.8104566999828,None,600.8104566999828,None,600.8104566999828,None,None,600.8104566999828,None,600.8104566999828,None,None,None,None,None,None,None,None,None,None,None,None,,,,,,,,,,,,ST01_112522,2022-11-25_12h23.23.259,Hippopolis_Learning,2021.1.4,60.18538301655544,
Camponello,stimuli/subj_files/ST01_112522_cityB.csv,./stimuli/hallstatt.jpg,./stimuli/street_plate2.png,LÉTRA UTCA,stimuli/scenes/053a.jpg,scene,0,stimuli/scenes/053a.jpg,stimuli/scenes/053b.jpg,stimuli/objects/068a.jpg,stimuli/scenes/053a.jpg,stimuli/objects/068b.jpg,lure,dist1,target,dist2,0,0,0,0,,,,,0,44,44,28,,,,,,,,,,,607.3578602999914,None,,,,,,,,,,,,,,,,,,,,,605.8281656999898,None,605.8281656999898,None,605.8281656999898,None,605.8281656999898,None,left,605.8281656999898,None,605.8281656999898,None,None,None,None,None,None,None,None,None,None,None,None,1.49921350000659,,,,,,,,,,,ST01_112522,2022-11-25_12h23.23.259,Hippopolis_Learning,2021.1.4,60.18538301655544,
Camponello,stimuli/subj_files/ST01_112522_cityB.csv,./stimuli/hallstatt.jpg,./stimuli/street_plate2.png,MOTOR UTCA,stimuli/scenes/083a.jpg,scene,0,stimuli/scenes/083a.jpg,stimuli/objects/084b.jpg,stimuli/objects/084a.jpg,stimuli/scenes/083a.jpg,stimuli/scenes/083b.jpg,dist2,dist1,target,lure,0,0,0,0,,,,,0,45,45,58,,,,,,,,,,,609.9912011999986,None,,,,,,,,,,,,,,,,,,,,,608.3602550999785,None,608.3602550999785,None,608.3602550999785,None,608.3602550999785,None,right,608.3602550999785,None,608.3602550999785,None,None,None,None,None,None,None,None,None,None,None,None,1.599849499994889,,,,,,,,,,,ST01_112522,2022-11-25_12h23.23.259,Hippopolis_Learning,2021.1.4,60.18538301655544,
Camponello,stimuli/subj_files/ST01_112522_cityB.csv,./stimuli/hallstatt.jpg,./stimuli/street_plate2.png,MOSODA UTCA,stimuli/scenes/065a.jpg,scene,0,stimuli/scenes/065a.jpg,stimuli/scenes/065a.jpg,stimuli/objects/057b.jpg,stimuli/scenes/065b.jpg,stimuli/objects/057a.jpg,target,dist2,lure,dist1,0,0,0,0,,,,,0,46,46,1,,,,,,,,,,,614.1749849999906,None,,,,,,,,,,,,,,,,,,,,,610.9915796999994,None,610.9915796999994,None,610.9915796999994,None,610.9915796999994,None,left,610.9915796999994,None,610.9915796999994,None,None,None,None,None,None,None,None,None,None,None,None,3.1618493999994826,,,,,,,,,,,ST01_112522,2022-11-25_12h23.23.259,Hippopolis_Learning,2021.1.4,60.18538301655544,
Camponello,stimuli/subj_files/ST01_112522_cityB.csv,./stimuli/hallstatt.jpg,./stimuli/street_plate2.png,TÁSKA UTCA,stimuli/scenes/012a.jpg,scene,0,stimuli/scenes/012a.jpg,stimuli/scenes/012b.jpg,stimuli/scenes/012a.jpg,stimuli/objects/033b.jpg,stimuli/objects/033a.jpg,lure,target,dist2,dist1,0,0,0,0,,,,,0,47,47,61,,,,,,,,,,,616.5430043999804,None,,,,,,,,,,,,,,,,,,,,,615.17660169999,None,615.17660169999,None,615.17660169999,None,615.17660169999,None,left,615.17660169999,None,615.17660169999,None,None,None,None,None,None,None,None,None,None,None,None,1.3397760999796446,,,,,,,,,,,ST01_112522,2022-11-25_12h23.23.259,Hippopolis_Learning,2021.1.4,60.18538301655544,
Camponello,stimuli/subj_files/ST01_112522_cityB.csv,./stimuli/hallstatt.jpg,./stimuli/street_plate2.png,BETON UTCA,stimuli/scenes/095a.jpg,scene,1,stimuli/scenes/080a.jpg,stimuli/scenes/080b.jpg,stimuli/scenes/080a.jpg,stimuli/objects/091a.jpg,stimuli/objects/091b.jpg,lure,target,dist1,dist2,0,0,0,0,,,,,0,48,48,14,,,,,,,,,,,627.0573826999753,None,,,,,,,,,,,,,,,,,,,,,617.5579778999963,None,617.5579778999963,None,617.5579778999963,None,617.5579778999963,None,right,617.5579778999963,None,617.5579778999963,None,618.8443110999942,None,618.8443110999942,None,618.8443110999942,None,618.8443110999942,None,space,618.8443110999942,None,1.2535248000058345,8.195791000005556,,,,,,,,,,ST01_112522,2022-11-25_12h23.23.259,Hippopolis_Learning,2021.1.4,60.18538301655544,
Camponello,stimuli/subj_files/ST01_112522_cityB.csv,./stimuli/hallstatt.jpg,./stimuli/street_plate2.png,MENTA UTCA,stimuli/objects/104a.jpg,object,1,stimuli/objects/092a.jpg,stimuli/objects/092a.jpg,stimuli/scenes/080b.jpg,stimuli/objects/092b.jpg,stimuli/scenes/080a.jpg,target,dist2,lure,dist1,0,0,0,0,,,,,0,49,49,70,,,,,,,,,,,631.0253186999762,None,,,,,,,,,,,,,,,,,,,,,628.0686425000022,None,628.0686425000022,None,628.0686425000022,None,628.0686425000022,None,left,628.0686425000022,None,628.0686425000022,None,None,None,None,None,None,None,None,None,None,None,None,2.9276773000019602,,,,,,,,,,,ST01_112522,2022-11-25_12h23.23.259,Hippopolis_Learning,2021.1.4,60.18538301655544,
Camponello,stimuli/subj_files/ST01_112522_cityB.csv,./stimuli/hallstatt.jpg,./stimuli/street_plate2.png,TÜKÖR UTCA,stimuli/scenes/093a.jpg,scene,0,stimuli/scenes/093a.jpg,stimuli/scenes/093b.jpg,stimuli/scenes/093a.jpg,stimuli/scenes/104b.jpg,stimuli/scenes/104a.jpg,lure,target,dist2,dist1,0,0,0,0,,,,,0,50,50,27,,,,,,,,,,,635.7269187999773,None,,,,,,,,,,,,,,,,,,,,,632.0249702000001,None,632.0249702000001,None,632.0249702000001,None,632.0249702000001,None,left,632.0249702000001,None,632.0249702000001,None,None,None,None,None,None,None,None,None,None,None,None,3.6747677999956068,,,,,,,,,,,ST01_112522,2022-11-25_12h23.23.259,Hippopolis_Learning,2021.1.4,60.18538301655544,
Camponello,stimuli/subj_files/ST01_112522_cityB.csv,./stimuli/hallstatt.jpg,./stimuli/street_plate2.png,SZALVÉTA UTCA,stimuli/objects/011a.jpg,object,0,stimuli/objects/011a.jpg,stimuli/objects/013b.jpg,stimuli/objects/011a.jpg,stimuli/objects/011b.jpg,stimuli/objects/013a.jpg,dist2,target,lure,dist1,0,0,0,0,,,,,0,51,51,46,,,,,,,,,,,640.7404342999798,None,,,,,,,,,,,,,,,,,,,,,636.7412012999994,None,636.7412012999994,None,636.7412012999994,None,636.7412012999994,None,None,636.7412012999994,None,636.7412012999994,None,None,None,None,None,None,None,None,None,None,None,None,,,,,,,,,,,,ST01_112522,2022-11-25_12h23.23.259,Hippopolis_Learning,2021.1.4,60.18538301655544,
Camponello,stimuli/subj_files/ST01_112522_cityB.csv,./stimuli/hallstatt.jpg,./stimuli/street_plate2.png,RIBIZLI UTCA,stimuli/scenes/106a.jpg,scene,0,stimuli/scenes/106a.jpg,stimuli/scenes/013b.jpg,stimuli/scenes/106a.jpg,stimuli/scenes/106b.jpg,stimuli/scenes/013a.jpg,dist2,target,lure,dist1,0,0,0,0,,,,,0,52,52,8,,,,,,,,,,,643.1945414999791,None,,,,,,,,,,,,,,,,,,,,,641.7419219999865,None,641.7419219999865,None,641.7419219999865,None,641.7419219999865,None,right,641.7419219999865,None,641.7419219999865,None,None,None,None,None,None,None,None,None,None,None,None,1.420830399991246,,,,,,,,,,,ST01_112522,2022-11-25_12h23.23.259,Hippopolis_Learning,2021.1.4,60.18538301655544,
Camponello,stimuli/subj_files/ST01_112522_cityB.csv,./stimuli/hallstatt.jpg,./stimuli/street_plate2.png,CSAVAR UTCA,stimuli/scenes/051a.jpg,scene,0,stimuli/scenes/051a.jpg,stimuli/scenes/051b.jpg,stimuli/scenes/051a.jpg,stimuli/scenes/008b.jpg,stimuli/scenes/008a.jpg,lure,target,dist2,dist1,0,0,0,0,,,,,0,53,53,18,,,,,,,,,,,648.2070704999787,None,,,,,,,,,,,,,,,,,,,,,644.207880300004,None,644.207880300004,None,644.207880300004,None,644.207880300004,None,None,644.207880300004,None,644.207880300004,None,None,None,None,None,None,None,None,None,None,None,None,,,,,,,,,,,,ST01_112522,2022-11-25_12h23.23.259,Hippopolis_Learning,2021.1.4,60.18538301655544,
Camponello,stimuli/subj_files/ST01_112522_cityB.csv,./stimuli/hallstatt.jpg,./stimuli/street_plate2.png,TALICSKA UTCA,stimuli/objects/097a.jpg,object,0,stimuli/objects/097a.jpg,stimuli/objects/097a.jpg,stimuli/objects/097b.jpg,stimuli/scenes/083b.jpg,stimuli/scenes/083a.jpg,target,lure,dist2,dist1,0,0,0,0,,,,,0,54,54,15,,,,,,,,,,,652.208396699978,None,,,,,,,,,,,,,,,,,,,,,649.2074355999939,None,649.2074355999939,None,649.2074355999939,None,649.2074355999939,None,left,649.2074355999939,None,649.2074355999939,None,None,None,None,None,None,None,None,None,None,None,None,2.9685241999977734,,,,,,,,,,,ST01_112522,2022-11-25_12h23.23.259,Hippopolis_Learning,2021.1.4,60.18538301655544,
Camponello,stimuli/subj_files/ST01_112522_cityB.csv,./stimuli/hallstatt.jpg,./stimuli/street_plate2.png,CITROM UTCA,stimuli/scenes/052a.jpg,scene,1,stimuli/scenes/082a.jpg,stimuli/scenes/045b.jpg,stimuli/scenes/082b.jpg,stimuli/scenes/082a.jpg,stimuli/scenes/045a.jpg,dist2,lure,target,dist1,0,0,0,0,,,,,0,55,55,55,,,,,,,,,,,657.0248322999978,None,,,,,,,,,,,,,,,,,,,,,653.2085316999874,None,653.2085316999874,None,653.2085316999874,None,653.2085316999874,None,left,653.2085316999874,None,653.2085316999874,None,None,None,None,None,None,None,None,None,None,None,None,3.783072300022468,,,,,,,,,,,ST01_112522,2022-11-25_12h23.23.259,Hippopolis_Learning,2021.1.4,60.18538301655544,
Camponello,stimuli/subj_files/ST01_112522_cityB.csv,./stimuli/hallstatt.jpg,./stimuli/street_plate2.png,FÓKA UTCA,stimuli/objects/106a.jpg,object,0,stimuli/objects/106a.jpg,stimuli/objects/106a.jpg,stimuli/objects/051b.jpg,stimuli/objects/051a.jpg,stimuli/objects/106b.jpg,target,dist2,dist1,lure,0,0,0,0,,,,,0,56,56,50,,,,,,,,,,,659.8250849999895,None,,,,,,,,,,,,,,,,,,,,,658.0269961000013,None,658.0269961000013,None,658.0269961000013,None,658.0269961000013,None,right,658.0269961000013,None,658.0269961000013,None,None,None,None,None,None,None,None,None,None,None,None,1.7729870000039227,,,,,,,,,,,ST01_112522,2022-11-25_12h23.23.259,Hippopolis_Learning,2021.1.4,60.18538301655544,
Camponello,stimuli/subj_files/ST01_112522_cityB.csv,./stimuli/hallstatt.jpg,./stimuli/street_plate2.png,SZŐLŐ UTCA,stimuli/objects/098a.jpg,object,0,stimuli/objects/098a.jpg,stimuli/scenes/038b.jpg,stimuli/scenes/038a.jpg,stimuli/objects/098b.jpg,stimuli/objects/098a.jpg,dist2,dist1,lure,target,0,0,0,0,,,,,0,57,57,57,,,,,,,,,,,663.0922091999964,None,,,,,,,,,,,,,,,,,,,,,660.8263100999757,None,660.8263100999757,None,660.8263100999757,None,660.8263100999757,None,left,660.8263100999757,None,660.8263100999757,None,None,None,None,None,None,None,None,None,None,None,None,2.2445989999978337,,,,,,,,,,,ST01_112522,2022-11-25_12h23.23.259,Hippopolis_Learning,2021.1.4,60.18538301655544,
Camponello,stimuli/subj_files/ST01_112522_cityB.csv,./stimuli/hallstatt.jpg,./stimuli/street_plate2.png,PÁFRÁNY UTCA,stimuli/scenes/035a.jpg,scene,0,stimuli/scenes/035a.jpg,stimuli/objects/075a.jpg,stimuli/scenes/035a.jpg,stimuli/objects/075b.jpg,stimuli/scenes/035b.jpg,dist1,target,dist2,lure,0,0,0,0,,,,,0,58,58,12,,,,,,,,,,,667.959475599986,None,,,,,,,,,,,,,,,,,,,,,664.1071070999897,None,664.1071070999897,None,664.1071070999897,None,664.1071070999897,None,left,664.1071070999897,None,664.1071070999897,None,None,None,None,None,None,None,None,None,None,None,None,3.8193488999968395,,,,,,,,,,,ST01_112522,2022-11-25_12h23.23.259,Hippopolis_Learning,2021.1.4,60.18538301655544,
Camponello,stimuli/subj_files/ST01_112522_cityB.csv,./stimuli/hallstatt.jpg,./stimuli/street_plate2.png,KAKAS UTCA,stimuli/scenes/025a.jpg,scene,0,stimuli/scenes/025a.jpg,stimuli/scenes/025a.jpg,stimuli/objects/103b.jpg,stimuli/scenes/025b.jpg,stimuli/objects/103a.jpg,target,dist2,lure,dist1,0,0,0,0,,,,,0,59,59,24,,,,,,,,,,,670.1405686999788,None,,,,,,,,,,,,,,,,,,,,,668.9736912999942,None,668.9736912999942,None,668.9736912999942,None,668.9736912999942,None,left,668.9736912999942,None,668.9736912999942,None,None,None,None,None,None,None,None,None,None,None,None,1.1457641999877524,,,,,,,,,,,ST01_112522,2022-11-25_12h23.23.259,Hippopolis_Learning,2021.1.4,60.18538301655544,
Camponello,stimuli/subj_files/ST01_112522_cityB.csv,./stimuli/hallstatt.jpg,./stimuli/street_plate2.png,LEGELŐ UTCA,stimuli/objects/034a.jpg,object,1,stimuli/objects/065a.jpg,stimuli/objects/067b.jpg,stimuli/objects/065a.jpg,stimuli/objects/067a.jpg,stimuli/objects/065b.jpg,dist2,target,dist1,lure,0,0,0,0,,,,,0,60,60,21,,,,,,,,,,,673.0422677999886,None,,,,,,,,,,,,,,,,,,,,,671.1428109999979,None,671.1428109999979,None,671.1428109999979,None,671.1428109999979,None,left,671.1428109999979,None,671.1428109999979,None,None,None,None,None,None,None,None,None,None,None,None,1.8748687999905087,,,,,,,,,,,ST01_112522,2022-11-25_12h23.23.259,Hippopolis_Learning,2021.1.4,60.18538301655544,
Camponello,stimuli/subj_files/ST01_112522_cityB.csv,./stimuli/hallstatt.jpg,./stimuli/street_plate2.png,HAJÓ UTCA,stimuli/scenes/049a.jpg,scene,0,stimuli/scenes/049a.jpg,stimuli/scenes/099a.jpg,stimuli/scenes/049a.jpg,stimuli/scenes/049b.jpg,stimuli/scenes/099b.jpg,dist1,target,lure,dist2,0,0,0,0,,,,,0,61,61,63,,,,,,,,,,,677.5407311999879,None,,,,,,,,,,,,,,,,,,,,,674.057049199997,None,674.057049199997,None,674.057049199997,None,674.057049199997,None,left,674.057049199997,None,674.057049199997,None,None,None,None,None,None,None,None,None,None,None,None,3.450929400016321,,,,,,,,,,,ST01_112522,2022-11-25_12h23.23.259,Hippopolis_Learning,2021.1.4,60.18538301655544,
Camponello,stimuli/subj_files/ST01_112522_cityB.csv,./stimuli/hallstatt.jpg,./stimuli/street_plate2.png,BOLYGÓ UTCA,stimuli/scenes/039a.jpg,scene,0,stimuli/scenes/039a.jpg,stimuli/scenes/025b.jpg,stimuli/scenes/039b.jpg,stimuli/scenes/039a.jpg,stimuli/scenes/025a.jpg,dist2,lure,target,dist1,0,0,0,0,,,,,0,62,62,79,,,,,,,,,,,679.8105629999773,None,,,,,,,,,,,,,,,,,,,,,678.5422964000027,None,678.5422964000027,None,678.5422964000027,None,678.5422964000027,None,right,678.5422964000027,None,678.5422964000027,None,None,None,None,None,None,None,None,None,None,None,None,1.2413417000207119,,,,,,,,,,,ST01_112522,2022-11-25_12h23.23.259,Hippopolis_Learning,2021.1.4,60.18538301655544,
Camponello,stimuli/subj_files/ST01_112522_cityB.csv,./stimuli/hallstatt.jpg,./stimuli/street_plate2.png,PÉKSÉG UTCA,stimuli/scenes/105a.jpg,scene,1,stimuli/scenes/089a.jpg,stimuli/scenes/089b.jpg,stimuli/scenes/074b.jpg,stimuli/scenes/074a.jpg,stimuli/scenes/089a.jpg,lure,dist2,dist1,target,0,0,0,0,,,,,0,63,63,77,,,,,,,,,,,682.0769068999798,None,,,,,,,,,,,,,,,,,,,,,680.8269299999811,None,680.8269299999811,None,680.8269299999811,None,680.8269299999811,None,right,680.8269299999811,None,680.8269299999811,None,None,None,None,None,None,None,None,None,None,None,None,1.2264213000016753,,,,,,,,,,,ST01_112522,2022-11-25_12h23.23.259,Hippopolis_Learning,2021.1.4,60.18538301655544,
Camponello,stimuli/subj_files/ST01_112522_cityB.csv,./stimuli/hallstatt.jpg,./stimuli/street_plate2.png,LOVAGLÁS UTCA,stimuli/objects/087a.jpg,object,0,stimuli/objects/087a.jpg,stimuli/scenes/110a.jpg,stimuli/scenes/110b.jpg,stimuli/objects/087b.jpg,stimuli/objects/087a.jpg,dist1,dist2,lure,target,0,0,0,0,,,,,0,64,64,39,,,,,,,,,,,684.3752073999785,None,,,,,,,,,,,,,,,,,,,,,683.0905553999764,None,683.0905553999764,None,683.0905553999764,None,683.0905553999764,None,right,683.0905553999764,None,683.0905553999764,None,None,None,None,None,None,None,None,None,None,None,None,1.2505669000092894,,,,,,,,,,,ST01_112522,2022-11-25_12h23.23.259,Hippopolis_Learning,2021.1.4,60.18538301655544,
Camponello,stimuli/subj_files/ST01_112522_cityB.csv,./stimuli/hallstatt.jpg,./stimuli/street_plate2.png,TERASZ UTCA,stimuli/objects/072a.jpg,object,0,stimuli/objects/072a.jpg,stimuli/objects/072a.jpg,stimuli/scenes/118a.jpg,stimuli/objects/072b.jpg,stimuli/scenes/118b.jpg,target,dist1,lure,dist2,0,0,0,0,,,,,0,65,65,65,,,,,,,,,,,686.5577789999952,None,,,,,,,,,,,,,,,,,,,,,685.3918017999968,None,685.3918017999968,None,685.3918017999968,None,685.3918017999968,None,left,685.3918017999968,None,685.3918017999968,None,None,None,None,None,None,None,None,None,None,None,None,1.1376033000124153,,,,,,,,,,,ST01_112522,2022-11-25_12h23.23.259,Hippopolis_Learning,2021.1.4,60.18538301655544,
Camponello,stimuli/subj_files/ST01_112522_cityB.csv,./stimuli/hallstatt.jpg,./stimuli/street_plate2.png,GYŰRŰ UTCA,stimuli/objects/025a.jpg,object,0,stimuli/objects/025a.jpg,stimuli/objects/025b.jpg,stimuli/objects/062a.jpg,stimuli/objects/025a.jpg,stimuli/objects/062b.jpg,lure,dist1,target,dist2,0,0,0,0,,,,,0,66,66,34,,,,,,,,,,,689.6236455999897,None,,,,,,,,,,,,,,,,,,,,,687.5564324999868,None,687.5564324999868,None,687.5564324999868,None,687.5564324999868,None,left,687.5564324999868,None,687.5564324999868,None,None,None,None,None,None,None,None,None,None,None,None,2.047391499974765,,,,,,,,,,,ST01_112522,2022-11-25_12h23.23.259,Hippopolis_Learning,2021.1.4,60.18538301655544,
Camponello,stimuli/subj_files/ST01_112522_cityB.csv,./stimuli/hallstatt.jpg,./stimuli/street_plate2.png,FÉNYKÉP UTCA,stimuli/scenes/075a.jpg,scene,0,stimuli/scenes/075a.jpg,stimuli/scenes/075a.jpg,stimuli/scenes/047a.jpg,stimuli/scenes/075b.jpg,stimuli/scenes/047b.jpg,target,dist1,lure,dist2,0,0,0,0,,,,,0,67,67,52,,,,,,,,,,,692.0084135999787,None,,,,,,,,,,,,,,,,,,,,,690.6243784999824,None,690.6243784999824,None,690.6243784999824,None,690.6243784999824,None,right,690.6243784999824,None,690.6243784999824,None,None,None,None,None,None,None,None,None,None,None,None,1.361528699984774,,,,,,,,,,,ST01_112522,2022-11-25_12h23.23.259,Hippopolis_Learning,2021.1.4,60.18538301655544,
Camponello,stimuli/subj_files/ST01_112522_cityB.csv,./stimuli/hallstatt.jpg,./stimuli/street_plate2.png,SIRÁLY UTCA,stimuli/objects/004a.jpg,object,2,stimuli/scenes/030a.jpg,stimuli/scenes/030b.jpg,stimuli/objects/014a.jpg,stimuli/scenes/030a.jpg,stimuli/objects/014b.jpg,lure,dist1,target,dist2,0,0,0,0,,,,,0,68,68,42,,,,,,,,,,,694.2415692999784,None,,,,,,,,,,,,,,,,,,,,,693.0264537000039,None,693.0264537000039,None,693.0264537000039,None,693.0264537000039,None,left,693.0264537000039,None,693.0264537000039,None,None,None,None,None,None,None,None,None,None,None,None,1.180819800007157,,,,,,,,,,,ST01_112522,2022-11-25_12h23.23.259,Hippopolis_Learning,2021.1.4,60.18538301655544,
Camponello,stimuli/subj_files/ST01_112522_cityB.csv,./stimuli/hallstatt.jpg,./stimuli/street_plate2.png,ASZTAL UTCA,stimuli/scenes/066a.jpg,scene,2,stimuli/objects/078a.jpg,stimuli/objects/078a.jpg,stimuli/scenes/109b.jpg,stimuli/objects/078b.jpg,stimuli/scenes/109a.jpg,target,dist2,lure,dist1,0,0,0,0,,,,,0,69,69,59,,,,,,,,,,,699.2597875999927,None,,,,,,,,,,,,,,,,,,,,,695.2566325999796,None,695.2566325999796,None,695.2566325999796,None,695.2566325999796,None,None,695.2566325999796,None,695.2566325999796,None,None,None,None,None,None,None,None,None,None,None,None,,,,,,,,,,,,ST01_112522,2022-11-25_12h23.23.259,Hippopolis_Learning,2021.1.4,60.18538301655544,
Camponello,stimuli/subj_files/ST01_112522_cityB.csv,./stimuli/hallstatt.jpg,./stimuli/street_plate2.png,EGÉR UTCA,stimuli/objects/115a.jpg,object,0,stimuli/objects/115a.jpg,stimuli/scenes/010a.jpg,stimuli/objects/115a.jpg,stimuli/scenes/010b.jpg,stimuli/objects/115b.jpg,dist1,target,dist2,lure,0,0,0,0,,,,,0,70,70,44,,,,,,,,,,,704.2731042999949,None,,,,,,,,,,,,,,,,,,,,,700.2761687999882,None,700.2761687999882,None,700.2761687999882,None,700.2761687999882,None,None,700.2761687999882,None,700.2761687999882,None,None,None,None,None,None,None,None,None,None,None,None,,,,,,,,,,,,ST01_112522,2022-11-25_12h23.23.259,Hippopolis_Learning,2021.1.4,60.18538301655544,
Camponello,stimuli/subj_files/ST01_112522_cityB.csv,./stimuli/hallstatt.jpg,./stimuli/street_plate2.png,VIHAR UTCA,stimuli/scenes/110a.jpg,scene,0,stimuli/scenes/110a.jpg,stimuli/scenes/110b.jpg,stimuli/scenes/049a.jpg,stimuli/scenes/110a.jpg,stimuli/scenes/049b.jpg,lure,dist1,target,dist2,0,0,0,0,,,,,0,71,71,20,,,,,,,,,,,709.2731565999857,None,,,,,,,,,,,,,,,,,,,,,705.2737337999861,None,705.2737337999861,None,705.2737337999861,None,705.2737337999861,None,None,705.2737337999861,None,705.2737337999861,None,None,None,None,None,None,None,None,None,None,None,None,,,,,,,,,,,,ST01_112522,2022-11-25_12h23.23.259,Hippopolis_Learning,2021.1.4,60.18538301655544,
Camponello,stimuli/subj_files/ST01_112522_cityB.csv,./stimuli/hallstatt.jpg,./stimuli/street_plate2.png,KERET UTCA,stimuli/objects/094a.jpg,object,1,stimuli/objects/091a.jpg,stimuli/objects/091b.jpg,stimuli/objects/007b.jpg,stimuli/objects/091a.jpg,stimuli/objects/007a.jpg,lure,dist2,target,dist1,0,0,0,0,,,,,0,72,72,6,,,,,,,,,,,711.939599299978,None,,,,,,,,,,,,,,,,,,,,,710.2748084999912,None,710.2748084999912,None,710.2748084999912,None,710.2748084999912,None,left,710.2748084999912,None,710.2748084999912,None,None,None,None,None,None,None,None,None,None,None,None,1.6409845000016503,,,,,,,,,,,ST01_112522,2022-11-25_12h23.23.259,Hippopolis_Learning,2021.1.4,60.18538301655544,
