CityName,StimuliFile,CityImage,StreetSign,VideoFile,Cue,Image,Category,Novelty,UpdateImage,TestImage1,TestImage2,TestImage3,TestImage4,TestImage1Type,TestImage2Type,TestImage3Type,TestImage4Type,CityBlock.thisRepN,CityBlock.thisTrialN,CityBlock.thisN,CityBlock.thisIndex,LearningTrials.thisRepN,LearningTrials.thisTrialN,LearningTrials.thisN,LearningTrials.thisIndex,learning_instructions_text.started,intro_key.started,intro_key.keys,intro_key.rt,cityname_text.started,city_image.started,fx_cross.started,plate.started,city_text.started,street_text.started,fx_cross_prediction.started,plate_updating.started,city_text_updating.started,street_text_updating.started,updating_image.started,short_break_key.keys,fx_cross.stopped,short_break_text.started,short_break_key.started,short_break_key.rt,break_text.started,break_key_resp.started,break_key_resp.keys,break_key_resp.rt,end_text.started,participant,date,expName,psychopyVersion,frameRate,
,,,,,,,,,,,,,,,,,,,,,,,,,,23.112506872043014,23.112506872043014,space,21.931923711672425,,,,,,,,,,,,,,,,,,,,,,ST01_112822,2022-11-29_10h16.32.097,Hippopolis_Updating,2022.2.2,59.81045175703195,
Camponello,stimuli/subj_files/ST01_112822_cityB.csv,./stimuli/arnedillo.png,./stimuli/street_plate2.png,./stimuli/videos/camponello_part1.mp4,SIVATAG UTCA,stimuli/scenes/014a.jpg,scene,0,stimuli/scenes/014a.jpg,stimuli/scenes/014b.jpg,stimuli/objects/114a.jpg,stimuli/objects/114b.jpg,stimuli/scenes/014a.jpg,lure,dist1,dist2,target,0,0,0,0,0,0,0,31,,,,,45.15774897299707,45.15774897299707,48.113100895658135,49.12328168936074,49.12328168936074,49.12328168936074,49.12328168936074,52.10254627093673,52.10254627093673,52.10254627093673,52.10254627093673,None,,,,,,,,,,ST01_112822,2022-11-29_10h16.32.097,Hippopolis_Updating,2022.2.2,59.81045175703195,
Camponello,stimuli/subj_files/ST01_112822_cityB.csv,./stimuli/arnedillo.png,./stimuli/street_plate2.png,./stimuli/videos/camponello_part1.mp4,KECSKE UTCA,stimuli/scenes/025a.jpg,scene,0,stimuli/scenes/025a.jpg,stimuli/scenes/004b.jpg,stimuli/scenes/025a.jpg,stimuli/scenes/025b.jpg,stimuli/scenes/004a.jpg,dist2,target,lure,dist1,0,0,0,0,0,1,1,9,,,,,,,54.082097290083766,55.10984341427684,55.10984341427684,55.10984341427684,55.10984341427684,58.101547630503774,58.101547630503774,58.101547630503774,58.101547630503774,None,,,,,,,,,,ST01_112822,2022-11-29_10h16.32.097,Hippopolis_Updating,2022.2.2,59.81045175703195,
Camponello,stimuli/subj_files/ST01_112822_cityB.csv,./stimuli/arnedillo.png,./stimuli/street_plate2.png,./stimuli/videos/camponello_part1.mp4,ASZTAL UTCA,stimuli/scenes/024a.jpg,scene,2,stimuli/objects/066a.jpg,stimuli/objects/061b.jpg,stimuli/objects/066b.jpg,stimuli/objects/061a.jpg,stimuli/objects/066a.jpg,dist2,lure,dist1,target,0,0,0,0,0,2,2,70,,,,,,,60.09851189702749,61.121455147862434,61.121455147862434,61.121455147862434,61.121455147862434,64.16430094465613,64.16430094465613,64.16430094465613,64.16430094465613,None,,,,,,,,,,ST01_112822,2022-11-29_10h16.32.097,Hippopolis_Updating,2022.2.2,59.81045175703195,
Camponello,stimuli/subj_files/ST01_112822_cityB.csv,./stimuli/arnedillo.png,./stimuli/street_plate2.png,./stimuli/videos/camponello_part1.mp4,KAKAÓ UTCA,stimuli/scenes/029a.jpg,scene,2,stimuli/objects/061a.jpg,stimuli/objects/037b.jpg,stimuli/objects/061a.jpg,stimuli/objects/037a.jpg,stimuli/objects/061b.jpg,dist2,target,dist1,lure,0,0,0,0,0,3,3,8,,,,,,,66.10656665079296,67.13849207945168,67.13849207945168,67.13849207945168,67.13849207945168,70.13708757422864,70.13708757422864,70.13708757422864,70.13708757422864,None,,,,,,,,,,ST01_112822,2022-11-29_10h16.32.097,Hippopolis_Updating,2022.2.2,59.81045175703195,
Camponello,stimuli/subj_files/ST01_112822_cityB.csv,./stimuli/arnedillo.png,./stimuli/street_plate2.png,./stimuli/videos/camponello_part1.mp4,KORONG UTCA,stimuli/scenes/011a.jpg,scene,0,stimuli/scenes/011a.jpg,stimuli/objects/060b.jpg,stimuli/scenes/011b.jpg,stimuli/scenes/011a.jpg,stimuli/objects/060a.jpg,dist2,lure,target,dist1,0,0,0,0,0,4,4,53,,,,,,,72.1101059038192,73.13820470869541,73.13820470869541,73.13820470869541,73.13820470869541,76.14201733656228,76.14201733656228,76.14201733656228,76.14201733656228,None,,,,,,,,,,ST01_112822,2022-11-29_10h16.32.097,Hippopolis_Updating,2022.2.2,59.81045175703195,
Camponello,stimuli/subj_files/ST01_112822_cityB.csv,./stimuli/arnedillo.png,./stimuli/street_plate2.png,./stimuli/videos/camponello_part1.mp4,HEGEDŰ UTCA,stimuli/objects/054a.jpg,object,0,stimuli/objects/054a.jpg,stimuli/objects/054b.jpg,stimuli/objects/012a.jpg,stimuli/objects/012b.jpg,stimuli/objects/054a.jpg,lure,dist1,dist2,target,0,0,0,0,0,5,5,62,,,,,,,78.126430939883,79.15287550166249,79.15287550166249,79.15287550166249,79.15287550166249,82.17359630391002,82.17359630391002,82.17359630391002,82.17359630391002,None,,,,,,,,,,ST01_112822,2022-11-29_10h16.32.097,Hippopolis_Updating,2022.2.2,59.81045175703195,
Camponello,stimuli/subj_files/ST01_112822_cityB.csv,./stimuli/arnedillo.png,./stimuli/street_plate2.png,./stimuli/videos/camponello_part1.mp4,KORONA UTCA,stimuli/scenes/080a.jpg,scene,0,stimuli/scenes/080a.jpg,stimuli/scenes/012a.jpg,stimuli/scenes/012b.jpg,stimuli/scenes/080a.jpg,stimuli/scenes/080b.jpg,dist1,dist2,target,lure,0,0,0,0,0,6,6,36,,,,,,,84.1396418698132,85.1689731925726,85.1689731925726,85.1689731925726,85.1689731925726,88.1638574488461,88.1638574488461,88.1638574488461,88.1638574488461,None,,,,,,,,,,ST01_112822,2022-11-29_10h16.32.097,Hippopolis_Updating,2022.2.2,59.81045175703195,
Camponello,stimuli/subj_files/ST01_112822_cityB.csv,./stimuli/arnedillo.png,./stimuli/street_plate2.png,./stimuli/videos/camponello_part1.mp4,REPÜLŐ UTCA,stimuli/objects/008a.jpg,object,0,stimuli/objects/008a.jpg,stimuli/scenes/120a.jpg,stimuli/scenes/120b.jpg,stimuli/objects/008b.jpg,stimuli/objects/008a.jpg,dist1,dist2,lure,target,0,0,0,0,0,7,7,20,,,,,,,90.13979488424957,91.17180490680039,91.17180490680039,91.17180490680039,91.17180490680039,94.1728439796716,94.1728439796716,94.1728439796716,94.1728439796716,None,,,,,,,,,,ST01_112822,2022-11-29_10h16.32.097,Hippopolis_Updating,2022.2.2,59.81045175703195,
Camponello,stimuli/subj_files/ST01_112822_cityB.csv,./stimuli/arnedillo.png,./stimuli/street_plate2.png,./stimuli/videos/camponello_part1.mp4,KUTYA UTCA,stimuli/objects/051a.jpg,object,1,stimuli/objects/007a.jpg,stimuli/objects/007b.jpg,stimuli/objects/007a.jpg,stimuli/objects/035b.jpg,stimuli/objects/035a.jpg,lure,target,dist2,dist1,0,0,0,0,0,8,8,40,,,,,,,96.14391447603703,97.17742665857077,97.17742665857077,97.17742665857077,97.17742665857077,100.18717795237899,100.18717795237899,100.18717795237899,100.18717795237899,None,,,,,,,,,,ST01_112822,2022-11-29_10h16.32.097,Hippopolis_Updating,2022.2.2,59.81045175703195,
Camponello,stimuli/subj_files/ST01_112822_cityB.csv,./stimuli/arnedillo.png,./stimuli/street_plate2.png,./stimuli/videos/camponello_part1.mp4,NARANCS UTCA,stimuli/objects/042a.jpg,object,0,stimuli/objects/042a.jpg,stimuli/scenes/085b.jpg,stimuli/scenes/085a.jpg,stimuli/objects/042b.jpg,stimuli/objects/042a.jpg,dist2,dist1,lure,target,0,0,0,0,0,9,9,26,,,,,,,102.15548546798527,103.18632081896067,103.18632081896067,103.18632081896067,103.18632081896067,106.18199814110994,106.18199814110994,106.18199814110994,106.18199814110994,None,,,,,,,,,,ST01_112822,2022-11-29_10h16.32.097,Hippopolis_Updating,2022.2.2,59.81045175703195,
Camponello,stimuli/subj_files/ST01_112822_cityB.csv,./stimuli/arnedillo.png,./stimuli/street_plate2.png,./stimuli/videos/camponello_part1.mp4,CITROM UTCA,stimuli/objects/038a.jpg,object,0,stimuli/objects/038a.jpg,stimuli/objects/059b.jpg,stimuli/objects/059a.jpg,stimuli/objects/038b.jpg,stimuli/objects/038a.jpg,dist2,dist1,lure,target,0,0,0,0,0,10,10,23,,,,,,,108.16479513421655,109.18803415261209,109.18803415261209,109.18803415261209,109.18803415261209,112.18527148291469,112.18527148291469,112.18527148291469,112.18527148291469,None,,,,,,,,,,ST01_112822,2022-11-29_10h16.32.097,Hippopolis_Updating,2022.2.2,59.81045175703195,
Camponello,stimuli/subj_files/ST01_112822_cityB.csv,./stimuli/arnedillo.png,./stimuli/street_plate2.png,./stimuli/videos/camponello_part1.mp4,SIRÁLY UTCA,stimuli/objects/112a.jpg,object,0,stimuli/objects/112a.jpg,stimuli/objects/112b.jpg,stimuli/scenes/078a.jpg,stimuli/objects/112a.jpg,stimuli/scenes/078b.jpg,lure,dist1,target,dist2,0,0,0,0,0,11,11,34,,,,,,,114.17250902578235,115.20268037728965,115.20268037728965,115.20268037728965,115.20268037728965,118.20096579939127,118.20096579939127,118.20096579939127,118.20096579939127,None,,,,,,,,,,ST01_112822,2022-11-29_10h16.32.097,Hippopolis_Updating,2022.2.2,59.81045175703195,
Camponello,stimuli/subj_files/ST01_112822_cityB.csv,./stimuli/arnedillo.png,./stimuli/street_plate2.png,./stimuli/videos/camponello_part1.mp4,PÁFRÁNY UTCA,stimuli/objects/030a.jpg,object,0,stimuli/objects/030a.jpg,stimuli/objects/030a.jpg,stimuli/objects/030b.jpg,stimuli/scenes/036a.jpg,stimuli/scenes/036b.jpg,target,lure,dist1,dist2,0,0,0,0,0,12,12,67,,,,,,,120.1849626544863,121.20335121825337,121.20335121825337,121.20335121825337,121.20335121825337,124.21773806214333,124.21773806214333,124.21773806214333,124.21773806214333,None,121.20335121825337,,,,,,,,,ST01_112822,2022-11-29_10h16.32.097,Hippopolis_Updating,2022.2.2,59.81045175703195,
Camponello,stimuli/subj_files/ST01_112822_cityB.csv,./stimuli/arnedillo.png,./stimuli/street_plate2.png,./stimuli/videos/camponello_part1.mp4,KÍGYÓ UTCA,stimuli/objects/086a.jpg,object,2,stimuli/scenes/109a.jpg,stimuli/scenes/109a.jpg,stimuli/scenes/016a.jpg,stimuli/scenes/109b.jpg,stimuli/scenes/016b.jpg,target,dist1,lure,dist2,0,0,0,0,0,13,13,73,,,,,,,126.19428227096796,127.22142597660422,127.22142597660422,127.22142597660422,127.22142597660422,130.23634495213628,130.23634495213628,130.23634495213628,130.23634495213628,None,,,,,,,,,,ST01_112822,2022-11-29_10h16.32.097,Hippopolis_Updating,2022.2.2,59.81045175703195,
Camponello,stimuli/subj_files/ST01_112822_cityB.csv,./stimuli/arnedillo.png,./stimuli/street_plate2.png,./stimuli/videos/camponello_part1.mp4,SZŐLŐ UTCA,stimuli/objects/028a.jpg,object,0,stimuli/objects/028a.jpg,stimuli/scenes/101a.jpg,stimuli/objects/028a.jpg,stimuli/objects/028b.jpg,stimuli/scenes/101b.jpg,dist1,target,lure,dist2,0,0,0,0,0,14,14,43,,,,,,,132.20250714570284,133.23490250483155,133.23490250483155,133.23490250483155,133.23490250483155,136.2336678095162,136.2336678095162,136.2336678095162,136.2336678095162,None,,,,,,,,,,ST01_112822,2022-11-29_10h16.32.097,Hippopolis_Updating,2022.2.2,59.81045175703195,
Camponello,stimuli/subj_files/ST01_112822_cityB.csv,./stimuli/arnedillo.png,./stimuli/street_plate2.png,./stimuli/videos/camponello_part1.mp4,TOLLTARTÓ UTCA,stimuli/objects/003a.jpg,object,0,stimuli/objects/003a.jpg,stimuli/scenes/080a.jpg,stimuli/scenes/080b.jpg,stimuli/objects/003b.jpg,stimuli/objects/003a.jpg,dist1,dist2,lure,target,0,0,0,0,0,15,15,65,,,,,,,138.21245935186744,139.23443972691894,139.23443972691894,139.23443972691894,139.23443972691894,142.24254797585309,142.24254797585309,142.24254797585309,142.24254797585309,None,,,,,,,,,,ST01_112822,2022-11-29_10h16.32.097,Hippopolis_Updating,2022.2.2,59.81045175703195,
Camponello,stimuli/subj_files/ST01_112822_cityB.csv,./stimuli/arnedillo.png,./stimuli/street_plate2.png,./stimuli/videos/camponello_part1.mp4,GYŰRŰ UTCA,stimuli/scenes/022a.jpg,scene,1,stimuli/scenes/058a.jpg,stimuli/scenes/099b.jpg,stimuli/scenes/099a.jpg,stimuli/scenes/058a.jpg,stimuli/scenes/058b.jpg,dist2,dist1,target,lure,0,0,0,0,0,16,16,72,,,,,,,144.21672324836254,145.2353817652911,145.2353817652911,145.2353817652911,145.2353817652911,148.23677756264806,148.23677756264806,148.23677756264806,148.23677756264806,None,145.2353817652911,,,,,,,,,ST01_112822,2022-11-29_10h16.32.097,Hippopolis_Updating,2022.2.2,59.81045175703195,
Camponello,stimuli/subj_files/ST01_112822_cityB.csv,./stimuli/arnedillo.png,./stimuli/street_plate2.png,./stimuli/videos/camponello_part1.mp4,TÁNYÉR UTCA,stimuli/objects/005a.jpg,object,1,stimuli/objects/035a.jpg,stimuli/objects/035a.jpg,stimuli/scenes/058a.jpg,stimuli/scenes/058b.jpg,stimuli/objects/035b.jpg,target,dist1,dist2,lure,0,0,0,0,0,17,17,32,,,,,,,150.22693949751556,151.25849576108158,151.25849576108158,151.25849576108158,151.25849576108158,154.2736881133169,154.2736881133169,154.2736881133169,154.2736881133169,None,,,,,,,,,,ST01_112822,2022-11-29_10h16.32.097,Hippopolis_Updating,2022.2.2,59.81045175703195,
Camponello,stimuli/subj_files/ST01_112822_cityB.csv,./stimuli/arnedillo.png,./stimuli/street_plate2.png,./stimuli/videos/camponello_part1.mp4,KESZTYŰ UTCA,stimuli/objects/103a.jpg,object,2,stimuli/scenes/041a.jpg,stimuli/scenes/041a.jpg,stimuli/scenes/063b.jpg,stimuli/scenes/063a.jpg,stimuli/scenes/041b.jpg,target,dist2,dist1,lure,0,0,0,0,0,18,18,7,,,,,,,156.24378360435367,157.26740578375757,157.26740578375757,157.26740578375757,157.26740578375757,160.28243423439562,160.28243423439562,160.28243423439562,160.28243423439562,None,,,,,,,,,,ST01_112822,2022-11-29_10h16.32.097,Hippopolis_Updating,2022.2.2,59.81045175703195,
Camponello,stimuli/subj_files/ST01_112822_cityB.csv,./stimuli/arnedillo.png,./stimuli/street_plate2.png,./stimuli/videos/camponello_part1.mp4,ÁLOM UTCA,stimuli/scenes/017a.jpg,scene,0,stimuli/scenes/017a.jpg,stimuli/scenes/017a.jpg,stimuli/objects/078b.jpg,stimuli/objects/078a.jpg,stimuli/scenes/017b.jpg,target,dist2,dist1,lure,0,0,0,0,0,19,19,3,,,,,,,162.25003514252603,163.26759052090347,163.26759052090347,163.26759052090347,163.26759052090347,166.26440426148474,166.26440426148474,166.26440426148474,166.26440426148474,None,,,,,,,,,,ST01_112822,2022-11-29_10h16.32.097,Hippopolis_Updating,2022.2.2,59.81045175703195,
Camponello,stimuli/subj_files/ST01_112822_cityB.csv,./stimuli/arnedillo.png,./stimuli/street_plate2.png,./stimuli/videos/camponello_part1.mp4,TORONY UTCA,stimuli/scenes/120a.jpg,scene,0,stimuli/scenes/120a.jpg,stimuli/scenes/120a.jpg,stimuli/scenes/034a.jpg,stimuli/scenes/034b.jpg,stimuli/scenes/120b.jpg,target,dist1,dist2,lure,0,0,0,0,0,20,20,59,,,,,,,168.25633582100272,169.2858192268759,169.2858192268759,169.2858192268759,169.2858192268759,172.2852012589574,172.2852012589574,172.2852012589574,172.2852012589574,None,,,,,,,,,,ST01_112822,2022-11-29_10h16.32.097,Hippopolis_Updating,2022.2.2,59.81045175703195,
Camponello,stimuli/subj_files/ST01_112822_cityB.csv,./stimuli/arnedillo.png,./stimuli/street_plate2.png,./stimuli/videos/camponello_part1.mp4,TIGRIS UTCA,stimuli/objects/016a.jpg,object,1,stimuli/objects/113a.jpg,stimuli/objects/113a.jpg,stimuli/objects/113b.jpg,stimuli/objects/063a.jpg,stimuli/objects/063b.jpg,target,lure,dist1,dist2,0,0,0,0,0,21,21,18,,,,,,,174.26851358823478,175.29976040124893,175.29976040124893,175.29976040124893,175.29976040124893,178.32690503820777,178.32690503820777,178.32690503820777,178.32690503820777,None,,,,,,,,,,ST01_112822,2022-11-29_10h16.32.097,Hippopolis_Updating,2022.2.2,59.81045175703195,
Camponello,stimuli/subj_files/ST01_112822_cityB.csv,./stimuli/arnedillo.png,./stimuli/street_plate2.png,./stimuli/videos/camponello_part1.mp4,FOGAS UTCA,stimuli/scenes/113a.jpg,scene,0,stimuli/scenes/113a.jpg,stimuli/objects/010a.jpg,stimuli/objects/010b.jpg,stimuli/scenes/113b.jpg,stimuli/scenes/113a.jpg,dist1,dist2,lure,target,0,0,0,0,0,22,22,69,,,,,,,180.28002486750484,181.3009216990322,181.3009216990322,181.3009216990322,181.3009216990322,184.3124737199396,184.3124737199396,184.3124737199396,184.3124737199396,None,,,,,,,,,,ST01_112822,2022-11-29_10h16.32.097,Hippopolis_Updating,2022.2.2,59.81045175703195,
Camponello,stimuli/subj_files/ST01_112822_cityB.csv,./stimuli/arnedillo.png,./stimuli/street_plate2.png,./stimuli/videos/camponello_part1.mp4,LOVAGLÁS UTCA,stimuli/objects/047a.jpg,object,0,stimuli/objects/047a.jpg,stimuli/objects/047a.jpg,stimuli/objects/030b.jpg,stimuli/objects/030a.jpg,stimuli/objects/047b.jpg,target,dist2,dist1,lure,0,0,0,0,0,23,23,14,,,,,,,186.2942745592445,187.32201819494367,187.32201819494367,187.32201819494367,187.32201819494367,190.3198554571718,190.3198554571718,190.3198554571718,190.3198554571718,None,,,,,,,,,,ST01_112822,2022-11-29_10h16.32.097,Hippopolis_Updating,2022.2.2,59.81045175703195,
Camponello,stimuli/subj_files/ST01_112822_cityB.csv,./stimuli/arnedillo.png,./stimuli/street_plate2.png,./stimuli/videos/camponello_part1.mp4,SZILVA UTCA,stimuli/scenes/104a.jpg,scene,0,stimuli/scenes/104a.jpg,stimuli/objects/088b.jpg,stimuli/scenes/104b.jpg,stimuli/objects/088a.jpg,stimuli/scenes/104a.jpg,dist2,lure,dist1,target,0,0,0,0,0,24,24,16,,,,,,,192.29761601053178,193.31834365427494,193.31834365427494,193.31834365427494,193.31834365427494,196.32173580117524,196.32173580117524,196.32173580117524,196.32173580117524,None,,,,,,,,,,ST01_112822,2022-11-29_10h16.32.097,Hippopolis_Updating,2022.2.2,59.81045175703195,
Camponello,stimuli/subj_files/ST01_112822_cityB.csv,./stimuli/arnedillo.png,./stimuli/street_plate2.png,./stimuli/videos/camponello_part1.mp4,SZOBOR UTCA,stimuli/objects/114a.jpg,object,0,stimuli/objects/114a.jpg,stimuli/objects/099b.jpg,stimuli/objects/099a.jpg,stimuli/objects/114a.jpg,stimuli/objects/114b.jpg,dist2,dist1,target,lure,0,0,0,0,0,25,25,10,,,,,,,198.3130011856556,199.3394357971847,199.3394357971847,199.3394357971847,199.3394357971847,202.34813993237913,202.34813993237913,202.34813993237913,202.34813993237913,None,,,,,,,,,,ST01_112822,2022-11-29_10h16.32.097,Hippopolis_Updating,2022.2.2,59.81045175703195,
Camponello,stimuli/subj_files/ST01_112822_cityB.csv,./stimuli/arnedillo.png,./stimuli/street_plate2.png,./stimuli/videos/camponello_part1.mp4,TALICSKA UTCA,stimuli/scenes/050a.jpg,scene,1,stimuli/scenes/099a.jpg,stimuli/objects/001b.jpg,stimuli/scenes/099a.jpg,stimuli/scenes/099b.jpg,stimuli/objects/001a.jpg,dist2,target,lure,dist1,0,0,0,0,0,26,26,24,,,,,,,204.32622548937798,205.34911555983126,205.34911555983126,205.34911555983126,205.34911555983126,208.3460291326046,208.3460291326046,208.3460291326046,208.3460291326046,None,,,,,,,,,,ST01_112822,2022-11-29_10h16.32.097,Hippopolis_Updating,2022.2.2,59.81045175703195,
Camponello,stimuli/subj_files/ST01_112822_cityB.csv,./stimuli/arnedillo.png,./stimuli/street_plate2.png,./stimuli/videos/camponello_part1.mp4,TÜKÖR UTCA,stimuli/scenes/039a.jpg,scene,0,stimuli/scenes/039a.jpg,stimuli/scenes/039a.jpg,stimuli/scenes/113b.jpg,stimuli/scenes/113a.jpg,stimuli/scenes/039b.jpg,target,dist2,dist1,lure,0,0,0,0,0,27,27,68,,,,,,,210.3300234992057,211.3509265501052,211.3509265501052,211.3509265501052,211.3509265501052,214.36440556682646,214.36440556682646,214.36440556682646,214.36440556682646,None,,,,,,,,,,ST01_112822,2022-11-29_10h16.32.097,Hippopolis_Updating,2022.2.2,59.81045175703195,
Camponello,stimuli/subj_files/ST01_112822_cityB.csv,./stimuli/arnedillo.png,./stimuli/street_plate2.png,./stimuli/videos/camponello_part1.mp4,BOHÓC UTCA,stimuli/objects/052a.jpg,object,2,stimuli/scenes/063a.jpg,stimuli/scenes/019a.jpg,stimuli/scenes/019b.jpg,stimuli/scenes/063b.jpg,stimuli/scenes/063a.jpg,dist1,dist2,lure,target,0,0,0,0,0,28,28,76,,,,,,,216.33284930326045,217.3503291066736,217.3503291066736,217.3503291066736,217.3503291066736,220.36907532811165,220.36907532811165,220.36907532811165,220.36907532811165,None,,,,,,,,,,ST01_112822,2022-11-29_10h16.32.097,Hippopolis_Updating,2022.2.2,59.81045175703195,
Camponello,stimuli/subj_files/ST01_112822_cityB.csv,./stimuli/arnedillo.png,./stimuli/street_plate2.png,./stimuli/videos/camponello_part1.mp4,PETÁRDA UTCA,stimuli/scenes/065a.jpg,scene,0,stimuli/scenes/065a.jpg,stimuli/scenes/065a.jpg,stimuli/objects/105a.jpg,stimuli/scenes/065b.jpg,stimuli/objects/105b.jpg,target,dist1,lure,dist2,0,0,0,0,0,29,29,49,,,,,,,222.33288786746562,223.35143069177866,223.35143069177866,223.35143069177866,223.35143069177866,226.36293170787394,226.36293170787394,226.36293170787394,226.36293170787394,None,223.35143069177866,,,,,,,,,ST01_112822,2022-11-29_10h16.32.097,Hippopolis_Updating,2022.2.2,59.81045175703195,
Camponello,stimuli/subj_files/ST01_112822_cityB.csv,./stimuli/arnedillo.png,./stimuli/street_plate2.png,./stimuli/videos/camponello_part1.mp4,POGÁCSA UTCA,stimuli/scenes/082a.jpg,scene,2,stimuli/objects/046a.jpg,stimuli/objects/046a.jpg,stimuli/objects/046b.jpg,stimuli/objects/082a.jpg,stimuli/objects/082b.jpg,target,lure,dist1,dist2,0,0,0,0,0,30,30,58,,,,,,,228.3453996554017,229.36752589419484,229.36752589419484,229.36752589419484,229.36752589419484,232.4057081490755,232.4057081490755,232.4057081490755,232.4057081490755,None,,,,,,,,,,ST01_112822,2022-11-29_10h16.32.097,Hippopolis_Updating,2022.2.2,59.81045175703195,
Camponello,stimuli/subj_files/ST01_112822_cityB.csv,./stimuli/arnedillo.png,./stimuli/street_plate2.png,./stimuli/videos/camponello_part1.mp4,MÁLNA UTCA,stimuli/objects/067a.jpg,object,0,stimuli/objects/067a.jpg,stimuli/objects/008b.jpg,stimuli/objects/008a.jpg,stimuli/objects/067a.jpg,stimuli/objects/067b.jpg,dist2,dist1,target,lure,0,0,0,0,0,31,31,39,,,,,,,234.34616753086448,235.36889401078224,235.36889401078224,235.36889401078224,235.36889401078224,238.3801465332508,238.3801465332508,238.3801465332508,238.3801465332508,None,,,,,,,,,,ST01_112822,2022-11-29_10h16.32.097,Hippopolis_Updating,2022.2.2,59.81045175703195,
Camponello,stimuli/subj_files/ST01_112822_cityB.csv,./stimuli/arnedillo.png,./stimuli/street_plate2.png,./stimuli/videos/camponello_part1.mp4,KÖTÉNY UTCA,stimuli/scenes/078a.jpg,scene,0,stimuli/scenes/078a.jpg,stimuli/scenes/078b.jpg,stimuli/objects/041b.jpg,stimuli/scenes/078a.jpg,stimuli/objects/041a.jpg,lure,dist2,target,dist1,0,0,0,0,0,32,32,35,,,,,,,240.36189823411405,241.39004617743194,241.39004617743194,241.39004617743194,241.39004617743194,244.37717020139098,244.37717020139098,244.37717020139098,244.37717020139098,None,,,,,,,,,,ST01_112822,2022-11-29_10h16.32.097,Hippopolis_Updating,2022.2.2,59.81045175703195,
Camponello,stimuli/subj_files/ST01_112822_cityB.csv,./stimuli/arnedillo.png,./stimuli/street_plate2.png,./stimuli/videos/camponello_part1.mp4,MARTINI UTCA,stimuli/scenes/036a.jpg,scene,0,stimuli/scenes/036a.jpg,stimuli/scenes/065a.jpg,stimuli/scenes/036b.jpg,stimuli/scenes/065b.jpg,stimuli/scenes/036a.jpg,dist1,lure,dist2,target,0,0,0,0,0,33,33,66,,,,,,,246.36471004225314,247.39201764762402,247.39201764762402,247.39201764762402,247.39201764762402,250.3881173171103,250.3881173171103,250.3881173171103,250.3881173171103,None,,,,,,,,,,ST01_112822,2022-11-29_10h16.32.097,Hippopolis_Updating,2022.2.2,59.81045175703195,
Camponello,stimuli/subj_files/ST01_112822_cityB.csv,./stimuli/arnedillo.png,./stimuli/street_plate2.png,./stimuli/videos/camponello_part1.mp4,KATONA UTCA,stimuli/scenes/034a.jpg,scene,0,stimuli/scenes/034a.jpg,stimuli/scenes/092b.jpg,stimuli/scenes/034b.jpg,stimuli/scenes/034a.jpg,stimuli/scenes/092a.jpg,dist2,lure,target,dist1,0,0,0,0,0,34,34,51,,,,,,,252.3758216779679,253.39924077130854,253.39924077130854,253.39924077130854,253.39924077130854,256.4017614778131,256.4017614778131,256.4017614778131,256.4017614778131,None,,,,,,,,,,ST01_112822,2022-11-29_10h16.32.097,Hippopolis_Updating,2022.2.2,59.81045175703195,
Camponello,stimuli/subj_files/ST01_112822_cityB.csv,./stimuli/arnedillo.png,./stimuli/street_plate2.png,./stimuli/videos/camponello_part1.mp4,CSILLAG UTCA,stimuli/scenes/006a.jpg,scene,2,stimuli/objects/082a.jpg,stimuli/scenes/109b.jpg,stimuli/objects/082a.jpg,stimuli/objects/082b.jpg,stimuli/scenes/109a.jpg,dist2,target,lure,dist1,0,0,0,0,0,35,35,47,,,,,,,258.38669166341424,259.41794407367706,259.41794407367706,259.41794407367706,259.41794407367706,262.415648534894,262.415648534894,262.415648534894,262.415648534894,None,,,,,,,,,,ST01_112822,2022-11-29_10h16.32.097,Hippopolis_Updating,2022.2.2,59.81045175703195,
Camponello,stimuli/subj_files/ST01_112822_cityB.csv,./stimuli/arnedillo.png,./stimuli/street_plate2.png,./stimuli/videos/camponello_part1.mp4,TENISZ UTCA,stimuli/scenes/043a.jpg,scene,1,stimuli/scenes/003a.jpg,stimuli/scenes/003b.jpg,stimuli/scenes/003a.jpg,stimuli/objects/110b.jpg,stimuli/objects/110a.jpg,lure,target,dist2,dist1,0,0,0,0,0,36,36,78,,,,,,,264.3959621414542,265.4115737285465,265.4115737285465,265.4115737285465,265.4115737285465,268.4343285113573,268.4343285113573,268.4343285113573,268.4343285113573,None,,,,,,,,,,ST01_112822,2022-11-29_10h16.32.097,Hippopolis_Updating,2022.2.2,59.81045175703195,
Camponello,stimuli/subj_files/ST01_112822_cityB.csv,./stimuli/arnedillo.png,./stimuli/street_plate2.png,./stimuli/videos/camponello_part1.mp4,MUNKA UTCA,stimuli/objects/059a.jpg,object,0,stimuli/objects/059a.jpg,stimuli/scenes/115b.jpg,stimuli/scenes/115a.jpg,stimuli/objects/059a.jpg,stimuli/objects/059b.jpg,dist2,dist1,target,lure,0,0,0,0,0,37,37,1,,,,,,,270.4110842049122,271.43495767749846,271.43495767749846,271.43495767749846,271.43495767749846,274.4495737347752,274.4495737347752,274.4495737347752,274.4495737347752,None,,,,,,,,,,ST01_112822,2022-11-29_10h16.32.097,Hippopolis_Updating,2022.2.2,59.81045175703195,
Camponello,stimuli/subj_files/ST01_112822_cityB.csv,./stimuli/arnedillo.png,./stimuli/street_plate2.png,./stimuli/videos/camponello_part1.mp4,KALAPÁCS UTCA,stimuli/objects/095a.jpg,object,2,stimuli/scenes/087a.jpg,stimuli/objects/066b.jpg,stimuli/scenes/087a.jpg,stimuli/scenes/087b.jpg,stimuli/objects/066a.jpg,dist2,target,lure,dist1,0,0,0,0,0,38,38,30,,,,,,,276.4116779156029,277.4323937408626,277.4323937408626,277.4323937408626,277.4323937408626,280.4429443217814,280.4429443217814,280.4429443217814,280.4429443217814,None,,,,,,,,,,ST01_112822,2022-11-29_10h16.32.097,Hippopolis_Updating,2022.2.2,59.81045175703195,
Camponello,stimuli/subj_files/ST01_112822_cityB.csv,./stimuli/arnedillo.png,./stimuli/street_plate2.png,./stimuli/videos/camponello_part1.mp4,ZÁSZLÓ UTCA,stimuli/scenes/079a.jpg,scene,0,stimuli/scenes/079a.jpg,stimuli/objects/112a.jpg,stimuli/scenes/079b.jpg,stimuli/objects/112b.jpg,stimuli/scenes/079a.jpg,dist1,lure,dist2,target,0,0,0,0,0,39,39,63,,,,,,,282.42189230024815,283.4453484006226,283.4453484006226,283.4453484006226,283.4453484006226,286.44488997757435,286.44488997757435,286.44488997757435,286.44488997757435,None,,,,,,,,,,ST01_112822,2022-11-29_10h16.32.097,Hippopolis_Updating,2022.2.2,59.81045175703195,
Camponello,stimuli/subj_files/ST01_112822_cityB.csv,./stimuli/arnedillo.png,./stimuli/street_plate2.png,./stimuli/videos/camponello_part1.mp4,PAPAGÁJ UTCA,stimuli/scenes/002a.jpg,scene,0,stimuli/scenes/002a.jpg,stimuli/objects/045a.jpg,stimuli/objects/045b.jpg,stimuli/scenes/002b.jpg,stimuli/scenes/002a.jpg,dist1,dist2,lure,target,0,0,0,0,0,40,40,19,,,,,,,288.4317589774728,289.4465389344841,289.4465389344841,289.4465389344841,289.4465389344841,292.4587014615536,292.4587014615536,292.4587014615536,292.4587014615536,None,,,,,,,,,,ST01_112822,2022-11-29_10h16.32.097,Hippopolis_Updating,2022.2.2,59.81045175703195,
Camponello,stimuli/subj_files/ST01_112822_cityB.csv,./stimuli/arnedillo.png,./stimuli/street_plate2.png,./stimuli/videos/camponello_part1.mp4,PIZSAMA UTCA,stimuli/objects/088a.jpg,object,0,stimuli/objects/088a.jpg,stimuli/objects/088a.jpg,stimuli/objects/047a.jpg,stimuli/objects/047b.jpg,stimuli/objects/088b.jpg,target,dist1,dist2,lure,0,0,0,0,0,41,41,33,,,,,,,294.43784599378705,295.4660673364997,295.4660673364997,295.4660673364997,295.4660673364997,298.4625187534839,298.4625187534839,298.4625187534839,298.4625187534839,None,,,,,,,,,,ST01_112822,2022-11-29_10h16.32.097,Hippopolis_Updating,2022.2.2,59.81045175703195,
Camponello,stimuli/subj_files/ST01_112822_cityB.csv,./stimuli/arnedillo.png,./stimuli/street_plate2.png,./stimuli/videos/camponello_part1.mp4,MOCSÁR UTCA,stimuli/objects/057a.jpg,object,0,stimuli/objects/057a.jpg,stimuli/objects/067a.jpg,stimuli/objects/067b.jpg,stimuli/objects/057b.jpg,stimuli/objects/057a.jpg,dist1,dist2,lure,target,0,0,0,0,0,42,42,21,,,,,,,300.455667283386,301.4812855012715,301.4812855012715,301.4812855012715,301.4812855012715,304.4771612454206,304.4771612454206,304.4771612454206,304.4771612454206,None,,,,,,,,,,ST01_112822,2022-11-29_10h16.32.097,Hippopolis_Updating,2022.2.2,59.81045175703195,
Camponello,stimuli/subj_files/ST01_112822_cityB.csv,./stimuli/arnedillo.png,./stimuli/street_plate2.png,./stimuli/videos/camponello_part1.mp4,BÖGRE UTCA,stimuli/objects/074a.jpg,object,0,stimuli/objects/074a.jpg,stimuli/objects/074a.jpg,stimuli/objects/042b.jpg,stimuli/objects/074b.jpg,stimuli/objects/042a.jpg,target,dist2,lure,dist1,0,0,0,0,0,43,43,64,,,,,,,306.4583752155304,307.4838111847639,307.4838111847639,307.4838111847639,307.4838111847639,310.4804681763053,310.4804681763053,310.4804681763053,310.4804681763053,None,,,,,,,,,,ST01_112822,2022-11-29_10h16.32.097,Hippopolis_Updating,2022.2.2,59.81045175703195,
Camponello,stimuli/subj_files/ST01_112822_cityB.csv,./stimuli/arnedillo.png,./stimuli/street_plate2.png,./stimuli/videos/camponello_part1.mp4,HORDÓ UTCA,stimuli/objects/065a.jpg,object,2,stimuli/scenes/016a.jpg,stimuli/scenes/016a.jpg,stimuli/objects/015a.jpg,stimuli/objects/015b.jpg,stimuli/scenes/016b.jpg,target,dist1,dist2,lure,0,0,0,0,0,44,44,44,,,,,,,312.46204913407564,313.4917138554156,313.4917138554156,313.4917138554156,313.4917138554156,316.50870009325445,316.50870009325445,316.50870009325445,316.50870009325445,space,,318.47161164693534,318.47161164693534,4.58593625575304,,,,,,ST01_112822,2022-11-29_10h16.32.097,Hippopolis_Updating,2022.2.2,59.81045175703195,
Camponello,stimuli/subj_files/ST01_112822_cityB.csv,./stimuli/arnedillo.png,./stimuli/street_plate2.png,./stimuli/videos/camponello_part1.mp4,FÉSŰ UTCA,stimuli/scenes/001a.jpg,scene,2,stimuli/objects/015a.jpg,stimuli/scenes/041a.jpg,stimuli/scenes/041b.jpg,stimuli/objects/015a.jpg,stimuli/objects/015b.jpg,dist1,dist2,target,lure,0,0,0,0,0,45,45,57,,,,,,,323.08953687362373,324.1168855316937,324.1168855316937,324.1168855316937,324.1168855316937,327.13721259869635,327.13721259869635,327.13721259869635,327.13721259869635,None,,,,,,,,,,ST01_112822,2022-11-29_10h16.32.097,Hippopolis_Updating,2022.2.2,59.81045175703195,
Camponello,stimuli/subj_files/ST01_112822_cityB.csv,./stimuli/arnedillo.png,./stimuli/street_plate2.png,./stimuli/videos/camponello_part1.mp4,HAJÓ UTCA,stimuli/scenes/037a.jpg,scene,0,stimuli/scenes/037a.jpg,stimuli/objects/028a.jpg,stimuli/scenes/037b.jpg,stimuli/scenes/037a.jpg,stimuli/objects/028b.jpg,dist1,lure,target,dist2,0,0,0,0,0,46,46,17,,,,,,,329.09021238051355,330.11489726789296,330.11489726789296,330.11489726789296,330.11489726789296,333.1196690388024,333.1196690388024,333.1196690388024,333.1196690388024,None,,,,,,,,,,ST01_112822,2022-11-29_10h16.32.097,Hippopolis_Updating,2022.2.2,59.81045175703195,
Camponello,stimuli/subj_files/ST01_112822_cityB.csv,./stimuli/arnedillo.png,./stimuli/street_plate2.png,./stimuli/videos/camponello_part1.mp4,LEGELŐ UTCA,stimuli/scenes/053a.jpg,scene,1,stimuli/scenes/119a.jpg,stimuli/scenes/119b.jpg,stimuli/scenes/089b.jpg,stimuli/scenes/089a.jpg,stimuli/scenes/119a.jpg,lure,dist2,dist1,target,0,0,0,0,0,47,47,77,,,,,,,335.1057997085154,336.13542959839106,336.13542959839106,336.13542959839106,336.13542959839106,339.1300802882761,339.1300802882761,339.1300802882761,339.1300802882761,None,,,,,,,,,,ST01_112822,2022-11-29_10h16.32.097,Hippopolis_Updating,2022.2.2,59.81045175703195,
Camponello,stimuli/subj_files/ST01_112822_cityB.csv,./stimuli/arnedillo.png,./stimuli/street_plate2.png,./stimuli/videos/camponello_part1.mp4,CSAVAR UTCA,stimuli/objects/049a.jpg,object,1,stimuli/objects/063a.jpg,stimuli/objects/113b.jpg,stimuli/objects/063b.jpg,stimuli/objects/063a.jpg,stimuli/objects/113a.jpg,dist2,lure,target,dist1,0,0,0,0,0,48,48,55,,,,,,,341.1164215095341,342.14835098199546,342.14835098199546,342.14835098199546,342.14835098199546,345.17648772895336,345.17648772895336,345.17648772895336,345.17648772895336,None,,,,,,,,,,ST01_112822,2022-11-29_10h16.32.097,Hippopolis_Updating,2022.2.2,59.81045175703195,
Camponello,stimuli/subj_files/ST01_112822_cityB.csv,./stimuli/arnedillo.png,./stimuli/street_plate2.png,./stimuli/videos/camponello_part1.mp4,TULIPÁN UTCA,stimuli/scenes/101a.jpg,scene,0,stimuli/scenes/101a.jpg,stimuli/objects/057b.jpg,stimuli/scenes/101b.jpg,stimuli/objects/057a.jpg,stimuli/scenes/101a.jpg,dist2,lure,dist1,target,0,0,0,0,0,49,49,79,,,,,,,347.13326966017485,348.16707014478743,348.16707014478743,348.16707014478743,348.16707014478743,351.17204655893147,351.17204655893147,351.17204655893147,351.17204655893147,None,,,,,,,,,,ST01_112822,2022-11-29_10h16.32.097,Hippopolis_Updating,2022.2.2,59.81045175703195,
Camponello,stimuli/subj_files/ST01_112822_cityB.csv,./stimuli/arnedillo.png,./stimuli/street_plate2.png,./stimuli/videos/camponello_part1.mp4,MOTOR UTCA,stimuli/objects/010a.jpg,object,0,stimuli/objects/010a.jpg,stimuli/scenes/054b.jpg,stimuli/objects/010a.jpg,stimuli/scenes/054a.jpg,stimuli/objects/010b.jpg,dist2,target,dist1,lure,0,0,0,0,0,50,50,54,,,,,,,353.136436637491,354.1662938725203,354.1662938725203,354.1662938725203,354.1662938725203,357.18050282262266,357.18050282262266,357.18050282262266,357.18050282262266,None,,,,,,,,,,ST01_112822,2022-11-29_10h16.32.097,Hippopolis_Updating,2022.2.2,59.81045175703195,
Camponello,stimuli/subj_files/ST01_112822_cityB.csv,./stimuli/arnedillo.png,./stimuli/street_plate2.png,./stimuli/videos/camponello_part1.mp4,BANÁN UTCA,stimuli/scenes/040a.jpg,scene,0,stimuli/scenes/040a.jpg,stimuli/scenes/039b.jpg,stimuli/scenes/040a.jpg,stimuli/scenes/040b.jpg,stimuli/scenes/039a.jpg,dist2,target,lure,dist1,0,0,0,0,0,51,51,29,,,,,,,359.1482716742903,360.1795399468392,360.1795399468392,360.1795399468392,360.1795399468392,363.16832039132714,363.16832039132714,363.16832039132714,363.16832039132714,None,,,,,,,,,,ST01_112822,2022-11-29_10h16.32.097,Hippopolis_Updating,2022.2.2,59.81045175703195,
Camponello,stimuli/subj_files/ST01_112822_cityB.csv,./stimuli/arnedillo.png,./stimuli/street_plate2.png,./stimuli/videos/camponello_part1.mp4,BÚJÓCSKA UTCA,stimuli/scenes/092a.jpg,scene,0,stimuli/scenes/092a.jpg,stimuli/scenes/092b.jpg,stimuli/scenes/106a.jpg,stimuli/scenes/092a.jpg,stimuli/scenes/106b.jpg,lure,dist1,target,dist2,0,0,0,0,0,52,52,61,,,,,,,365.1553778592497,366.1839711647481,366.1839711647481,366.1839711647481,366.1839711647481,369.19120828434825,369.19120828434825,369.19120828434825,369.19120828434825,None,,,,,,,,,,ST01_112822,2022-11-29_10h16.32.097,Hippopolis_Updating,2022.2.2,59.81045175703195,
Camponello,stimuli/subj_files/ST01_112822_cityB.csv,./stimuli/arnedillo.png,./stimuli/street_plate2.png,./stimuli/videos/camponello_part1.mp4,TISZTÁS UTCA,stimuli/scenes/054a.jpg,scene,0,stimuli/scenes/054a.jpg,stimuli/objects/019b.jpg,stimuli/scenes/054a.jpg,stimuli/scenes/054b.jpg,stimuli/objects/019a.jpg,dist2,target,lure,dist1,0,0,0,0,0,53,53,15,,,,,,,371.1691358499229,372.20175668783486,372.20175668783486,372.20175668783486,372.20175668783486,375.20089893229306,375.20089893229306,375.20089893229306,375.20089893229306,None,,,,,,,,,,ST01_112822,2022-11-29_10h16.32.097,Hippopolis_Updating,2022.2.2,59.81045175703195,
Camponello,stimuli/subj_files/ST01_112822_cityB.csv,./stimuli/arnedillo.png,./stimuli/street_plate2.png,./stimuli/videos/camponello_part1.mp4,LIGET UTCA,stimuli/scenes/085a.jpg,scene,0,stimuli/scenes/085a.jpg,stimuli/scenes/085b.jpg,stimuli/objects/074a.jpg,stimuli/objects/074b.jpg,stimuli/scenes/085a.jpg,lure,dist1,dist2,target,0,0,0,0,0,54,54,38,,,,,,,377.1802471745759,378.19999701343477,378.19999701343477,378.19999701343477,378.19999701343477,381.2158272396773,381.2158272396773,381.2158272396773,381.2158272396773,None,,,,,,,,,,ST01_112822,2022-11-29_10h16.32.097,Hippopolis_Updating,2022.2.2,59.81045175703195,
Camponello,stimuli/subj_files/ST01_112822_cityB.csv,./stimuli/arnedillo.png,./stimuli/street_plate2.png,./stimuli/videos/camponello_part1.mp4,LÉPCSŐ UTCA,stimuli/objects/060a.jpg,object,0,stimuli/objects/060a.jpg,stimuli/scenes/066b.jpg,stimuli/objects/060a.jpg,stimuli/objects/060b.jpg,stimuli/scenes/066a.jpg,dist2,target,lure,dist1,0,0,0,0,0,55,55,11,,,,,,,383.182186299935,384.21215332113206,384.21215332113206,384.21215332113206,384.21215332113206,387.2117950413376,387.2117950413376,387.2117950413376,387.2117950413376,None,,,,,,,,,,ST01_112822,2022-11-29_10h16.32.097,Hippopolis_Updating,2022.2.2,59.81045175703195,
Camponello,stimuli/subj_files/ST01_112822_cityB.csv,./stimuli/arnedillo.png,./stimuli/street_plate2.png,./stimuli/videos/camponello_part1.mp4,HORGONY UTCA,stimuli/objects/105a.jpg,object,0,stimuli/objects/105a.jpg,stimuli/objects/105a.jpg,stimuli/scenes/017a.jpg,stimuli/scenes/017b.jpg,stimuli/objects/105b.jpg,target,dist1,dist2,lure,0,0,0,0,0,56,56,75,,,,,,,389.18846489675343,390.21628566272557,390.21628566272557,390.21628566272557,390.21628566272557,393.2187186665833,393.2187186665833,393.2187186665833,393.2187186665833,None,,,,,,,,,,ST01_112822,2022-11-29_10h16.32.097,Hippopolis_Updating,2022.2.2,59.81045175703195,
Camponello,stimuli/subj_files/ST01_112822_cityB.csv,./stimuli/arnedillo.png,./stimuli/street_plate2.png,./stimuli/videos/camponello_part1.mp4,TOJÁS UTCA,stimuli/objects/012a.jpg,object,0,stimuli/objects/012a.jpg,stimuli/objects/011a.jpg,stimuli/objects/012a.jpg,stimuli/objects/012b.jpg,stimuli/objects/011b.jpg,dist1,target,lure,dist2,0,0,0,0,0,57,57,27,,,,,,,395.19110440835357,396.21579955890775,396.21579955890775,396.21579955890775,396.21579955890775,399.22338656149805,399.22338656149805,399.22338656149805,399.22338656149805,None,,,,,,,,,,ST01_112822,2022-11-29_10h16.32.097,Hippopolis_Updating,2022.2.2,59.81045175703195,
Camponello,stimuli/subj_files/ST01_112822_cityB.csv,./stimuli/arnedillo.png,./stimuli/street_plate2.png,./stimuli/videos/camponello_part1.mp4,BAGOLY UTCA,stimuli/objects/019a.jpg,object,0,stimuli/objects/019a.jpg,stimuli/objects/019a.jpg,stimuli/scenes/002a.jpg,stimuli/objects/019b.jpg,stimuli/scenes/002b.jpg,target,dist1,lure,dist2,0,0,0,0,0,58,58,41,,,,,,,401.1944632772356,402.21660382300615,402.21660382300615,402.21660382300615,402.21660382300615,405.2328542172909,405.2328542172909,405.2328542172909,405.2328542172909,None,,,,,,,,,,ST01_112822,2022-11-29_10h16.32.097,Hippopolis_Updating,2022.2.2,59.81045175703195,
Camponello,stimuli/subj_files/ST01_112822_cityB.csv,./stimuli/arnedillo.png,./stimuli/street_plate2.png,./stimuli/videos/camponello_part1.mp4,BONBON UTCA,stimuli/objects/041a.jpg,object,0,stimuli/objects/041a.jpg,stimuli/scenes/079a.jpg,stimuli/scenes/079b.jpg,stimuli/objects/041a.jpg,stimuli/objects/041b.jpg,dist1,dist2,target,lure,0,0,0,0,0,59,59,4,,,,,,,407.2027382235974,408.2358691133559,408.2358691133559,408.2358691133559,408.2358691133559,411.2458990700543,411.2458990700543,411.2458990700543,411.2458990700543,None,,,,,,,,,,ST01_112822,2022-11-29_10h16.32.097,Hippopolis_Updating,2022.2.2,59.81045175703195,
Camponello,stimuli/subj_files/ST01_112822_cityB.csv,./stimuli/arnedillo.png,./stimuli/street_plate2.png,./stimuli/videos/camponello_part1.mp4,PÁRNA UTCA,stimuli/scenes/004a.jpg,scene,0,stimuli/scenes/004a.jpg,stimuli/scenes/100b.jpg,stimuli/scenes/004b.jpg,stimuli/scenes/004a.jpg,stimuli/scenes/100a.jpg,dist2,lure,target,dist1,0,0,0,0,0,60,60,50,,,,,,,413.2144992426038,414.2372509147972,414.2372509147972,414.2372509147972,414.2372509147972,417.2401693984866,417.2401693984866,417.2401693984866,417.2401693984866,None,,,,,,,,,,ST01_112822,2022-11-29_10h16.32.097,Hippopolis_Updating,2022.2.2,59.81045175703195,
Camponello,stimuli/subj_files/ST01_112822_cityB.csv,./stimuli/arnedillo.png,./stimuli/street_plate2.png,./stimuli/videos/camponello_part1.mp4,PÁLMAFA UTCA,stimuli/scenes/015a.jpg,scene,1,stimuli/scenes/089a.jpg,stimuli/scenes/051b.jpg,stimuli/scenes/051a.jpg,stimuli/scenes/089b.jpg,stimuli/scenes/089a.jpg,dist2,dist1,lure,target,0,0,0,0,0,61,61,46,,,,,,,419.2308933213353,420.26542342826724,420.26542342826724,420.26542342826724,420.26542342826724,423.2773405723274,423.2773405723274,423.2773405723274,423.2773405723274,None,,,,,,,,,,ST01_112822,2022-11-29_10h16.32.097,Hippopolis_Updating,2022.2.2,59.81045175703195,
Camponello,stimuli/subj_files/ST01_112822_cityB.csv,./stimuli/arnedillo.png,./stimuli/street_plate2.png,./stimuli/videos/camponello_part1.mp4,MENTA UTCA,stimuli/scenes/106a.jpg,scene,0,stimuli/scenes/106a.jpg,stimuli/scenes/106a.jpg,stimuli/scenes/009a.jpg,stimuli/scenes/106b.jpg,stimuli/scenes/009b.jpg,target,dist1,lure,dist2,0,0,0,0,0,62,62,48,,,,,,,425.23703725263476,426.26339597813785,426.26339597813785,426.26339597813785,426.26339597813785,429.26704035140574,429.26704035140574,429.26704035140574,429.26704035140574,None,,,,,,,,,,ST01_112822,2022-11-29_10h16.32.097,Hippopolis_Updating,2022.2.2,59.81045175703195,
Camponello,stimuli/subj_files/ST01_112822_cityB.csv,./stimuli/arnedillo.png,./stimuli/street_plate2.png,./stimuli/videos/camponello_part1.mp4,SALÁTA UTCA,stimuli/objects/058a.jpg,object,1,stimuli/objects/001a.jpg,stimuli/objects/001a.jpg,stimuli/objects/007b.jpg,stimuli/objects/001b.jpg,stimuli/objects/007a.jpg,target,dist2,lure,dist1,0,0,0,0,0,63,63,5,,,,,,,431.25224204547703,432.28044721484184,432.28044721484184,432.28044721484184,432.28044721484184,435.31159823574126,435.31159823574126,435.31159823574126,435.31159823574126,None,,,,,,,,,,ST01_112822,2022-11-29_10h16.32.097,Hippopolis_Updating,2022.2.2,59.81045175703195,
Camponello,stimuli/subj_files/ST01_112822_cityB.csv,./stimuli/arnedillo.png,./stimuli/street_plate2.png,./stimuli/videos/camponello_part1.mp4,KAKAS UTCA,stimuli/scenes/028a.jpg,scene,2,stimuli/objects/037a.jpg,stimuli/objects/037a.jpg,stimuli/objects/037b.jpg,stimuli/objects/046b.jpg,stimuli/objects/046a.jpg,target,lure,dist2,dist1,0,0,0,0,0,64,64,45,,,,,,,437.25307367555797,438.2813052814454,438.2813052814454,438.2813052814454,438.2813052814454,441.30817187950015,441.30817187950015,441.30817187950015,441.30817187950015,None,,,,,,,,,,ST01_112822,2022-11-29_10h16.32.097,Hippopolis_Updating,2022.2.2,59.81045175703195,
Camponello,stimuli/subj_files/ST01_112822_cityB.csv,./stimuli/arnedillo.png,./stimuli/street_plate2.png,./stimuli/videos/camponello_part1.mp4,TERÍTŐ UTCA,stimuli/scenes/021a.jpg,scene,1,stimuli/scenes/051a.jpg,stimuli/scenes/003b.jpg,stimuli/scenes/051b.jpg,stimuli/scenes/003a.jpg,stimuli/scenes/051a.jpg,dist2,lure,dist1,target,0,0,0,0,0,65,65,42,,,,,,,443.2622213065624,444.28786689415574,444.28786689415574,444.28786689415574,444.28786689415574,447.2935150805861,447.2935150805861,447.2935150805861,447.2935150805861,None,,,,,,,,,,ST01_112822,2022-11-29_10h16.32.097,Hippopolis_Updating,2022.2.2,59.81045175703195,
Camponello,stimuli/subj_files/ST01_112822_cityB.csv,./stimuli/arnedillo.png,./stimuli/street_plate2.png,./stimuli/videos/camponello_part1.mp4,ECSET UTCA,stimuli/objects/100a.jpg,object,2,stimuli/scenes/019a.jpg,stimuli/scenes/087b.jpg,stimuli/scenes/087a.jpg,stimuli/scenes/019a.jpg,stimuli/scenes/019b.jpg,dist2,dist1,target,lure,0,0,0,0,0,66,66,60,,,,,,,449.2686694022268,450.29824020154774,450.29824020154774,450.29824020154774,450.29824020154774,453.28878747299314,453.28878747299314,453.28878747299314,453.28878747299314,None,,,,,,,,,,ST01_112822,2022-11-29_10h16.32.097,Hippopolis_Updating,2022.2.2,59.81045175703195,
Camponello,stimuli/subj_files/ST01_112822_cityB.csv,./stimuli/arnedillo.png,./stimuli/street_plate2.png,./stimuli/videos/camponello_part1.mp4,SÜTŐ UTCA,stimuli/objects/094a.jpg,object,0,stimuli/objects/094a.jpg,stimuli/objects/025a.jpg,stimuli/objects/025b.jpg,stimuli/objects/094b.jpg,stimuli/objects/094a.jpg,dist1,dist2,lure,target,0,0,0,0,0,67,67,71,,,,,,,455.284436494112,456.30562318116426,456.30562318116426,456.30562318116426,456.30562318116426,459.3163389079273,459.3163389079273,459.3163389079273,459.3163389079273,None,,,,,,,,,,ST01_112822,2022-11-29_10h16.32.097,Hippopolis_Updating,2022.2.2,59.81045175703195,
Camponello,stimuli/subj_files/ST01_112822_cityB.csv,./stimuli/arnedillo.png,./stimuli/street_plate2.png,./stimuli/videos/camponello_part1.mp4,ZSEMLE UTCA,stimuli/objects/011a.jpg,object,0,stimuli/objects/011a.jpg,stimuli/scenes/014b.jpg,stimuli/scenes/014a.jpg,stimuli/objects/011b.jpg,stimuli/objects/011a.jpg,dist2,dist1,lure,target,0,0,0,0,0,68,68,12,,,,,,,461.2894436959177,462.31470736674964,462.31470736674964,462.31470736674964,462.31470736674964,465.31948815844953,465.31948815844953,465.31948815844953,465.31948815844953,None,,,,,,,,,,ST01_112822,2022-11-29_10h16.32.097,Hippopolis_Updating,2022.2.2,59.81045175703195,
Camponello,stimuli/subj_files/ST01_112822_cityB.csv,./stimuli/arnedillo.png,./stimuli/street_plate2.png,./stimuli/videos/camponello_part1.mp4,PADLÓ UTCA,stimuli/objects/026a.jpg,object,0,stimuli/objects/026a.jpg,stimuli/objects/026b.jpg,stimuli/scenes/025a.jpg,stimuli/objects/026a.jpg,stimuli/scenes/025b.jpg,lure,dist1,target,dist2,0,0,0,0,0,69,69,37,,,,,,,467.29386682994664,468.31618900224566,468.31618900224566,468.31618900224566,468.31618900224566,471.3335630632937,471.3335630632937,471.3335630632937,471.3335630632937,None,,,,,,,,,,ST01_112822,2022-11-29_10h16.32.097,Hippopolis_Updating,2022.2.2,59.81045175703195,
Camponello,stimuli/subj_files/ST01_112822_cityB.csv,./stimuli/arnedillo.png,./stimuli/street_plate2.png,./stimuli/videos/camponello_part1.mp4,TÁSKA UTCA,stimuli/scenes/100a.jpg,scene,0,stimuli/scenes/100a.jpg,stimuli/objects/038b.jpg,stimuli/scenes/100a.jpg,stimuli/objects/038a.jpg,stimuli/scenes/100b.jpg,dist2,target,dist1,lure,0,0,0,0,0,70,70,56,,,,,,,473.31067765690386,474.3302937634289,474.3302937634289,474.3302937634289,474.3302937634289,477.34045123308897,477.34045123308897,477.34045123308897,477.34045123308897,None,,,,,,,,,,ST01_112822,2022-11-29_10h16.32.097,Hippopolis_Updating,2022.2.2,59.81045175703195,
Camponello,stimuli/subj_files/ST01_112822_cityB.csv,./stimuli/arnedillo.png,./stimuli/street_plate2.png,./stimuli/videos/camponello_part1.mp4,KERET UTCA,stimuli/scenes/012a.jpg,scene,0,stimuli/scenes/012a.jpg,stimuli/scenes/012a.jpg,stimuli/scenes/011b.jpg,stimuli/scenes/011a.jpg,stimuli/scenes/012b.jpg,target,dist2,dist1,lure,0,0,0,0,0,71,71,2,,,,,,,479.3204756025225,480.34789486043155,480.34789486043155,480.34789486043155,480.34789486043155,483.3370684161782,483.3370684161782,483.3370684161782,483.3370684161782,None,,,,,,,,,,ST01_112822,2022-11-29_10h16.32.097,Hippopolis_Updating,2022.2.2,59.81045175703195,
Camponello,stimuli/subj_files/ST01_112822_cityB.csv,./stimuli/arnedillo.png,./stimuli/street_plate2.png,./stimuli/videos/camponello_part1.mp4,KÖNYVTÁR UTCA,stimuli/objects/099a.jpg,object,0,stimuli/objects/099a.jpg,stimuli/objects/099a.jpg,stimuli/objects/026a.jpg,stimuli/objects/026b.jpg,stimuli/objects/099b.jpg,target,dist1,dist2,lure,0,0,0,0,0,72,72,52,,,,,,,485.32966242171824,486.35087367892265,486.35087367892265,486.35087367892265,486.35087367892265,489.360986052081,489.360986052081,489.360986052081,489.360986052081,None,486.35087367892265,,,,,,,,,ST01_112822,2022-11-29_10h16.32.097,Hippopolis_Updating,2022.2.2,59.81045175703195,
Camponello,stimuli/subj_files/ST01_112822_cityB.csv,./stimuli/arnedillo.png,./stimuli/street_plate2.png,./stimuli/videos/camponello_part1.mp4,FÜGE UTCA,stimuli/objects/045a.jpg,object,0,stimuli/objects/045a.jpg,stimuli/objects/054b.jpg,stimuli/objects/045b.jpg,stimuli/objects/045a.jpg,stimuli/objects/054a.jpg,dist2,lure,target,dist1,0,0,0,0,0,73,73,74,,,,,,,491.3428428713232,492.3637720476836,492.3637720476836,492.3637720476836,492.3637720476836,495.3778068330139,495.3778068330139,495.3778068330139,495.3778068330139,None,,,,,,,,,,ST01_112822,2022-11-29_10h16.32.097,Hippopolis_Updating,2022.2.2,59.81045175703195,
Camponello,stimuli/subj_files/ST01_112822_cityB.csv,./stimuli/arnedillo.png,./stimuli/street_plate2.png,./stimuli/videos/camponello_part1.mp4,RÁDIÓ UTCA,stimuli/scenes/115a.jpg,scene,0,stimuli/scenes/115a.jpg,stimuli/scenes/037a.jpg,stimuli/scenes/037b.jpg,stimuli/scenes/115a.jpg,stimuli/scenes/115b.jpg,dist1,dist2,target,lure,0,0,0,0,0,74,74,6,,,,,,,497.36030308157206,498.3799745477736,498.3799745477736,498.3799745477736,498.3799745477736,501.4024093039334,501.4024093039334,501.4024093039334,501.4024093039334,None,,,,,,,,,,ST01_112822,2022-11-29_10h16.32.097,Hippopolis_Updating,2022.2.2,59.81045175703195,
Camponello,stimuli/subj_files/ST01_112822_cityB.csv,./stimuli/arnedillo.png,./stimuli/street_plate2.png,./stimuli/videos/camponello_part1.mp4,KRÉTA UTCA,stimuli/scenes/066a.jpg,scene,0,stimuli/scenes/066a.jpg,stimuli/objects/094a.jpg,stimuli/scenes/066b.jpg,stimuli/objects/094b.jpg,stimuli/scenes/066a.jpg,dist1,lure,dist2,target,0,0,0,0,0,75,75,22,,,,,,,503.36194986104965,504.383687030524,504.383687030524,504.383687030524,504.383687030524,507.39114807359874,507.39114807359874,507.39114807359874,507.39114807359874,None,,,,,,,,,,ST01_112822,2022-11-29_10h16.32.097,Hippopolis_Updating,2022.2.2,59.81045175703195,
Camponello,stimuli/subj_files/ST01_112822_cityB.csv,./stimuli/arnedillo.png,./stimuli/street_plate2.png,./stimuli/videos/camponello_part1.mp4,OROSZLÁN UTCA,stimuli/objects/078a.jpg,object,0,stimuli/objects/078a.jpg,stimuli/scenes/104b.jpg,stimuli/scenes/104a.jpg,stimuli/objects/078a.jpg,stimuli/objects/078b.jpg,dist2,dist1,target,lure,0,0,0,0,0,76,76,0,,,,,,,509.3680617585778,510.39545768871903,510.39545768871903,510.39545768871903,510.39545768871903,513.388873372227,513.388873372227,513.388873372227,513.388873372227,None,,,,,,,,,,ST01_112822,2022-11-29_10h16.32.097,Hippopolis_Updating,2022.2.2,59.81045175703195,
Camponello,stimuli/subj_files/ST01_112822_cityB.csv,./stimuli/arnedillo.png,./stimuli/street_plate2.png,./stimuli/videos/camponello_part1.mp4,POLIP UTCA,stimuli/objects/025a.jpg,object,0,stimuli/objects/025a.jpg,stimuli/objects/025b.jpg,stimuli/objects/025a.jpg,stimuli/scenes/040b.jpg,stimuli/scenes/040a.jpg,lure,target,dist2,dist1,0,0,0,0,0,77,77,25,,,,,,,515.3784552812576,516.3997194096446,516.3997194096446,516.3997194096446,516.3997194096446,519.4118446167558,519.4118446167558,519.4118446167558,519.4118446167558,None,,,,,,,,,,ST01_112822,2022-11-29_10h16.32.097,Hippopolis_Updating,2022.2.2,59.81045175703195,
Camponello,stimuli/subj_files/ST01_112822_cityB.csv,./stimuli/arnedillo.png,./stimuli/street_plate2.png,./stimuli/videos/camponello_part1.mp4,TELEP UTCA,stimuli/scenes/009a.jpg,scene,0,stimuli/scenes/009a.jpg,stimuli/scenes/009b.jpg,stimuli/scenes/009a.jpg,stimuli/objects/003b.jpg,stimuli/objects/003a.jpg,lure,target,dist2,dist1,0,0,0,0,0,78,78,13,,,,,,,521.3788707852364,522.3993704598397,522.3993704598397,522.3993704598397,522.3993704598397,525.4115423168987,525.4115423168987,525.4115423168987,525.4115423168987,None,522.3993704598397,,,,,,,,,ST01_112822,2022-11-29_10h16.32.097,Hippopolis_Updating,2022.2.2,59.81045175703195,
Camponello,stimuli/subj_files/ST01_112822_cityB.csv,./stimuli/arnedillo.png,./stimuli/street_plate2.png,./stimuli/videos/camponello_part1.mp4,TOLMÁCS UTCA,stimuli/objects/111a.jpg,object,1,stimuli/objects/110a.jpg,stimuli/scenes/119a.jpg,stimuli/scenes/119b.jpg,stimuli/objects/110a.jpg,stimuli/objects/110b.jpg,dist1,dist2,target,lure,0,0,0,0,0,79,79,28,,,,,,,527.3860158454627,528.4142091982067,528.4142091982067,528.4142091982067,528.4142091982067,531.4240149185061,531.4240149185061,531.4240149185061,531.4240149185061,None,,,,,,,,,,ST01_112822,2022-11-29_10h16.32.097,Hippopolis_Updating,2022.2.2,59.81045175703195,
Hippopolis,stimuli/subj_files/ST01_112822_cityA.csv,./stimuli/seattle.jpg,./stimuli/street_plate1.png,./stimuli/videos/hippopolis_part1.mp4,MOGYORÓ UTCA,stimuli/objects/053a.jpg,object,1,stimuli/objects/032a.jpg,stimuli/objects/032a.jpg,stimuli/objects/032b.jpg,stimuli/objects/022b.jpg,stimuli/objects/022a.jpg,target,lure,dist2,dist1,0,1,1,1,0,0,0,45,,,,,541.0042321737856,541.0042321737856,543.996865676716,544.9757781997323,544.9757781997323,544.9757781997323,544.9757781997323,547.9900070540607,547.9900070540607,547.9900070540607,547.9900070540607,None,,,,,533.3932896628976,533.3932896628976,space,7.533753424882889,,ST01_112822,2022-11-29_10h16.32.097,Hippopolis_Updating,2022.2.2,59.81045175703195,
Hippopolis,stimuli/subj_files/ST01_112822_cityA.csv,./stimuli/seattle.jpg,./stimuli/street_plate1.png,./stimuli/videos/hippopolis_part1.mp4,KOCSI UTCA,stimuli/objects/117a.jpg,object,1,stimuli/objects/006a.jpg,stimuli/objects/006a.jpg,stimuli/objects/006b.jpg,stimuli/objects/017a.jpg,stimuli/objects/017b.jpg,target,lure,dist1,dist2,0,1,1,1,0,1,1,46,,,,,,,549.9665562380105,550.995670478791,550.995670478791,550.995670478791,550.995670478791,553.9912398830056,553.9912398830056,553.9912398830056,553.9912398830056,None,,,,,,,,,,ST01_112822,2022-11-29_10h16.32.097,Hippopolis_Updating,2022.2.2,59.81045175703195,
Hippopolis,stimuli/subj_files/ST01_112822_cityA.csv,./stimuli/seattle.jpg,./stimuli/street_plate1.png,./stimuli/videos/hippopolis_part1.mp4,ORVOS UTCA,stimuli/objects/004a.jpg,object,2,stimuli/scenes/038a.jpg,stimuli/objects/068b.jpg,stimuli/objects/068a.jpg,stimuli/scenes/038a.jpg,stimuli/scenes/038b.jpg,dist2,dist1,target,lure,0,1,1,1,0,2,2,6,,,,,,,555.9758114777505,556.9978845342994,556.9978845342994,556.9978845342994,556.9978845342994,560.0056180190295,560.0056180190295,560.0056180190295,560.0056180190295,None,,,,,,,,,,ST01_112822,2022-11-29_10h16.32.097,Hippopolis_Updating,2022.2.2,59.81045175703195,
Hippopolis,stimuli/subj_files/ST01_112822_cityA.csv,./stimuli/seattle.jpg,./stimuli/street_plate1.png,./stimuli/videos/hippopolis_part1.mp4,PALACK UTCA,stimuli/scenes/057a.jpg,scene,0,stimuli/scenes/057a.jpg,stimuli/scenes/057b.jpg,stimuli/objects/044a.jpg,stimuli/objects/044b.jpg,stimuli/scenes/057a.jpg,lure,dist1,dist2,target,0,1,1,1,0,3,3,61,,,,,,,561.9796063769609,563.006418550387,563.006418550387,563.006418550387,563.006418550387,566.0031215716153,566.0031215716153,566.0031215716153,566.0031215716153,None,,,,,,,,,,ST01_112822,2022-11-29_10h16.32.097,Hippopolis_Updating,2022.2.2,59.81045175703195,
Hippopolis,stimuli/subj_files/ST01_112822_cityA.csv,./stimuli/seattle.jpg,./stimuli/street_plate1.png,./stimuli/videos/hippopolis_part1.mp4,TELEFON UTCA,stimuli/scenes/047a.jpg,scene,0,stimuli/scenes/047a.jpg,stimuli/scenes/047b.jpg,stimuli/scenes/047a.jpg,stimuli/objects/056a.jpg,stimuli/objects/056b.jpg,lure,target,dist1,dist2,0,1,1,1,0,4,4,56,,,,,,,567.9849124569446,569.0111274980009,569.0111274980009,569.0111274980009,569.0111274980009,572.0095765087754,572.0095765087754,572.0095765087754,572.0095765087754,None,,,,,,,,,,ST01_112822,2022-11-29_10h16.32.097,Hippopolis_Updating,2022.2.2,59.81045175703195,
Hippopolis,stimuli/subj_files/ST01_112822_cityA.csv,./stimuli/seattle.jpg,./stimuli/street_plate1.png,./stimuli/videos/hippopolis_part1.mp4,KARTON UTCA,stimuli/scenes/064a.jpg,scene,1,stimuli/scenes/091a.jpg,stimuli/objects/048b.jpg,stimuli/scenes/091b.jpg,stimuli/scenes/091a.jpg,stimuli/objects/048a.jpg,dist2,lure,target,dist1,0,1,1,1,0,5,5,31,,,,,,,574.0010636411607,575.0290694553405,575.0290694553405,575.0290694553405,575.0290694553405,578.0430019199848,578.0430019199848,578.0430019199848,578.0430019199848,None,,,,,,,,,,ST01_112822,2022-11-29_10h16.32.097,Hippopolis_Updating,2022.2.2,59.81045175703195,
Hippopolis,stimuli/subj_files/ST01_112822_cityA.csv,./stimuli/seattle.jpg,./stimuli/street_plate1.png,./stimuli/videos/hippopolis_part1.mp4,ÁRNYÉK UTCA,stimuli/objects/097a.jpg,object,2,stimuli/scenes/072a.jpg,stimuli/objects/083a.jpg,stimuli/objects/083b.jpg,stimuli/scenes/072b.jpg,stimuli/scenes/072a.jpg,dist1,dist2,lure,target,0,1,1,1,0,6,6,10,,,,,,,580.0117541756481,581.0315758567303,581.0315758567303,581.0315758567303,581.0315758567303,584.0421376340091,584.0421376340091,584.0421376340091,584.0421376340091,None,,,,,,,,,,ST01_112822,2022-11-29_10h16.32.097,Hippopolis_Updating,2022.2.2,59.81045175703195,
Hippopolis,stimuli/subj_files/ST01_112822_cityA.csv,./stimuli/seattle.jpg,./stimuli/street_plate1.png,./stimuli/videos/hippopolis_part1.mp4,BOLYGÓ UTCA,stimuli/objects/070a.jpg,object,1,stimuli/objects/071a.jpg,stimuli/objects/084a.jpg,stimuli/objects/071b.jpg,stimuli/objects/084b.jpg,stimuli/objects/071a.jpg,dist1,lure,dist2,target,0,1,1,1,0,7,7,11,,,,,,,586.0170173365623,587.0452169086784,587.0452169086784,587.0452169086784,587.0452169086784,590.0624880250543,590.0624880250543,590.0624880250543,590.0624880250543,None,,,,,,,,,,ST01_112822,2022-11-29_10h16.32.097,Hippopolis_Updating,2022.2.2,59.81045175703195,
Hippopolis,stimuli/subj_files/ST01_112822_cityA.csv,./stimuli/seattle.jpg,./stimuli/street_plate1.png,./stimuli/videos/hippopolis_part1.mp4,MOSODA UTCA,stimuli/scenes/076a.jpg,scene,0,stimuli/scenes/076a.jpg,stimuli/scenes/076a.jpg,stimuli/scenes/026a.jpg,stimuli/scenes/026b.jpg,stimuli/scenes/076b.jpg,target,dist1,dist2,lure,0,1,1,1,0,8,8,75,,,,,,,592.0188783984631,593.0453086551279,593.0453086551279,593.0453086551279,593.0453086551279,596.0382967051119,596.0382967051119,596.0382967051119,596.0382967051119,None,,,,,,,,,,ST01_112822,2022-11-29_10h16.32.097,Hippopolis_Updating,2022.2.2,59.81045175703195,
Hippopolis,stimuli/subj_files/ST01_112822_cityA.csv,./stimuli/seattle.jpg,./stimuli/street_plate1.png,./stimuli/videos/hippopolis_part1.mp4,SZOMSZÉD UTCA,stimuli/scenes/075a.jpg,scene,1,stimuli/scenes/059a.jpg,stimuli/scenes/027b.jpg,stimuli/scenes/027a.jpg,stimuli/scenes/059b.jpg,stimuli/scenes/059a.jpg,dist2,dist1,lure,target,0,1,1,1,0,9,9,39,,,,,,,598.0239698849618,599.0452162865549,599.0452162865549,599.0452162865549,599.0452162865549,602.0563997644931,602.0563997644931,602.0563997644931,602.0563997644931,None,,,,,,,,,,ST01_112822,2022-11-29_10h16.32.097,Hippopolis_Updating,2022.2.2,59.81045175703195,
Hippopolis,stimuli/subj_files/ST01_112822_cityA.csv,./stimuli/seattle.jpg,./stimuli/street_plate1.png,./stimuli/videos/hippopolis_part1.mp4,SZÖCSKE UTCA,stimuli/objects/090a.jpg,object,0,stimuli/objects/090a.jpg,stimuli/objects/023b.jpg,stimuli/objects/023a.jpg,stimuli/objects/090b.jpg,stimuli/objects/090a.jpg,dist2,dist1,lure,target,0,1,1,1,0,10,10,28,,,,,,,604.0333930663764,605.0649088993669,605.0649088993669,605.0649088993669,605.0649088993669,608.0592588465661,608.0592588465661,608.0592588465661,608.0592588465661,None,,,,,,,,,,ST01_112822,2022-11-29_10h16.32.097,Hippopolis_Updating,2022.2.2,59.81045175703195,
Hippopolis,stimuli/subj_files/ST01_112822_cityA.csv,./stimuli/seattle.jpg,./stimuli/street_plate1.png,./stimuli/videos/hippopolis_part1.mp4,PAPRIKA UTCA,stimuli/objects/039a.jpg,object,0,stimuli/objects/039a.jpg,stimuli/objects/039b.jpg,stimuli/objects/039a.jpg,stimuli/scenes/056a.jpg,stimuli/scenes/056b.jpg,lure,target,dist1,dist2,0,1,1,1,0,11,11,8,,,,,,,610.045484373346,611.0773945618421,611.0773945618421,611.0773945618421,611.0773945618421,614.0902179777622,614.0902179777622,614.0902179777622,614.0902179777622,None,,,,,,,,,,ST01_112822,2022-11-29_10h16.32.097,Hippopolis_Updating,2022.2.2,59.81045175703195,
Hippopolis,stimuli/subj_files/ST01_112822_cityA.csv,./stimuli/seattle.jpg,./stimuli/street_plate1.png,./stimuli/videos/hippopolis_part1.mp4,VITORLA UTCA,stimuli/objects/044a.jpg,object,0,stimuli/objects/044a.jpg,stimuli/scenes/031a.jpg,stimuli/objects/044b.jpg,stimuli/objects/044a.jpg,stimuli/scenes/031b.jpg,dist1,lure,target,dist2,0,1,1,1,0,12,12,47,,,,,,,616.0604947861284,617.0818074326962,617.0818074326962,617.0818074326962,617.0818074326962,620.0834116023034,620.0834116023034,620.0834116023034,620.0834116023034,None,,,,,,,,,,ST01_112822,2022-11-29_10h16.32.097,Hippopolis_Updating,2022.2.2,59.81045175703195,
Hippopolis,stimuli/subj_files/ST01_112822_cityA.csv,./stimuli/seattle.jpg,./stimuli/street_plate1.png,./stimuli/videos/hippopolis_part1.mp4,AKÁC UTCA,stimuli/scenes/031a.jpg,scene,0,stimuli/scenes/031a.jpg,stimuli/scenes/031a.jpg,stimuli/objects/020b.jpg,stimuli/objects/020a.jpg,stimuli/scenes/031b.jpg,target,dist2,dist1,lure,0,1,1,1,0,13,13,15,,,,,,,622.0630739610642,623.098760701716,623.098760701716,623.098760701716,623.098760701716,626.1014061216265,626.1014061216265,626.1014061216265,626.1014061216265,None,,,,,,,,,,ST01_112822,2022-11-29_10h16.32.097,Hippopolis_Updating,2022.2.2,59.81045175703195,
Hippopolis,stimuli/subj_files/ST01_112822_cityA.csv,./stimuli/seattle.jpg,./stimuli/street_plate1.png,./stimuli/videos/hippopolis_part1.mp4,HÁRFA UTCA,stimuli/scenes/097a.jpg,scene,2,stimuli/objects/106a.jpg,stimuli/objects/106b.jpg,stimuli/objects/106a.jpg,stimuli/objects/002a.jpg,stimuli/objects/002b.jpg,lure,target,dist1,dist2,0,1,1,1,0,14,14,62,,,,,,,628.0760563015938,629.0989513490349,629.0989513490349,629.0989513490349,629.0989513490349,632.1198494229466,632.1198494229466,632.1198494229466,632.1198494229466,None,,,,,,,,,,ST01_112822,2022-11-29_10h16.32.097,Hippopolis_Updating,2022.2.2,59.81045175703195,
Hippopolis,stimuli/subj_files/ST01_112822_cityA.csv,./stimuli/seattle.jpg,./stimuli/street_plate1.png,./stimuli/videos/hippopolis_part1.mp4,HEGESZTŐ UTCA,stimuli/objects/034a.jpg,object,1,stimuli/objects/116a.jpg,stimuli/objects/108b.jpg,stimuli/objects/116b.jpg,stimuli/objects/116a.jpg,stimuli/objects/108a.jpg,dist2,lure,target,dist1,0,1,1,1,0,15,15,26,,,,,,,634.0921981558204,635.1125917769969,635.1125917769969,635.1125917769969,635.1125917769969,638.1175464205444,638.1175464205444,638.1175464205444,638.1175464205444,None,,,,,,,,,,ST01_112822,2022-11-29_10h16.32.097,Hippopolis_Updating,2022.2.2,59.81045175703195,
Hippopolis,stimuli/subj_files/ST01_112822_cityA.csv,./stimuli/seattle.jpg,./stimuli/street_plate1.png,./stimuli/videos/hippopolis_part1.mp4,ÜVEG UTCA,stimuli/scenes/111a.jpg,scene,1,stimuli/scenes/077a.jpg,stimuli/scenes/077b.jpg,stimuli/objects/115b.jpg,stimuli/scenes/077a.jpg,stimuli/objects/115a.jpg,lure,dist2,target,dist1,0,1,1,1,0,16,16,49,,,,,,,640.1027232334018,641.1307750772685,641.1307750772685,641.1307750772685,641.1307750772685,644.1227041501552,644.1227041501552,644.1227041501552,644.1227041501552,None,,,,,,,,,,ST01_112822,2022-11-29_10h16.32.097,Hippopolis_Updating,2022.2.2,59.81045175703195,
Hippopolis,stimuli/subj_files/ST01_112822_cityA.csv,./stimuli/seattle.jpg,./stimuli/street_plate1.png,./stimuli/videos/hippopolis_part1.mp4,PAPUCS UTCA,stimuli/scenes/070a.jpg,scene,1,stimuli/scenes/062a.jpg,stimuli/scenes/062a.jpg,stimuli/scenes/084b.jpg,stimuli/scenes/084a.jpg,stimuli/scenes/062b.jpg,target,dist2,dist1,lure,0,1,1,1,0,17,17,34,,,,,,,646.1099137011915,647.128878870979,647.128878870979,647.128878870979,647.128878870979,650.1376557834446,650.1376557834446,650.1376557834446,650.1376557834446,None,,,,,,,,,,ST01_112822,2022-11-29_10h16.32.097,Hippopolis_Updating,2022.2.2,59.81045175703195,
Hippopolis,stimuli/subj_files/ST01_112822_cityA.csv,./stimuli/seattle.jpg,./stimuli/street_plate1.png,./stimuli/videos/hippopolis_part1.mp4,TOBOZ UTCA,stimuli/scenes/096a.jpg,scene,2,stimuli/objects/076a.jpg,stimuli/objects/076a.jpg,stimuli/objects/076b.jpg,stimuli/scenes/074a.jpg,stimuli/scenes/074b.jpg,target,lure,dist1,dist2,0,1,1,1,0,18,18,5,,,,,,,652.1104962173849,653.1280167624354,653.1280167624354,653.1280167624354,653.1280167624354,656.1492718718946,656.1492718718946,656.1492718718946,656.1492718718946,None,653.1280167624354,,,,,,,,,ST01_112822,2022-11-29_10h16.32.097,Hippopolis_Updating,2022.2.2,59.81045175703195,
Hippopolis,stimuli/subj_files/ST01_112822_cityA.csv,./stimuli/seattle.jpg,./stimuli/street_plate1.png,./stimuli/videos/hippopolis_part1.mp4,VÁSÁR UTCA,stimuli/objects/043a.jpg,object,1,stimuli/objects/108a.jpg,stimuli/objects/108b.jpg,stimuli/objects/108a.jpg,stimuli/scenes/081a.jpg,stimuli/scenes/081b.jpg,lure,target,dist1,dist2,0,1,1,1,0,19,19,50,,,,,,,658.1160930879414,659.1446086410433,659.1446086410433,659.1446086410433,659.1446086410433,662.1647811383009,662.1647811383009,662.1647811383009,662.1647811383009,None,,,,,,,,,,ST01_112822,2022-11-29_10h16.32.097,Hippopolis_Updating,2022.2.2,59.81045175703195,
Hippopolis,stimuli/subj_files/ST01_112822_cityA.csv,./stimuli/seattle.jpg,./stimuli/street_plate1.png,./stimuli/videos/hippopolis_part1.mp4,LÁNDZSA UTCA,stimuli/scenes/045a.jpg,scene,2,stimuli/objects/068a.jpg,stimuli/scenes/072a.jpg,stimuli/objects/068a.jpg,stimuli/objects/068b.jpg,stimuli/scenes/072b.jpg,dist1,target,lure,dist2,0,1,1,1,0,20,20,40,,,,,,,664.1217972561717,665.1427842788398,665.1427842788398,665.1427842788398,665.1427842788398,668.1668241396546,668.1668241396546,668.1668241396546,668.1668241396546,None,,,,,,,,,,ST01_112822,2022-11-29_10h16.32.097,Hippopolis_Updating,2022.2.2,59.81045175703195,
Hippopolis,stimuli/subj_files/ST01_112822_cityA.csv,./stimuli/seattle.jpg,./stimuli/street_plate1.png,./stimuli/videos/hippopolis_part1.mp4,SUGÁR UTCA,stimuli/scenes/069a.jpg,scene,0,stimuli/scenes/069a.jpg,stimuli/scenes/069b.jpg,stimuli/objects/089a.jpg,stimuli/scenes/069a.jpg,stimuli/objects/089b.jpg,lure,dist1,target,dist2,0,1,1,1,0,21,21,72,,,,,,,670.1278214491904,671.1455295309424,671.1455295309424,671.1455295309424,671.1455295309424,674.1572271045297,674.1572271045297,674.1572271045297,674.1572271045297,None,671.1455295309424,,,,,,,,,ST01_112822,2022-11-29_10h16.32.097,Hippopolis_Updating,2022.2.2,59.81045175703195,
Hippopolis,stimuli/subj_files/ST01_112822_cityA.csv,./stimuli/seattle.jpg,./stimuli/street_plate1.png,./stimuli/videos/hippopolis_part1.mp4,MAJOM UTCA,stimuli/objects/018a.jpg,object,2,stimuli/scenes/010a.jpg,stimuli/objects/119a.jpg,stimuli/objects/119b.jpg,stimuli/scenes/010b.jpg,stimuli/scenes/010a.jpg,dist1,dist2,lure,target,0,1,1,1,0,22,22,73,,,,,,,676.1344266030937,677.161827199161,677.161827199161,677.161827199161,677.161827199161,680.1809671539813,680.1809671539813,680.1809671539813,680.1809671539813,None,,,,,,,,,,ST01_112822,2022-11-29_10h16.32.097,Hippopolis_Updating,2022.2.2,59.81045175703195,
Hippopolis,stimuli/subj_files/ST01_112822_cityA.csv,./stimuli/seattle.jpg,./stimuli/street_plate1.png,./stimuli/videos/hippopolis_part1.mp4,SZAXOFON UTCA,stimuli/scenes/044a.jpg,scene,1,stimuli/scenes/102a.jpg,stimuli/scenes/102b.jpg,stimuli/objects/116a.jpg,stimuli/objects/116b.jpg,stimuli/scenes/102a.jpg,lure,dist1,dist2,target,0,1,1,1,0,23,23,21,,,,,,,682.1379378661513,683.1616804040968,683.1616804040968,683.1616804040968,683.1616804040968,686.1810103841126,686.1810103841126,686.1810103841126,686.1810103841126,None,,,,,,,,,,ST01_112822,2022-11-29_10h16.32.097,Hippopolis_Updating,2022.2.2,59.81045175703195,
Hippopolis,stimuli/subj_files/ST01_112822_cityA.csv,./stimuli/seattle.jpg,./stimuli/street_plate1.png,./stimuli/videos/hippopolis_part1.mp4,OLDAL UTCA,stimuli/objects/081a.jpg,object,2,stimuli/scenes/060a.jpg,stimuli/scenes/060a.jpg,stimuli/scenes/067b.jpg,stimuli/scenes/067a.jpg,stimuli/scenes/060b.jpg,target,dist2,dist1,lure,0,1,1,1,0,24,24,48,,,,,,,688.1539385225624,689.1773569919169,689.1773569919169,689.1773569919169,689.1773569919169,692.200720725581,692.200720725581,692.200720725581,692.200720725581,None,,,,,,,,,,ST01_112822,2022-11-29_10h16.32.097,Hippopolis_Updating,2022.2.2,59.81045175703195,
Hippopolis,stimuli/subj_files/ST01_112822_cityA.csv,./stimuli/seattle.jpg,./stimuli/street_plate1.png,./stimuli/videos/hippopolis_part1.mp4,HARMONIKA UTCA,stimuli/objects/029a.jpg,object,0,stimuli/objects/029a.jpg,stimuli/objects/029b.jpg,stimuli/objects/029a.jpg,stimuli/scenes/005b.jpg,stimuli/scenes/005a.jpg,lure,target,dist2,dist1,0,1,1,1,0,25,25,63,,,,,,,694.1578662227839,695.1786150131375,695.1786150131375,695.1786150131375,695.1786150131375,698.198074683547,698.198074683547,698.198074683547,698.198074683547,None,,,,,,,,,,ST01_112822,2022-11-29_10h16.32.097,Hippopolis_Updating,2022.2.2,59.81045175703195,
Hippopolis,stimuli/subj_files/ST01_112822_cityA.csv,./stimuli/seattle.jpg,./stimuli/street_plate1.png,./stimuli/videos/hippopolis_part1.mp4,SZAPPAN UTCA,stimuli/objects/080a.jpg,object,1,stimuli/objects/022a.jpg,stimuli/scenes/052b.jpg,stimuli/objects/022a.jpg,stimuli/scenes/052a.jpg,stimuli/objects/022b.jpg,dist2,target,dist1,lure,0,1,1,1,0,26,26,69,,,,,,,700.1686842683703,701.1948725618422,701.1948725618422,701.1948725618422,701.1948725618422,704.2285533100367,704.2285533100367,704.2285533100367,704.2285533100367,None,,,,,,,,,,ST01_112822,2022-11-29_10h16.32.097,Hippopolis_Updating,2022.2.2,59.81045175703195,
Hippopolis,stimuli/subj_files/ST01_112822_cityA.csv,./stimuli/seattle.jpg,./stimuli/street_plate1.png,./stimuli/videos/hippopolis_part1.mp4,LAKAT UTCA,stimuli/objects/098a.jpg,object,1,stimuli/objects/017a.jpg,stimuli/objects/017b.jpg,stimuli/objects/101a.jpg,stimuli/objects/017a.jpg,stimuli/objects/101b.jpg,lure,dist1,target,dist2,0,1,1,1,0,27,27,7,,,,,,,706.1734709683806,707.1942076291889,707.1942076291889,707.1942076291889,707.1942076291889,710.2037623692304,710.2037623692304,710.2037623692304,710.2037623692304,None,,,,,,,,,,ST01_112822,2022-11-29_10h16.32.097,Hippopolis_Updating,2022.2.2,59.81045175703195,
Hippopolis,stimuli/subj_files/ST01_112822_cityA.csv,./stimuli/seattle.jpg,./stimuli/street_plate1.png,./stimuli/videos/hippopolis_part1.mp4,FÓKA UTCA,stimuli/scenes/032a.jpg,scene,1,stimuli/scenes/027a.jpg,stimuli/scenes/027a.jpg,stimuli/scenes/062b.jpg,stimuli/scenes/027b.jpg,stimuli/scenes/062a.jpg,target,dist2,lure,dist1,0,1,1,1,0,28,28,57,,,,,,,712.1894467435777,713.2112977430224,713.2112977430224,713.2112977430224,713.2112977430224,716.2085860781372,716.2085860781372,716.2085860781372,716.2085860781372,None,,,,,,,,,,ST01_112822,2022-11-29_10h16.32.097,Hippopolis_Updating,2022.2.2,59.81045175703195,
Hippopolis,stimuli/subj_files/ST01_112822_cityA.csv,./stimuli/seattle.jpg,./stimuli/street_plate1.png,./stimuli/videos/hippopolis_part1.mp4,LEVÉL UTCA,stimuli/scenes/008a.jpg,scene,1,stimuli/scenes/013a.jpg,stimuli/scenes/013b.jpg,stimuli/scenes/102a.jpg,stimuli/scenes/102b.jpg,stimuli/scenes/013a.jpg,lure,dist1,dist2,target,0,1,1,1,0,29,29,25,,,,,,,718.2051936201751,719.2299133408815,719.2299133408815,719.2299133408815,719.2299133408815,722.2356125321239,722.2356125321239,722.2356125321239,722.2356125321239,None,,,,,,,,,,ST01_112822,2022-11-29_10h16.32.097,Hippopolis_Updating,2022.2.2,59.81045175703195,
Hippopolis,stimuli/subj_files/ST01_112822_cityA.csv,./stimuli/seattle.jpg,./stimuli/street_plate1.png,./stimuli/videos/hippopolis_part1.mp4,PULÓVER UTCA,stimuli/scenes/071a.jpg,scene,2,stimuli/objects/040a.jpg,stimuli/objects/040b.jpg,stimuli/scenes/060b.jpg,stimuli/objects/040a.jpg,stimuli/scenes/060a.jpg,lure,dist2,target,dist1,0,1,1,1,0,30,30,41,,,,,,,724.2095632590353,725.2271939013153,725.2271939013153,725.2271939013153,725.2271939013153,728.2427423540503,728.2427423540503,728.2427423540503,728.2427423540503,None,,,,,,,,,,ST01_112822,2022-11-29_10h16.32.097,Hippopolis_Updating,2022.2.2,59.81045175703195,
Hippopolis,stimuli/subj_files/ST01_112822_cityA.csv,./stimuli/seattle.jpg,./stimuli/street_plate1.png,./stimuli/videos/hippopolis_part1.mp4,SZIKLA UTCA,stimuli/scenes/116a.jpg,scene,0,stimuli/scenes/116a.jpg,stimuli/scenes/116a.jpg,stimuli/objects/024a.jpg,stimuli/scenes/116b.jpg,stimuli/objects/024b.jpg,target,dist1,lure,dist2,0,1,1,1,0,31,31,79,,,,,,,730.2197580486536,731.2449607625604,731.2449607625604,731.2449607625604,731.2449607625604,734.2479868549854,734.2479868549854,734.2479868549854,734.2479868549854,None,,,,,,,,,,ST01_112822,2022-11-29_10h16.32.097,Hippopolis_Updating,2022.2.2,59.81045175703195,
Hippopolis,stimuli/subj_files/ST01_112822_cityA.csv,./stimuli/seattle.jpg,./stimuli/street_plate1.png,./stimuli/videos/hippopolis_part1.mp4,TERASZ UTCA,stimuli/scenes/048a.jpg,scene,2,stimuli/objects/083a.jpg,stimuli/objects/083b.jpg,stimuli/objects/083a.jpg,stimuli/objects/093a.jpg,stimuli/objects/093b.jpg,lure,target,dist1,dist2,0,1,1,1,0,32,32,20,,,,,,,736.2357160989195,737.2590879183263,737.2590879183263,737.2590879183263,737.2590879183263,740.2622897289693,740.2622897289693,740.2622897289693,740.2622897289693,None,,,,,,,,,,ST01_112822,2022-11-29_10h16.32.097,Hippopolis_Updating,2022.2.2,59.81045175703195,
Hippopolis,stimuli/subj_files/ST01_112822_cityA.csv,./stimuli/seattle.jpg,./stimuli/street_plate1.png,./stimuli/videos/hippopolis_part1.mp4,HENTES UTCA,stimuli/scenes/073a.jpg,scene,1,stimuli/scenes/093a.jpg,stimuli/scenes/093a.jpg,stimuli/scenes/020b.jpg,stimuli/scenes/093b.jpg,stimuli/scenes/020a.jpg,target,dist2,lure,dist1,0,1,1,1,0,33,33,67,,,,,,,742.2477175239474,743.2658286690712,743.2658286690712,743.2658286690712,743.2658286690712,746.2829377539456,746.2829377539456,746.2829377539456,746.2829377539456,None,,,,,,,,,,ST01_112822,2022-11-29_10h16.32.097,Hippopolis_Updating,2022.2.2,59.81045175703195,
Hippopolis,stimuli/subj_files/ST01_112822_cityA.csv,./stimuli/seattle.jpg,./stimuli/street_plate1.png,./stimuli/videos/hippopolis_part1.mp4,ÁLLOMÁS UTCA,stimuli/objects/073a.jpg,object,2,stimuli/scenes/068a.jpg,stimuli/scenes/068a.jpg,stimuli/objects/104a.jpg,stimuli/scenes/068b.jpg,stimuli/objects/104b.jpg,target,dist1,lure,dist2,0,1,1,1,0,34,34,35,,,,,,,748.253016140312,749.2766417395324,749.2766417395324,749.2766417395324,749.2766417395324,752.2863566465676,752.2863566465676,752.2863566465676,752.2863566465676,None,,,,,,,,,,ST01_112822,2022-11-29_10h16.32.097,Hippopolis_Updating,2022.2.2,59.81045175703195,
Hippopolis,stimuli/subj_files/ST01_112822_cityA.csv,./stimuli/seattle.jpg,./stimuli/street_plate1.png,./stimuli/videos/hippopolis_part1.mp4,CUKOR UTCA,stimuli/scenes/049a.jpg,scene,1,stimuli/scenes/081a.jpg,stimuli/objects/006b.jpg,stimuli/scenes/081b.jpg,stimuli/objects/006a.jpg,stimuli/scenes/081a.jpg,dist2,lure,dist1,target,0,1,1,1,0,35,35,38,,,,,,,754.2695122305304,755.2961346879601,755.2961346879601,755.2961346879601,755.2961346879601,758.3176078125834,758.3176078125834,758.3176078125834,758.3176078125834,None,,,,,,,,,,ST01_112822,2022-11-29_10h16.32.097,Hippopolis_Updating,2022.2.2,59.81045175703195,
Hippopolis,stimuli/subj_files/ST01_112822_cityA.csv,./stimuli/seattle.jpg,./stimuli/street_plate1.png,./stimuli/videos/hippopolis_part1.mp4,FÉNYKÉP UTCA,stimuli/scenes/107a.jpg,scene,1,stimuli/scenes/055a.jpg,stimuli/scenes/055a.jpg,stimuli/scenes/059a.jpg,stimuli/scenes/059b.jpg,stimuli/scenes/055b.jpg,target,dist1,dist2,lure,0,1,1,1,0,36,36,33,,,,,,,760.2732657659799,761.2935352958739,761.2935352958739,761.2935352958739,761.2935352958739,764.3160030208528,764.3160030208528,764.3160030208528,764.3160030208528,None,,,,,,,,,,ST01_112822,2022-11-29_10h16.32.097,Hippopolis_Updating,2022.2.2,59.81045175703195,
Hippopolis,stimuli/subj_files/ST01_112822_cityA.csv,./stimuli/seattle.jpg,./stimuli/street_plate1.png,./stimuli/videos/hippopolis_part1.mp4,LEMEZ UTCA,stimuli/scenes/117a.jpg,scene,1,stimuli/scenes/020a.jpg,stimuli/objects/092b.jpg,stimuli/scenes/020b.jpg,stimuli/scenes/020a.jpg,stimuli/objects/092a.jpg,dist2,lure,target,dist1,0,1,1,1,0,37,37,71,,,,,,,766.2845297958702,767.3098398055881,767.3098398055881,767.3098398055881,767.3098398055881,770.3012183979154,770.3012183979154,770.3012183979154,770.3012183979154,None,,,,,,,,,,ST01_112822,2022-11-29_10h16.32.097,Hippopolis_Updating,2022.2.2,59.81045175703195,
Hippopolis,stimuli/subj_files/ST01_112822_cityA.csv,./stimuli/seattle.jpg,./stimuli/street_plate1.png,./stimuli/videos/hippopolis_part1.mp4,FÉSZEK UTCA,stimuli/objects/077a.jpg,object,2,stimuli/scenes/074a.jpg,stimuli/scenes/074a.jpg,stimuli/scenes/074b.jpg,stimuli/scenes/038a.jpg,stimuli/scenes/038b.jpg,target,lure,dist1,dist2,0,1,1,1,0,38,38,54,,,,,,,772.2907007839531,773.3100721277297,773.3100721277297,773.3100721277297,773.3100721277297,776.3275693487376,776.3275693487376,776.3275693487376,776.3275693487376,None,,,,,,,,,,ST01_112822,2022-11-29_10h16.32.097,Hippopolis_Updating,2022.2.2,59.81045175703195,
Hippopolis,stimuli/subj_files/ST01_112822_cityA.csv,./stimuli/seattle.jpg,./stimuli/street_plate1.png,./stimuli/videos/hippopolis_part1.mp4,EGÉR UTCA,stimuli/objects/096a.jpg,object,2,stimuli/scenes/095a.jpg,stimuli/scenes/095a.jpg,stimuli/scenes/105a.jpg,stimuli/scenes/095b.jpg,stimuli/scenes/105b.jpg,target,dist1,lure,dist2,0,1,1,1,0,39,39,74,,,,,,,778.291539568454,779.3098569121212,779.3098569121212,779.3098569121212,779.3098569121212,782.3278190866113,782.3278190866113,782.3278190866113,782.3278190866113,None,,,,,,,,,,ST01_112822,2022-11-29_10h16.32.097,Hippopolis_Updating,2022.2.2,59.81045175703195,
Hippopolis,stimuli/subj_files/ST01_112822_cityA.csv,./stimuli/seattle.jpg,./stimuli/street_plate1.png,./stimuli/videos/hippopolis_part1.mp4,FIÓK UTCA,stimuli/scenes/112a.jpg,scene,2,stimuli/objects/087a.jpg,stimuli/objects/087b.jpg,stimuli/scenes/010b.jpg,stimuli/objects/087a.jpg,stimuli/scenes/010a.jpg,lure,dist2,target,dist1,0,1,1,1,0,40,40,55,,,,,,,784.2920396663249,785.309818347916,785.309818347916,785.309818347916,785.309818347916,788.3486813940108,788.3486813940108,788.3486813940108,788.3486813940108,None,785.309818347916,,,,,,,,,ST01_112822,2022-11-29_10h16.32.097,Hippopolis_Updating,2022.2.2,59.81045175703195,
Hippopolis,stimuli/subj_files/ST01_112822_cityA.csv,./stimuli/seattle.jpg,./stimuli/street_plate1.png,./stimuli/videos/hippopolis_part1.mp4,DOMINÓ UTCA,stimuli/scenes/046a.jpg,scene,1,stimuli/scenes/114a.jpg,stimuli/scenes/114a.jpg,stimuli/scenes/093b.jpg,stimuli/scenes/114b.jpg,stimuli/scenes/093a.jpg,target,dist2,lure,dist1,0,1,1,1,0,41,41,68,,,,,,,790.2937178574502,791.3106751702726,791.3106751702726,791.3106751702726,791.3106751702726,794.3381665796041,794.3381665796041,794.3381665796041,794.3381665796041,None,791.3106751702726,,,,,,,,,ST01_112822,2022-11-29_10h16.32.097,Hippopolis_Updating,2022.2.2,59.81045175703195,
Hippopolis,stimuli/subj_files/ST01_112822_cityA.csv,./stimuli/seattle.jpg,./stimuli/street_plate1.png,./stimuli/videos/hippopolis_part1.mp4,FEJSZE UTCA,stimuli/objects/102a.jpg,object,1,stimuli/objects/109a.jpg,stimuli/objects/109b.jpg,stimuli/scenes/013b.jpg,stimuli/objects/109a.jpg,stimuli/scenes/013a.jpg,lure,dist2,target,dist1,0,1,1,1,0,42,42,19,,,,,,,796.3063888791949,797.3307369481772,797.3307369481772,797.3307369481772,797.3307369481772,800.3684187941253,800.3684187941253,800.3684187941253,800.3684187941253,None,,,,,,,,,,ST01_112822,2022-11-29_10h16.32.097,Hippopolis_Updating,2022.2.2,59.81045175703195,
Hippopolis,stimuli/subj_files/ST01_112822_cityA.csv,./stimuli/seattle.jpg,./stimuli/street_plate1.png,./stimuli/videos/hippopolis_part1.mp4,FÜZET UTCA,stimuli/objects/033a.jpg,object,2,stimuli/scenes/105a.jpg,stimuli/objects/079b.jpg,stimuli/scenes/105b.jpg,stimuli/objects/079a.jpg,stimuli/scenes/105a.jpg,dist2,lure,dist1,target,0,1,1,1,0,43,43,66,,,,,,,802.3093244694173,803.326638193801,803.326638193801,803.326638193801,803.326638193801,806.3648870047182,806.3648870047182,806.3648870047182,806.3648870047182,None,803.326638193801,,,,,,,,,ST01_112822,2022-11-29_10h16.32.097,Hippopolis_Updating,2022.2.2,59.81045175703195,
Hippopolis,stimuli/subj_files/ST01_112822_cityA.csv,./stimuli/seattle.jpg,./stimuli/street_plate1.png,./stimuli/videos/hippopolis_part1.mp4,KÓKUSZ UTCA,stimuli/objects/089a.jpg,object,0,stimuli/objects/089a.jpg,stimuli/objects/089a.jpg,stimuli/objects/075a.jpg,stimuli/objects/089b.jpg,stimuli/objects/075b.jpg,target,dist1,lure,dist2,0,1,1,1,0,44,44,3,,,,,,,808.3173095583916,809.3480407223105,809.3480407223105,809.3480407223105,809.3480407223105,812.3405762575567,812.3405762575567,812.3405762575567,812.3405762575567,space,,814.3225453514606,814.3225453514606,3.432667640969157,,,,,,ST01_112822,2022-11-29_10h16.32.097,Hippopolis_Updating,2022.2.2,59.81045175703195,
Hippopolis,stimuli/subj_files/ST01_112822_cityA.csv,./stimuli/seattle.jpg,./stimuli/street_plate1.png,./stimuli/videos/hippopolis_part1.mp4,SAJTÓ UTCA,stimuli/scenes/056a.jpg,scene,0,stimuli/scenes/056a.jpg,stimuli/scenes/057b.jpg,stimuli/scenes/057a.jpg,stimuli/scenes/056a.jpg,stimuli/scenes/056b.jpg,dist2,dist1,target,lure,0,1,1,1,0,45,45,37,,,,,,,817.7842312287539,818.8124846052378,818.8124846052378,818.8124846052378,818.8124846052378,821.8050285372883,821.8050285372883,821.8050285372883,821.8050285372883,None,,,,,,,,,,ST01_112822,2022-11-29_10h16.32.097,Hippopolis_Updating,2022.2.2,59.81045175703195,
Hippopolis,stimuli/subj_files/ST01_112822_cityA.csv,./stimuli/seattle.jpg,./stimuli/street_plate1.png,./stimuli/videos/hippopolis_part1.mp4,AJÁNDÉK UTCA,stimuli/scenes/094a.jpg,scene,2,stimuli/objects/091a.jpg,stimuli/scenes/110b.jpg,stimuli/objects/091b.jpg,stimuli/scenes/110a.jpg,stimuli/objects/091a.jpg,dist2,lure,dist1,target,0,1,1,1,0,46,46,2,,,,,,,823.791830047965,824.8110272288322,824.8110272288322,824.8110272288322,824.8110272288322,827.8229773379862,827.8229773379862,827.8229773379862,827.8229773379862,None,824.8110272288322,,,,,,,,,ST01_112822,2022-11-29_10h16.32.097,Hippopolis_Updating,2022.2.2,59.81045175703195,
Hippopolis,stimuli/subj_files/ST01_112822_cityA.csv,./stimuli/seattle.jpg,./stimuli/street_plate1.png,./stimuli/videos/hippopolis_part1.mp4,SZALVÉTA UTCA,stimuli/scenes/026a.jpg,scene,0,stimuli/scenes/026a.jpg,stimuli/scenes/026b.jpg,stimuli/objects/050b.jpg,stimuli/objects/050a.jpg,stimuli/scenes/026a.jpg,lure,dist2,dist1,target,0,1,1,1,0,47,47,4,,,,,,,829.7978371363133,830.8275009263307,830.8275009263307,830.8275009263307,830.8275009263307,833.8282809313387,833.8282809313387,833.8282809313387,833.8282809313387,None,,,,,,,,,,ST01_112822,2022-11-29_10h16.32.097,Hippopolis_Updating,2022.2.2,59.81045175703195,
Hippopolis,stimuli/subj_files/ST01_112822_cityA.csv,./stimuli/seattle.jpg,./stimuli/street_plate1.png,./stimuli/videos/hippopolis_part1.mp4,TÉRKÉP UTCA,stimuli/objects/062a.jpg,object,2,stimuli/scenes/067a.jpg,stimuli/objects/091a.jpg,stimuli/objects/091b.jpg,stimuli/scenes/067b.jpg,stimuli/scenes/067a.jpg,dist1,dist2,lure,target,0,1,1,1,0,48,48,13,,,,,,,835.8046615496278,836.8288584686816,836.8288584686816,836.8288584686816,836.8288584686816,839.8225885797292,839.8225885797292,839.8225885797292,839.8225885797292,None,,,,,,,,,,ST01_112822,2022-11-29_10h16.32.097,Hippopolis_Updating,2022.2.2,59.81045175703195,
Hippopolis,stimuli/subj_files/ST01_112822_cityA.csv,./stimuli/seattle.jpg,./stimuli/street_plate1.png,./stimuli/videos/hippopolis_part1.mp4,HARCSA UTCA,stimuli/objects/107a.jpg,object,2,stimuli/scenes/007a.jpg,stimuli/objects/031b.jpg,stimuli/objects/031a.jpg,stimuli/scenes/007a.jpg,stimuli/scenes/007b.jpg,dist2,dist1,target,lure,0,1,1,1,0,49,49,22,,,,,,,841.8139469567686,842.8424905017018,842.8424905017018,842.8424905017018,842.8424905017018,845.8363419044763,845.8363419044763,845.8363419044763,845.8363419044763,None,,,,,,,,,,ST01_112822,2022-11-29_10h16.32.097,Hippopolis_Updating,2022.2.2,59.81045175703195,
Hippopolis,stimuli/subj_files/ST01_112822_cityA.csv,./stimuli/seattle.jpg,./stimuli/street_plate1.png,./stimuli/videos/hippopolis_part1.mp4,KOKTÉL UTCA,stimuli/objects/013a.jpg,object,1,stimuli/objects/101a.jpg,stimuli/objects/021b.jpg,stimuli/objects/101b.jpg,stimuli/objects/101a.jpg,stimuli/objects/021a.jpg,dist2,lure,target,dist1,0,1,1,1,0,50,50,78,,,,,,,847.8231888227165,848.842762010172,848.842762010172,848.842762010172,848.842762010172,851.8594907335937,851.8594907335937,851.8594907335937,851.8594907335937,None,,,,,,,,,,ST01_112822,2022-11-29_10h16.32.097,Hippopolis_Updating,2022.2.2,59.81045175703195,
Hippopolis,stimuli/subj_files/ST01_112822_cityA.csv,./stimuli/seattle.jpg,./stimuli/street_plate1.png,./stimuli/videos/hippopolis_part1.mp4,RÓZSA UTCA,stimuli/scenes/033a.jpg,scene,1,stimuli/scenes/084a.jpg,stimuli/objects/109a.jpg,stimuli/scenes/084b.jpg,stimuli/objects/109b.jpg,stimuli/scenes/084a.jpg,dist1,lure,dist2,target,0,1,1,1,0,51,51,77,,,,,,,853.825019095093,854.8438287619501,854.8438287619501,854.8438287619501,854.8438287619501,857.8676590044051,857.8676590044051,857.8676590044051,857.8676590044051,None,,,,,,,,,,ST01_112822,2022-11-29_10h16.32.097,Hippopolis_Updating,2022.2.2,59.81045175703195,
Hippopolis,stimuli/subj_files/ST01_112822_cityA.csv,./stimuli/seattle.jpg,./stimuli/street_plate1.png,./stimuli/videos/hippopolis_part1.mp4,KERÉK UTCA,stimuli/scenes/083a.jpg,scene,2,stimuli/objects/079a.jpg,stimuli/objects/079b.jpg,stimuli/scenes/035b.jpg,stimuli/objects/079a.jpg,stimuli/scenes/035a.jpg,lure,dist2,target,dist1,0,1,1,1,0,52,52,24,,,,,,,859.830410702154,860.858932165429,860.858932165429,860.858932165429,860.858932165429,863.8837125319988,863.8837125319988,863.8837125319988,863.8837125319988,None,,,,,,,,,,ST01_112822,2022-11-29_10h16.32.097,Hippopolis_Updating,2022.2.2,59.81045175703195,
Hippopolis,stimuli/subj_files/ST01_112822_cityA.csv,./stimuli/seattle.jpg,./stimuli/street_plate1.png,./stimuli/videos/hippopolis_part1.mp4,VÖDÖR UTCA,stimuli/objects/009a.jpg,object,1,stimuli/objects/048a.jpg,stimuli/objects/071b.jpg,stimuli/objects/048a.jpg,stimuli/objects/071a.jpg,stimuli/objects/048b.jpg,dist2,target,dist1,lure,0,1,1,1,0,53,53,58,,,,,,,865.8469630852342,866.875882325694,866.875882325694,866.875882325694,866.875882325694,869.8853515367955,869.8853515367955,869.8853515367955,869.8853515367955,None,,,,,,,,,,ST01_112822,2022-11-29_10h16.32.097,Hippopolis_Updating,2022.2.2,59.81045175703195,
Hippopolis,stimuli/subj_files/ST01_112822_cityA.csv,./stimuli/seattle.jpg,./stimuli/street_plate1.png,./stimuli/videos/hippopolis_part1.mp4,ZONGORA UTCA,stimuli/objects/085a.jpg,object,2,stimuli/scenes/042a.jpg,stimuli/objects/087a.jpg,stimuli/objects/087b.jpg,stimuli/scenes/042a.jpg,stimuli/scenes/042b.jpg,dist1,dist2,target,lure,0,1,1,1,0,54,54,16,,,,,,,871.8556358087808,872.8780537713319,872.8780537713319,872.8780537713319,872.8780537713319,875.8836596608162,875.8836596608162,875.8836596608162,875.8836596608162,None,,,,,,,,,,ST01_112822,2022-11-29_10h16.32.097,Hippopolis_Updating,2022.2.2,59.81045175703195,
Hippopolis,stimuli/subj_files/ST01_112822_cityA.csv,./stimuli/seattle.jpg,./stimuli/street_plate1.png,./stimuli/videos/hippopolis_part1.mp4,KÖTÉL UTCA,stimuli/scenes/088a.jpg,scene,1,stimuli/scenes/052a.jpg,stimuli/objects/032a.jpg,stimuli/scenes/052b.jpg,stimuli/scenes/052a.jpg,stimuli/objects/032b.jpg,dist1,lure,target,dist2,0,1,1,1,0,55,55,14,,,,,,,877.8734328392893,878.893201649189,878.893201649189,878.893201649189,878.893201649189,881.8902613949031,881.8902613949031,881.8902613949031,881.8902613949031,None,,,,,,,,,,ST01_112822,2022-11-29_10h16.32.097,Hippopolis_Updating,2022.2.2,59.81045175703195,
Hippopolis,stimuli/subj_files/ST01_112822_cityA.csv,./stimuli/seattle.jpg,./stimuli/street_plate1.png,./stimuli/videos/hippopolis_part1.mp4,SZŐNYEG UTCA,stimuli/scenes/061a.jpg,scene,0,stimuli/scenes/061a.jpg,stimuli/scenes/047b.jpg,stimuli/scenes/061a.jpg,stimuli/scenes/047a.jpg,stimuli/scenes/061b.jpg,dist2,target,dist1,lure,0,1,1,1,0,56,56,59,,,,,,,883.8843986131251,884.9081800282001,884.9081800282001,884.9081800282001,884.9081800282001,887.9060032945126,887.9060032945126,887.9060032945126,887.9060032945126,None,,,,,,,,,,ST01_112822,2022-11-29_10h16.32.097,Hippopolis_Updating,2022.2.2,59.81045175703195,
Hippopolis,stimuli/subj_files/ST01_112822_cityA.csv,./stimuli/seattle.jpg,./stimuli/street_plate1.png,./stimuli/videos/hippopolis_part1.mp4,KESELYŰ UTCA,stimuli/scenes/118a.jpg,scene,2,stimuli/objects/036a.jpg,stimuli/objects/036b.jpg,stimuli/objects/036a.jpg,stimuli/objects/040a.jpg,stimuli/objects/040b.jpg,lure,target,dist1,dist2,0,1,1,1,0,57,57,23,,,,,,,889.8882893025875,890.9094934072345,890.9094934072345,890.9094934072345,890.9094934072345,893.9239919036627,893.9239919036627,893.9239919036627,893.9239919036627,None,,,,,,,,,,ST01_112822,2022-11-29_10h16.32.097,Hippopolis_Updating,2022.2.2,59.81045175703195,
Hippopolis,stimuli/subj_files/ST01_112822_cityA.csv,./stimuli/seattle.jpg,./stimuli/street_plate1.png,./stimuli/videos/hippopolis_part1.mp4,FOLYÓ UTCA,stimuli/objects/023a.jpg,object,0,stimuli/objects/023a.jpg,stimuli/objects/023a.jpg,stimuli/scenes/023b.jpg,stimuli/objects/023b.jpg,stimuli/scenes/023a.jpg,target,dist2,lure,dist1,0,1,1,1,0,58,58,27,,,,,,,895.890231538564,896.9131038803607,896.9131038803607,896.9131038803607,896.9131038803607,899.9173575155437,899.9173575155437,899.9173575155437,899.9173575155437,None,,,,,,,,,,ST01_112822,2022-11-29_10h16.32.097,Hippopolis_Updating,2022.2.2,59.81045175703195,
Hippopolis,stimuli/subj_files/ST01_112822_cityA.csv,./stimuli/seattle.jpg,./stimuli/street_plate1.png,./stimuli/videos/hippopolis_part1.mp4,KANÁL UTCA,stimuli/objects/118a.jpg,object,1,stimuli/objects/021a.jpg,stimuli/scenes/091b.jpg,stimuli/objects/021b.jpg,stimuli/objects/021a.jpg,stimuli/scenes/091a.jpg,dist2,lure,target,dist1,0,1,1,1,0,59,59,0,,,,,,,901.8913334328681,902.9137880951166,902.9137880951166,902.9137880951166,902.9137880951166,905.9385037720203,905.9385037720203,905.9385037720203,905.9385037720203,None,,,,,,,,,,ST01_112822,2022-11-29_10h16.32.097,Hippopolis_Updating,2022.2.2,59.81045175703195,
Hippopolis,stimuli/subj_files/ST01_112822_cityA.csv,./stimuli/seattle.jpg,./stimuli/street_plate1.png,./stimuli/videos/hippopolis_part1.mp4,HERNYÓ UTCA,stimuli/objects/020a.jpg,object,0,stimuli/objects/020a.jpg,stimuli/objects/020a.jpg,stimuli/objects/020b.jpg,stimuli/objects/090b.jpg,stimuli/objects/090a.jpg,target,lure,dist2,dist1,0,1,1,1,0,60,60,30,,,,,,,907.9007301796228,908.9275025445968,908.9275025445968,908.9275025445968,908.9275025445968,911.9314209129661,911.9314209129661,911.9314209129661,911.9314209129661,None,,,,,,,,,,ST01_112822,2022-11-29_10h16.32.097,Hippopolis_Updating,2022.2.2,59.81045175703195,
Hippopolis,stimuli/subj_files/ST01_112822_cityA.csv,./stimuli/seattle.jpg,./stimuli/street_plate1.png,./stimuli/videos/hippopolis_part1.mp4,BETON UTCA,stimuli/scenes/086a.jpg,scene,2,stimuli/objects/031a.jpg,stimuli/objects/031a.jpg,stimuli/scenes/007b.jpg,stimuli/scenes/007a.jpg,stimuli/objects/031b.jpg,target,dist2,dist1,lure,0,1,1,1,0,61,61,51,,,,,,,913.91339000687,914.9411765616387,914.9411765616387,914.9411765616387,914.9411765616387,917.9477338213474,917.9477338213474,917.9477338213474,917.9477338213474,None,,,,,,,,,,ST01_112822,2022-11-29_10h16.32.097,Hippopolis_Updating,2022.2.2,59.81045175703195,
Hippopolis,stimuli/subj_files/ST01_112822_cityA.csv,./stimuli/seattle.jpg,./stimuli/street_plate1.png,./stimuli/videos/hippopolis_part1.mp4,KÖMÉNYMAG UTCA,stimuli/objects/055a.jpg,object,1,stimuli/objects/084a.jpg,stimuli/scenes/077b.jpg,stimuli/objects/084b.jpg,stimuli/objects/084a.jpg,stimuli/scenes/077a.jpg,dist2,lure,target,dist1,0,1,1,1,0,62,62,70,,,,,,,919.9203991573304,920.9418433587998,920.9418433587998,920.9418433587998,920.9418433587998,923.9377203471959,923.9377203471959,923.9377203471959,923.9377203471959,None,,,,,,,,,,ST01_112822,2022-11-29_10h16.32.097,Hippopolis_Updating,2022.2.2,59.81045175703195,
Hippopolis,stimuli/subj_files/ST01_112822_cityA.csv,./stimuli/seattle.jpg,./stimuli/street_plate1.png,./stimuli/videos/hippopolis_part1.mp4,ZEBRA UTCA,stimuli/scenes/023a.jpg,scene,0,stimuli/scenes/023a.jpg,stimuli/scenes/023b.jpg,stimuli/scenes/076b.jpg,stimuli/scenes/076a.jpg,stimuli/scenes/023a.jpg,lure,dist2,dist1,target,0,1,1,1,0,63,63,53,,,,,,,925.9212052859366,926.9447969868779,926.9447969868779,926.9447969868779,926.9447969868779,929.9417093154043,929.9417093154043,929.9417093154043,929.9417093154043,None,,,,,,,,,,ST01_112822,2022-11-29_10h16.32.097,Hippopolis_Updating,2022.2.2,59.81045175703195,
Hippopolis,stimuli/subj_files/ST01_112822_cityA.csv,./stimuli/seattle.jpg,./stimuli/street_plate1.png,./stimuli/videos/hippopolis_part1.mp4,VASALÓ UTCA,stimuli/scenes/108a.jpg,scene,0,stimuli/scenes/108a.jpg,stimuli/scenes/108a.jpg,stimuli/scenes/116a.jpg,stimuli/scenes/108b.jpg,stimuli/scenes/116b.jpg,target,dist1,lure,dist2,0,1,1,1,0,64,64,65,,,,,,,931.9285624530166,932.9566531721503,932.9566531721503,932.9566531721503,932.9566531721503,935.9573871474713,935.9573871474713,935.9573871474713,935.9573871474713,None,,,,,,,,,,ST01_112822,2022-11-29_10h16.32.097,Hippopolis_Updating,2022.2.2,59.81045175703195,
Hippopolis,stimuli/subj_files/ST01_112822_cityA.csv,./stimuli/seattle.jpg,./stimuli/street_plate1.png,./stimuli/videos/hippopolis_part1.mp4,LÉTRA UTCA,stimuli/objects/069a.jpg,object,1,stimuli/objects/092a.jpg,stimuli/objects/092b.jpg,stimuli/objects/092a.jpg,stimuli/scenes/055a.jpg,stimuli/scenes/055b.jpg,lure,target,dist1,dist2,0,1,1,1,0,65,65,52,,,,,,,937.9390800669789,938.9587639737874,938.9587639737874,938.9587639737874,938.9587639737874,941.9766200948507,941.9766200948507,941.9766200948507,941.9766200948507,None,,,,,,,,,,ST01_112822,2022-11-29_10h16.32.097,Hippopolis_Updating,2022.2.2,59.81045175703195,
Hippopolis,stimuli/subj_files/ST01_112822_cityA.csv,./stimuli/seattle.jpg,./stimuli/street_plate1.png,./stimuli/videos/hippopolis_part1.mp4,VIHAR UTCA,stimuli/objects/056a.jpg,object,0,stimuli/objects/056a.jpg,stimuli/objects/056a.jpg,stimuli/objects/056b.jpg,stimuli/objects/027b.jpg,stimuli/objects/027a.jpg,target,lure,dist2,dist1,0,1,1,1,0,66,66,44,,,,,,,943.9405924919993,944.9603914692998,944.9603914692998,944.9603914692998,944.9603914692998,947.9646233338863,947.9646233338863,947.9646233338863,947.9646233338863,None,944.9603914692998,,,,,,,,,ST01_112822,2022-11-29_10h16.32.097,Hippopolis_Updating,2022.2.2,59.81045175703195,
Hippopolis,stimuli/subj_files/ST01_112822_cityA.csv,./stimuli/seattle.jpg,./stimuli/street_plate1.png,./stimuli/videos/hippopolis_part1.mp4,SÜTEMÉNY UTCA,stimuli/objects/075a.jpg,object,0,stimuli/objects/075a.jpg,stimuli/scenes/108b.jpg,stimuli/scenes/108a.jpg,stimuli/objects/075a.jpg,stimuli/objects/075b.jpg,dist2,dist1,target,lure,0,1,1,1,0,67,67,60,,,,,,,949.9535172954202,950.974352857098,950.974352857098,950.974352857098,950.974352857098,953.9689373038709,953.9689373038709,953.9689373038709,953.9689373038709,None,,,,,,,,,,ST01_112822,2022-11-29_10h16.32.097,Hippopolis_Updating,2022.2.2,59.81045175703195,
Hippopolis,stimuli/subj_files/ST01_112822_cityA.csv,./stimuli/seattle.jpg,./stimuli/street_plate1.png,./stimuli/videos/hippopolis_part1.mp4,MÁRVÁNY UTCA,stimuli/objects/072a.jpg,object,2,stimuli/scenes/110a.jpg,stimuli/scenes/110a.jpg,stimuli/scenes/110b.jpg,stimuli/scenes/095b.jpg,stimuli/scenes/095a.jpg,target,lure,dist2,dist1,0,1,1,1,0,68,68,42,,,,,,,955.9673785399646,956.9908162914217,956.9908162914217,956.9908162914217,956.9908162914217,960.020907714963,960.020907714963,960.020907714963,960.020907714963,None,,,,,,,,,,ST01_112822,2022-11-29_10h16.32.097,Hippopolis_Updating,2022.2.2,59.81045175703195,
Hippopolis,stimuli/subj_files/ST01_112822_cityA.csv,./stimuli/seattle.jpg,./stimuli/street_plate1.png,./stimuli/videos/hippopolis_part1.mp4,KIRAKÓ UTCA,stimuli/objects/064a.jpg,object,2,stimuli/scenes/103a.jpg,stimuli/scenes/042a.jpg,stimuli/scenes/103b.jpg,stimuli/scenes/042b.jpg,stimuli/scenes/103a.jpg,dist1,lure,dist2,target,0,1,1,1,0,69,69,64,,,,,,,961.9792014472187,963.0095220822841,963.0095220822841,963.0095220822841,963.0095220822841,966.0209963526577,966.0209963526577,966.0209963526577,966.0209963526577,None,,,,,,,,,,ST01_112822,2022-11-29_10h16.32.097,Hippopolis_Updating,2022.2.2,59.81045175703195,
Hippopolis,stimuli/subj_files/ST01_112822_cityA.csv,./stimuli/seattle.jpg,./stimuli/street_plate1.png,./stimuli/videos/hippopolis_part1.mp4,KÁRTYA UTCA,stimuli/scenes/030a.jpg,scene,2,stimuli/objects/093a.jpg,stimuli/objects/093b.jpg,stimuli/objects/093a.jpg,stimuli/objects/076b.jpg,stimuli/objects/076a.jpg,lure,target,dist2,dist1,0,1,1,1,0,70,70,9,,,,,,,967.9816332068294,969.012853583321,969.012853583321,969.012853583321,969.012853583321,972.0341808460653,972.0341808460653,972.0341808460653,972.0341808460653,None,,,,,,,,,,ST01_112822,2022-11-29_10h16.32.097,Hippopolis_Updating,2022.2.2,59.81045175703195,
Hippopolis,stimuli/subj_files/ST01_112822_cityA.csv,./stimuli/seattle.jpg,./stimuli/street_plate1.png,./stimuli/videos/hippopolis_part1.mp4,KOSÁR UTCA,stimuli/scenes/018a.jpg,scene,2,stimuli/objects/002a.jpg,stimuli/objects/106b.jpg,stimuli/objects/002a.jpg,stimuli/objects/002b.jpg,stimuli/objects/106a.jpg,dist2,target,lure,dist1,0,1,1,1,0,71,71,12,,,,,,,973.987728619948,975.0147973727435,975.0147973727435,975.0147973727435,975.0147973727435,978.033211439848,978.033211439848,978.033211439848,978.033211439848,None,,,,,,,,,,ST01_112822,2022-11-29_10h16.32.097,Hippopolis_Updating,2022.2.2,59.81045175703195,
Hippopolis,stimuli/subj_files/ST01_112822_cityA.csv,./stimuli/seattle.jpg,./stimuli/street_plate1.png,./stimuli/videos/hippopolis_part1.mp4,RIBIZLI UTCA,stimuli/objects/120a.jpg,object,2,stimuli/scenes/035a.jpg,stimuli/scenes/035b.jpg,stimuli/objects/036b.jpg,stimuli/scenes/035a.jpg,stimuli/objects/036a.jpg,lure,dist2,target,dist1,0,1,1,1,0,72,72,76,,,,,,,979.9955980144441,981.0172089170665,981.0172089170665,981.0172089170665,981.0172089170665,984.0213073585182,984.0213073585182,984.0213073585182,984.0213073585182,None,,,,,,,,,,ST01_112822,2022-11-29_10h16.32.097,Hippopolis_Updating,2022.2.2,59.81045175703195,
Hippopolis,stimuli/subj_files/ST01_112822_cityA.csv,./stimuli/seattle.jpg,./stimuli/street_plate1.png,./stimuli/videos/hippopolis_part1.mp4,KULLANCS UTCA,stimuli/scenes/098a.jpg,scene,2,stimuli/objects/104a.jpg,stimuli/objects/104a.jpg,stimuli/objects/104b.jpg,stimuli/scenes/068a.jpg,stimuli/scenes/068b.jpg,target,lure,dist1,dist2,0,1,1,1,0,73,73,32,,,,,,,986.0108174234629,987.0275069605559,987.0275069605559,987.0275069605559,987.0275069605559,990.0544105675071,990.0544105675071,990.0544105675071,990.0544105675071,None,,,,,,,,,,ST01_112822,2022-11-29_10h16.32.097,Hippopolis_Updating,2022.2.2,59.81045175703195,
Hippopolis,stimuli/subj_files/ST01_112822_cityA.csv,./stimuli/seattle.jpg,./stimuli/street_plate1.png,./stimuli/videos/hippopolis_part1.mp4,PÉKSÉG UTCA,stimuli/objects/027a.jpg,object,0,stimuli/objects/027a.jpg,stimuli/objects/027b.jpg,stimuli/objects/027a.jpg,stimuli/objects/039b.jpg,stimuli/objects/039a.jpg,lure,target,dist2,dist1,0,1,1,1,0,74,74,1,,,,,,,992.0086406897753,993.038661826402,993.038661826402,993.038661826402,993.038661826402,996.0540364272892,996.0540364272892,996.0540364272892,996.0540364272892,None,,,,,,,,,,ST01_112822,2022-11-29_10h16.32.097,Hippopolis_Updating,2022.2.2,59.81045175703195,
Hippopolis,stimuli/subj_files/ST01_112822_cityA.csv,./stimuli/seattle.jpg,./stimuli/street_plate1.png,./stimuli/videos/hippopolis_part1.mp4,LABDA UTCA,stimuli/scenes/005a.jpg,scene,0,stimuli/scenes/005a.jpg,stimuli/scenes/005a.jpg,stimuli/scenes/061a.jpg,stimuli/scenes/005b.jpg,stimuli/scenes/061b.jpg,target,dist1,lure,dist2,0,1,1,1,0,75,75,18,,,,,,,998.0169448722154,999.042667588219,999.042667588219,999.042667588219,999.042667588219,1002.0482454877347,1002.0482454877347,1002.0482454877347,1002.0482454877347,None,,,,,,,,,,ST01_112822,2022-11-29_10h16.32.097,Hippopolis_Updating,2022.2.2,59.81045175703195,
Hippopolis,stimuli/subj_files/ST01_112822_cityA.csv,./stimuli/seattle.jpg,./stimuli/street_plate1.png,./stimuli/videos/hippopolis_part1.mp4,MANDARIN UTCA,stimuli/objects/014a.jpg,object,1,stimuli/objects/115a.jpg,stimuli/scenes/114b.jpg,stimuli/objects/115b.jpg,stimuli/objects/115a.jpg,stimuli/scenes/114a.jpg,dist2,lure,target,dist1,0,1,1,1,0,76,76,29,,,,,,,1004.0282673705369,1005.0584396552294,1005.0584396552294,1005.0584396552294,1005.0584396552294,1008.0938421357423,1008.0938421357423,1008.0938421357423,1008.0938421357423,None,,,,,,,,,,ST01_112822,2022-11-29_10h16.32.097,Hippopolis_Updating,2022.2.2,59.81045175703195,
Hippopolis,stimuli/subj_files/ST01_112822_cityA.csv,./stimuli/seattle.jpg,./stimuli/street_plate1.png,./stimuli/videos/hippopolis_part1.mp4,KOCKA UTCA,stimuli/scenes/090a.jpg,scene,2,stimuli/objects/119a.jpg,stimuli/objects/119b.jpg,stimuli/scenes/103b.jpg,stimuli/scenes/103a.jpg,stimuli/objects/119a.jpg,lure,dist2,dist1,target,0,1,1,1,0,77,77,36,,,,,,,1010.0361628904939,1011.0575492437929,1011.0575492437929,1011.0575492437929,1011.0575492437929,1014.0693758837879,1014.0693758837879,1014.0693758837879,1014.0693758837879,None,,,,,,,,,,ST01_112822,2022-11-29_10h16.32.097,Hippopolis_Updating,2022.2.2,59.81045175703195,
Hippopolis,stimuli/subj_files/ST01_112822_cityA.csv,./stimuli/seattle.jpg,./stimuli/street_plate1.png,./stimuli/videos/hippopolis_part1.mp4,TRIATLON UTCA,stimuli/objects/024a.jpg,object,0,stimuli/objects/024a.jpg,stimuli/scenes/069b.jpg,stimuli/objects/024a.jpg,stimuli/objects/024b.jpg,stimuli/scenes/069a.jpg,dist2,target,lure,dist1,0,1,1,1,0,78,78,17,,,,,,,1016.0405496358871,1017.0712431669235,1017.0712431669235,1017.0712431669235,1017.0712431669235,1020.067293073982,1020.067293073982,1020.067293073982,1020.067293073982,None,,,,,,,,,,ST01_112822,2022-11-29_10h16.32.097,Hippopolis_Updating,2022.2.2,59.81045175703195,
