CityName,StimuliFile,CityImage,StreetSign,Cue,Image,Category,Novelty,UpdateImage,TestImage1,TestImage2,TestImage3,TestImage4,TestImage1Type,TestImage2Type,TestImage3Type,TestImage4Type,CityBlock.thisRepN,CityBlock.thisTrialN,CityBlock.thisN,CityBlock.thisIndex,LearningTrials.thisRepN,LearningTrials.thisTrialN,LearningTrials.thisN,LearningTrials.thisIndex,learning_instructions_text.started,learning_instructions_text.stopped,intro_key.keys,intro_key.rt,intro_key.started,intro_key.stopped,cityname_text.started,cityname_text.stopped,city_image.started,city_image.stopped,fx_cross.started,fx_cross.stopped,plate.started,plate.stopped,city_text.started,city_text.stopped,street_text.started,street_text.stopped,fx_cross_prediction.started,fx_cross_prediction.stopped,plate_updating.started,plate_updating.stopped,city_text_updating.started,city_text_updating.stopped,street_text_updating.started,street_text_updating.stopped,updating_image.started,updating_image.stopped,short_break_text.started,short_break_text.stopped,short_break_key.keys,short_break_key.started,short_break_key.stopped,short_break_key.rt,break_text.started,break_text.stopped,break_key_resp.keys,break_key_resp.rt,break_key_resp.started,break_key_resp.stopped,end_text.started,end_text.stopped,participant,date,expName,psychopyVersion,frameRate,
,,,,,,,,,,,,,,,,,,,,,,,,,18.61118949999218,None,space,16.724749500019243,18.61118949999218,None,,,,,,,,,,,,,,,,,,,,,,,,,,,,,,,,,,,,,ST02_112522,2022-11-25_15h05.43.955,Hippopolis_Updating,2021.1.4,60.23918570873442,
Hippopolis,stimuli/subj_files/ST02_112522_cityA.csv,./stimuli/seattle.jpg,./stimuli/street_plate1.png,KOKTÉL UTCA,stimuli/scenes/010a.jpg,scene,0,stimuli/scenes/010a.jpg,stimuli/scenes/010a.jpg,stimuli/objects/079a.jpg,stimuli/scenes/010b.jpg,stimuli/objects/079b.jpg,target,dist1,lure,dist2,0,0,0,0,0,0,0,62,,,,,,,35.418327899998985,None,35.418327899998985,None,38.374166499997955,None,39.386705700017046,None,39.386705700017046,None,39.386705700017046,None,39.386705700017046,None,42.371331300004385,None,42.371331300004385,None,42.371331300004385,None,42.371331300004385,None,None,None,None,None,None,,,,,,,,,,ST02_112522,2022-11-25_15h05.43.955,Hippopolis_Updating,2021.1.4,60.23918570873442,
Hippopolis,stimuli/subj_files/ST02_112522_cityA.csv,./stimuli/seattle.jpg,./stimuli/street_plate1.png,FÜGE UTCA,stimuli/objects/080a.jpg,object,1,stimuli/objects/030a.jpg,stimuli/objects/030b.jpg,stimuli/objects/030a.jpg,stimuli/objects/070a.jpg,stimuli/objects/070b.jpg,lure,target,dist1,dist2,0,0,0,0,0,1,1,22,,,,,,,,,,,44.370173500006786,None,45.37148450000677,None,45.37148450000677,None,45.37148450000677,None,45.37148450000677,None,48.386939999996684,None,48.386939999996684,None,48.386939999996684,None,48.386939999996684,None,None,None,None,None,None,,,,,,,,,,ST02_112522,2022-11-25_15h05.43.955,Hippopolis_Updating,2021.1.4,60.23918570873442,
Hippopolis,stimuli/subj_files/ST02_112522_cityA.csv,./stimuli/seattle.jpg,./stimuli/street_plate1.png,FOLYÓ UTCA,stimuli/objects/104a.jpg,object,2,stimuli/scenes/033a.jpg,stimuli/scenes/033b.jpg,stimuli/objects/111a.jpg,stimuli/scenes/033a.jpg,stimuli/objects/111b.jpg,lure,dist1,target,dist2,0,0,0,0,0,2,2,27,,,,,,,,,,,50.38614320001216,None,51.38869130000239,None,51.38869130000239,None,51.38869130000239,None,51.38869130000239,None,54.40336970001226,None,54.40336970001226,None,54.40336970001226,None,54.40336970001226,None,None,None,None,None,None,,,,,,,,,,ST02_112522,2022-11-25_15h05.43.955,Hippopolis_Updating,2021.1.4,60.23918570873442,
Hippopolis,stimuli/subj_files/ST02_112522_cityA.csv,./stimuli/seattle.jpg,./stimuli/street_plate1.png,KAKAÓ UTCA,stimuli/objects/054a.jpg,object,0,stimuli/objects/054a.jpg,stimuli/objects/054a.jpg,stimuli/objects/054b.jpg,stimuli/objects/036a.jpg,stimuli/objects/036b.jpg,target,lure,dist1,dist2,0,0,0,0,0,3,3,74,,,,,,,,,,,56.402606599993305,None,57.40320359999896,None,57.40320359999896,None,57.40320359999896,None,57.40320359999896,None,60.40392909999355,None,60.40392909999355,None,60.40392909999355,None,60.40392909999355,None,None,None,None,None,None,,,,,,,,,,ST02_112522,2022-11-25_15h05.43.955,Hippopolis_Updating,2021.1.4,60.23918570873442,
Hippopolis,stimuli/subj_files/ST02_112522_cityA.csv,./stimuli/seattle.jpg,./stimuli/street_plate1.png,PÉKSÉG UTCA,stimuli/scenes/014a.jpg,scene,1,stimuli/scenes/020a.jpg,stimuli/scenes/104a.jpg,stimuli/scenes/104b.jpg,stimuli/scenes/020a.jpg,stimuli/scenes/020b.jpg,dist1,dist2,target,lure,0,0,0,0,0,4,4,52,,,,,,,,,,,62.40255470000557,None,63.403275199991185,None,63.403275199991185,None,63.403275199991185,None,63.403275199991185,None,66.40311109999311,None,66.40311109999311,None,66.40311109999311,None,66.40311109999311,None,None,None,None,None,None,,,,,,,,,,ST02_112522,2022-11-25_15h05.43.955,Hippopolis_Updating,2021.1.4,60.23918570873442,
Hippopolis,stimuli/subj_files/ST02_112522_cityA.csv,./stimuli/seattle.jpg,./stimuli/street_plate1.png,MÁRVÁNY UTCA,stimuli/scenes/035a.jpg,scene,1,stimuli/scenes/042a.jpg,stimuli/scenes/112a.jpg,stimuli/scenes/042b.jpg,stimuli/scenes/112b.jpg,stimuli/scenes/042a.jpg,dist1,lure,dist2,target,0,0,0,0,0,5,5,61,,,,,,,,,,,68.40290849999292,None,69.40444660000503,None,69.40444660000503,None,69.40444660000503,None,69.40444660000503,None,72.42014580001705,None,72.42014580001705,None,72.42014580001705,None,72.42014580001705,None,None,None,None,None,None,,,,,,,,,,ST02_112522,2022-11-25_15h05.43.955,Hippopolis_Updating,2021.1.4,60.23918570873442,
Hippopolis,stimuli/subj_files/ST02_112522_cityA.csv,./stimuli/seattle.jpg,./stimuli/street_plate1.png,TENISZ UTCA,stimuli/scenes/039a.jpg,scene,1,stimuli/scenes/011a.jpg,stimuli/scenes/011a.jpg,stimuli/objects/051b.jpg,stimuli/scenes/011b.jpg,stimuli/objects/051a.jpg,target,dist2,lure,dist1,0,0,0,0,0,6,6,23,,,,,,,,,,,74.41962240001885,None,75.41903809999349,None,75.41903809999349,None,75.41903809999349,None,75.41903809999349,None,78.42011400000774,None,78.42011400000774,None,78.42011400000774,None,78.42011400000774,None,None,None,None,None,None,,,,,,,,,,ST02_112522,2022-11-25_15h05.43.955,Hippopolis_Updating,2021.1.4,60.23918570873442,
Hippopolis,stimuli/subj_files/ST02_112522_cityA.csv,./stimuli/seattle.jpg,./stimuli/street_plate1.png,LEMEZ UTCA,stimuli/scenes/111a.jpg,scene,2,stimuli/objects/106a.jpg,stimuli/scenes/065a.jpg,stimuli/objects/106a.jpg,stimuli/objects/106b.jpg,stimuli/scenes/065b.jpg,dist1,target,lure,dist2,0,0,0,0,0,7,7,49,,,,,,,,,,,80.41893630000413,None,81.41919040001812,None,81.41919040001812,None,81.41919040001812,None,81.41919040001812,None,84.42299880000064,None,84.42299880000064,None,84.42299880000064,None,84.42299880000064,None,None,None,None,None,None,,,,,,,,,,ST02_112522,2022-11-25_15h05.43.955,Hippopolis_Updating,2021.1.4,60.23918570873442,
Hippopolis,stimuli/subj_files/ST02_112522_cityA.csv,./stimuli/seattle.jpg,./stimuli/street_plate1.png,FÓKA UTCA,stimuli/scenes/085a.jpg,scene,0,stimuli/scenes/085a.jpg,stimuli/scenes/085b.jpg,stimuli/scenes/117a.jpg,stimuli/scenes/085a.jpg,stimuli/scenes/117b.jpg,lure,dist1,target,dist2,0,0,0,0,0,8,8,44,,,,,,,,,,,86.43546860001516,None,87.43639029999031,None,87.43639029999031,None,87.43639029999031,None,87.43639029999031,None,90.4369202000089,None,90.4369202000089,None,90.4369202000089,None,90.4369202000089,None,None,None,None,None,None,,,,,,,,,,ST02_112522,2022-11-25_15h05.43.955,Hippopolis_Updating,2021.1.4,60.23918570873442,
Hippopolis,stimuli/subj_files/ST02_112522_cityA.csv,./stimuli/seattle.jpg,./stimuli/street_plate1.png,VÖDÖR UTCA,stimuli/scenes/016a.jpg,scene,0,stimuli/scenes/016a.jpg,stimuli/objects/054b.jpg,stimuli/objects/054a.jpg,stimuli/scenes/016b.jpg,stimuli/scenes/016a.jpg,dist2,dist1,lure,target,0,0,0,0,0,9,9,8,,,,,,,,,,,92.43599930001074,None,93.43783509999048,None,93.43783509999048,None,93.43783509999048,None,93.43783509999048,None,96.45292879999033,None,96.45292879999033,None,96.45292879999033,None,96.45292879999033,None,None,None,None,None,None,,,,,,,,,,ST02_112522,2022-11-25_15h05.43.955,Hippopolis_Updating,2021.1.4,60.23918570873442,
Hippopolis,stimuli/subj_files/ST02_112522_cityA.csv,./stimuli/seattle.jpg,./stimuli/street_plate1.png,PADLÓ UTCA,stimuli/scenes/062a.jpg,scene,2,stimuli/objects/028a.jpg,stimuli/objects/028a.jpg,stimuli/objects/028b.jpg,stimuli/objects/103b.jpg,stimuli/objects/103a.jpg,target,lure,dist2,dist1,0,0,0,0,0,10,10,32,,,,,,,,,,,98.4519038000144,None,99.45276340001146,None,99.45276340001146,None,99.45276340001146,None,99.45276340001146,None,102.45570930000395,None,102.45570930000395,None,102.45570930000395,None,102.45570930000395,None,None,None,None,None,None,,,,,,,,,,ST02_112522,2022-11-25_15h05.43.955,Hippopolis_Updating,2021.1.4,60.23918570873442,
Hippopolis,stimuli/subj_files/ST02_112522_cityA.csv,./stimuli/seattle.jpg,./stimuli/street_plate1.png,MENTA UTCA,stimuli/objects/109a.jpg,object,2,stimuli/scenes/038a.jpg,stimuli/scenes/038a.jpg,stimuli/scenes/038b.jpg,stimuli/objects/061b.jpg,stimuli/objects/061a.jpg,target,lure,dist2,dist1,0,0,0,0,0,11,11,66,,,,,,,,,,,104.46895989999757,None,105.46947589999763,None,105.46947589999763,None,105.46947589999763,None,105.46947589999763,None,108.47046720000799,None,108.47046720000799,None,108.47046720000799,None,108.47046720000799,None,None,None,None,None,None,,,,,,,,,,ST02_112522,2022-11-25_15h05.43.955,Hippopolis_Updating,2021.1.4,60.23918570873442,
Hippopolis,stimuli/subj_files/ST02_112522_cityA.csv,./stimuli/seattle.jpg,./stimuli/street_plate1.png,VASALÓ UTCA,stimuli/objects/057a.jpg,object,0,stimuli/objects/057a.jpg,stimuli/scenes/016b.jpg,stimuli/objects/057b.jpg,stimuli/scenes/016a.jpg,stimuli/objects/057a.jpg,dist2,lure,dist1,target,0,0,0,0,0,12,12,64,,,,,,,,,,,110.48515930000576,None,111.48538289999124,None,111.48538289999124,None,111.48538289999124,None,111.48538289999124,None,114.48564830000396,None,114.48564830000396,None,114.48564830000396,None,114.48564830000396,None,None,None,None,None,None,,,,,,,,,,ST02_112522,2022-11-25_15h05.43.955,Hippopolis_Updating,2021.1.4,60.23918570873442,
Hippopolis,stimuli/subj_files/ST02_112522_cityA.csv,./stimuli/seattle.jpg,./stimuli/street_plate1.png,RÁDIÓ UTCA,stimuli/scenes/007a.jpg,scene,0,stimuli/scenes/007a.jpg,stimuli/scenes/114b.jpg,stimuli/scenes/114a.jpg,stimuli/scenes/007a.jpg,stimuli/scenes/007b.jpg,dist2,dist1,target,lure,0,0,0,0,0,13,13,41,,,,,,,,,,,116.48551620001672,None,117.48566239999491,None,117.48566239999491,None,117.48566239999491,None,117.48566239999491,None,120.48577210001531,None,120.48577210001531,None,120.48577210001531,None,120.48577210001531,None,None,None,None,None,None,,,,,,,,,,ST02_112522,2022-11-25_15h05.43.955,Hippopolis_Updating,2021.1.4,60.23918570873442,
Hippopolis,stimuli/subj_files/ST02_112522_cityA.csv,./stimuli/seattle.jpg,./stimuli/street_plate1.png,SZAPPAN UTCA,stimuli/objects/011a.jpg,object,0,stimuli/objects/011a.jpg,stimuli/objects/011b.jpg,stimuli/scenes/010a.jpg,stimuli/scenes/010b.jpg,stimuli/objects/011a.jpg,lure,dist1,dist2,target,0,0,0,0,0,14,14,76,,,,,,,,,,,122.48546739999438,None,123.4854606000008,None,123.4854606000008,None,123.4854606000008,None,123.4854606000008,None,126.48707150001428,None,126.48707150001428,None,126.48707150001428,None,126.48707150001428,None,None,None,None,None,None,,,,,,,,,,ST02_112522,2022-11-25_15h05.43.955,Hippopolis_Updating,2021.1.4,60.23918570873442,
Hippopolis,stimuli/subj_files/ST02_112522_cityA.csv,./stimuli/seattle.jpg,./stimuli/street_plate1.png,SZŐNYEG UTCA,stimuli/scenes/036a.jpg,scene,0,stimuli/scenes/036a.jpg,stimuli/scenes/007a.jpg,stimuli/scenes/036a.jpg,stimuli/scenes/036b.jpg,stimuli/scenes/007b.jpg,dist1,target,lure,dist2,0,0,0,0,0,15,15,26,,,,,,,,,,,128.50154800000018,None,129.50214930000948,None,129.50214930000948,None,129.50214930000948,None,129.50214930000948,None,132.502681700018,None,132.502681700018,None,132.502681700018,None,132.502681700018,None,None,None,None,None,None,,,,,,,,,,ST02_112522,2022-11-25_15h05.43.955,Hippopolis_Updating,2021.1.4,60.23918570873442,
Hippopolis,stimuli/subj_files/ST02_112522_cityA.csv,./stimuli/seattle.jpg,./stimuli/street_plate1.png,AKÁC UTCA,stimuli/scenes/063a.jpg,scene,1,stimuli/scenes/071a.jpg,stimuli/scenes/071a.jpg,stimuli/scenes/071b.jpg,stimuli/scenes/091b.jpg,stimuli/scenes/091a.jpg,target,lure,dist2,dist1,0,0,0,0,0,16,16,50,,,,,,,,,,,134.5013067999971,None,135.50157089999993,None,135.50157089999993,None,135.50157089999993,None,135.50157089999993,None,138.50171179999597,None,138.50171179999597,None,138.50171179999597,None,138.50171179999597,None,None,None,None,None,None,,,,,,,,,,ST02_112522,2022-11-25_15h05.43.955,Hippopolis_Updating,2021.1.4,60.23918570873442,
Hippopolis,stimuli/subj_files/ST02_112522_cityA.csv,./stimuli/seattle.jpg,./stimuli/street_plate1.png,FÉNYKÉP UTCA,stimuli/objects/036a.jpg,object,0,stimuli/objects/036a.jpg,stimuli/scenes/036a.jpg,stimuli/scenes/036b.jpg,stimuli/objects/036b.jpg,stimuli/objects/036a.jpg,dist1,dist2,lure,target,0,0,0,0,0,17,17,24,,,,,,,,,,,140.50120920001063,None,141.5019481999916,None,141.5019481999916,None,141.5019481999916,None,141.5019481999916,None,144.50819140000385,None,144.50819140000385,None,144.50819140000385,None,144.50819140000385,None,None,None,None,None,None,,,,,,,,,,ST02_112522,2022-11-25_15h05.43.955,Hippopolis_Updating,2021.1.4,60.23918570873442,
Hippopolis,stimuli/subj_files/ST02_112522_cityA.csv,./stimuli/seattle.jpg,./stimuli/street_plate1.png,BOHÓC UTCA,stimuli/objects/120a.jpg,object,2,stimuli/scenes/079a.jpg,stimuli/scenes/038b.jpg,stimuli/scenes/079a.jpg,stimuli/scenes/038a.jpg,stimuli/scenes/079b.jpg,dist2,target,dist1,lure,0,0,0,0,0,18,18,36,,,,,,,,,,,146.51826959999744,None,147.51872779999394,None,147.51872779999394,None,147.51872779999394,None,147.51872779999394,None,150.51918850000948,None,150.51918850000948,None,150.51918850000948,None,150.51918850000948,None,None,None,None,None,None,,,,,,,,,,ST02_112522,2022-11-25_15h05.43.955,Hippopolis_Updating,2021.1.4,60.23918570873442,
Hippopolis,stimuli/subj_files/ST02_112522_cityA.csv,./stimuli/seattle.jpg,./stimuli/street_plate1.png,KORONA UTCA,stimuli/scenes/116a.jpg,scene,1,stimuli/scenes/104a.jpg,stimuli/scenes/104b.jpg,stimuli/scenes/018a.jpg,stimuli/scenes/104a.jpg,stimuli/scenes/018b.jpg,lure,dist1,target,dist2,0,0,0,0,0,19,19,56,,,,,,,,,,,152.5177204000065,None,153.51804709999124,None,153.51804709999124,None,153.51804709999124,None,153.51804709999124,None,156.51788410000154,None,156.51788410000154,None,156.51788410000154,None,156.51788410000154,None,None,None,None,None,None,,,,,,,,,,ST02_112522,2022-11-25_15h05.43.955,Hippopolis_Updating,2021.1.4,60.23918570873442,
Hippopolis,stimuli/subj_files/ST02_112522_cityA.csv,./stimuli/seattle.jpg,./stimuli/street_plate1.png,KRÉTA UTCA,stimuli/scenes/119a.jpg,scene,0,stimuli/scenes/119a.jpg,stimuli/objects/035b.jpg,stimuli/scenes/119b.jpg,stimuli/objects/035a.jpg,stimuli/scenes/119a.jpg,dist2,lure,dist1,target,0,0,0,0,0,20,20,79,,,,,,,,,,,158.51756239999668,None,159.51787949999562,None,159.51787949999562,None,159.51787949999562,None,159.51787949999562,None,162.5204483999987,None,162.5204483999987,None,162.5204483999987,None,162.5204483999987,None,None,None,None,None,None,,,,,,,,,,ST02_112522,2022-11-25_15h05.43.955,Hippopolis_Updating,2021.1.4,60.23918570873442,
Hippopolis,stimuli/subj_files/ST02_112522_cityA.csv,./stimuli/seattle.jpg,./stimuli/street_plate1.png,KÖMÉNYMAG UTCA,stimuli/objects/026a.jpg,object,2,stimuli/scenes/108a.jpg,stimuli/scenes/108b.jpg,stimuli/objects/006b.jpg,stimuli/scenes/108a.jpg,stimuli/objects/006a.jpg,lure,dist2,target,dist1,0,0,0,0,0,21,21,14,,,,,,,,,,,164.53404279999086,None,165.53459359999397,None,165.53459359999397,None,165.53459359999397,None,165.53459359999397,None,168.53721790001146,None,168.53721790001146,None,168.53721790001146,None,168.53721790001146,None,None,None,None,None,None,,,,,,,,,,ST02_112522,2022-11-25_15h05.43.955,Hippopolis_Updating,2021.1.4,60.23918570873442,
Hippopolis,stimuli/subj_files/ST02_112522_cityA.csv,./stimuli/seattle.jpg,./stimuli/street_plate1.png,TÁSKA UTCA,stimuli/scenes/049a.jpg,scene,1,stimuli/scenes/112a.jpg,stimuli/objects/030b.jpg,stimuli/objects/030a.jpg,stimuli/scenes/112a.jpg,stimuli/scenes/112b.jpg,dist2,dist1,target,lure,0,0,0,0,0,22,22,9,,,,,,,,,,,170.55120509999688,None,171.55156680001528,None,171.55156680001528,None,171.55156680001528,None,171.55156680001528,None,174.55578830000013,None,174.55578830000013,None,174.55578830000013,None,174.55578830000013,None,None,None,None,None,None,,,,,,,,,,ST02_112522,2022-11-25_15h05.43.955,Hippopolis_Updating,2021.1.4,60.23918570873442,
Hippopolis,stimuli/subj_files/ST02_112522_cityA.csv,./stimuli/seattle.jpg,./stimuli/street_plate1.png,HARCSA UTCA,stimuli/objects/098a.jpg,object,2,stimuli/scenes/090a.jpg,stimuli/scenes/090b.jpg,stimuli/scenes/090a.jpg,stimuli/scenes/110a.jpg,stimuli/scenes/110b.jpg,lure,target,dist1,dist2,0,0,0,0,0,23,23,78,,,,,,,,,,,176.56750520001515,None,177.56768510001712,None,177.56768510001712,None,177.56768510001712,None,177.56768510001712,None,180.56843459999072,None,180.56843459999072,None,180.56843459999072,None,180.56843459999072,None,None,None,None,None,None,,,,,,,,,,ST02_112522,2022-11-25_15h05.43.955,Hippopolis_Updating,2021.1.4,60.23918570873442,
Hippopolis,stimuli/subj_files/ST02_112522_cityA.csv,./stimuli/seattle.jpg,./stimuli/street_plate1.png,ZONGORA UTCA,stimuli/scenes/056a.jpg,scene,0,stimuli/scenes/056a.jpg,stimuli/objects/011a.jpg,stimuli/scenes/056b.jpg,stimuli/objects/011b.jpg,stimuli/scenes/056a.jpg,dist1,lure,dist2,target,0,0,0,0,0,24,24,37,,,,,,,,,,,182.56729050001013,None,183.56804849999025,None,183.56804849999025,None,183.56804849999025,None,183.56804849999025,None,186.58419829999912,None,186.58419829999912,None,186.58419829999912,None,186.58419829999912,None,None,None,None,None,None,,,,,,,,,,ST02_112522,2022-11-25_15h05.43.955,Hippopolis_Updating,2021.1.4,60.23918570873442,
Hippopolis,stimuli/subj_files/ST02_112522_cityA.csv,./stimuli/seattle.jpg,./stimuli/street_plate1.png,FÉSŰ UTCA,stimuli/scenes/092a.jpg,scene,1,stimuli/scenes/091a.jpg,stimuli/scenes/020b.jpg,stimuli/scenes/091b.jpg,stimuli/scenes/091a.jpg,stimuli/scenes/020a.jpg,dist2,lure,target,dist1,0,0,0,0,0,25,25,54,,,,,,,,,,,188.58376720000524,None,189.58378010001616,None,189.58378010001616,None,189.58378010001616,None,189.58378010001616,None,192.58715830001165,None,192.58715830001165,None,192.58715830001165,None,192.58715830001165,None,None,None,None,None,None,,,,,,,,,,ST02_112522,2022-11-25_15h05.43.955,Hippopolis_Updating,2021.1.4,60.23918570873442,
Hippopolis,stimuli/subj_files/ST02_112522_cityA.csv,./stimuli/seattle.jpg,./stimuli/street_plate1.png,PALACK UTCA,stimuli/objects/010a.jpg,object,2,stimuli/scenes/041a.jpg,stimuli/scenes/090a.jpg,stimuli/scenes/041b.jpg,stimuli/scenes/041a.jpg,stimuli/scenes/090b.jpg,dist1,lure,target,dist2,0,0,0,0,0,26,26,3,,,,,,,,,,,194.6001307000115,None,195.60056550000445,None,195.60056550000445,None,195.60056550000445,None,195.60056550000445,None,198.60106640000595,None,198.60106640000595,None,198.60106640000595,None,198.60106640000595,None,None,None,None,None,None,,,,,,,,,,ST02_112522,2022-11-25_15h05.43.955,Hippopolis_Updating,2021.1.4,60.23918570873442,
Hippopolis,stimuli/subj_files/ST02_112522_cityA.csv,./stimuli/seattle.jpg,./stimuli/street_plate1.png,BANÁN UTCA,stimuli/objects/015a.jpg,object,2,stimuli/scenes/073a.jpg,stimuli/scenes/073a.jpg,stimuli/objects/009a.jpg,stimuli/objects/009b.jpg,stimuli/scenes/073b.jpg,target,dist1,dist2,lure,0,0,0,0,0,27,27,43,,,,,,,,,,,200.60056550000445,None,201.60095019999426,None,201.60095019999426,None,201.60095019999426,None,201.60095019999426,None,204.60061190000852,None,204.60061190000852,None,204.60061190000852,None,204.60061190000852,None,None,None,None,None,None,,,,,,,,,,ST02_112522,2022-11-25_15h05.43.955,Hippopolis_Updating,2021.1.4,60.23918570873442,
Hippopolis,stimuli/subj_files/ST02_112522_cityA.csv,./stimuli/seattle.jpg,./stimuli/street_plate1.png,GYŰRŰ UTCA,stimuli/objects/012a.jpg,object,1,stimuli/objects/019a.jpg,stimuli/objects/019a.jpg,stimuli/objects/019b.jpg,stimuli/scenes/013b.jpg,stimuli/scenes/013a.jpg,target,lure,dist2,dist1,0,0,0,0,0,28,28,28,,,,,,,,,,,206.6000142999983,None,207.60086450001108,None,207.60086450001108,None,207.60086450001108,None,207.60086450001108,None,210.6023053000099,None,210.6023053000099,None,210.6023053000099,None,210.6023053000099,None,None,None,None,None,None,,,,,,,,,,ST02_112522,2022-11-25_15h05.43.955,Hippopolis_Updating,2021.1.4,60.23918570873442,
Hippopolis,stimuli/subj_files/ST02_112522_cityA.csv,./stimuli/seattle.jpg,./stimuli/street_plate1.png,CITROM UTCA,stimuli/scenes/043a.jpg,scene,2,stimuli/objects/117a.jpg,stimuli/objects/117a.jpg,stimuli/objects/022a.jpg,stimuli/objects/022b.jpg,stimuli/objects/117b.jpg,target,dist1,dist2,lure,0,0,0,0,0,29,29,29,,,,,,,,,,,212.61660599999595,None,213.61724870000035,None,213.61724870000035,None,213.61724870000035,None,213.61724870000035,None,216.6198052999971,None,216.6198052999971,None,216.6198052999971,None,216.6198052999971,None,None,None,None,None,None,,,,,,,,,,ST02_112522,2022-11-25_15h05.43.955,Hippopolis_Updating,2021.1.4,60.23918570873442,
Hippopolis,stimuli/subj_files/ST02_112522_cityA.csv,./stimuli/seattle.jpg,./stimuli/street_plate1.png,KARTON UTCA,stimuli/objects/020a.jpg,object,0,stimuli/objects/020a.jpg,stimuli/objects/020b.jpg,stimuli/objects/081b.jpg,stimuli/objects/020a.jpg,stimuli/objects/081a.jpg,lure,dist2,target,dist1,0,0,0,0,0,30,30,57,,,,,,,,,,,218.63368349999655,None,219.63399450000725,None,219.63399450000725,None,219.63399450000725,None,219.63399450000725,None,222.63450190000003,None,222.63450190000003,None,222.63450190000003,None,222.63450190000003,None,None,None,None,None,None,,,,,,,,,,ST02_112522,2022-11-25_15h05.43.955,Hippopolis_Updating,2021.1.4,60.23918570873442,
Hippopolis,stimuli/subj_files/ST02_112522_cityA.csv,./stimuli/seattle.jpg,./stimuli/street_plate1.png,TOLMÁCS UTCA,stimuli/objects/044a.jpg,object,2,stimuli/scenes/110a.jpg,stimuli/scenes/110a.jpg,stimuli/scenes/110b.jpg,stimuli/objects/028b.jpg,stimuli/objects/028a.jpg,target,lure,dist2,dist1,0,0,0,0,0,31,31,63,,,,,,,,,,,224.63313649999327,None,225.6336685999995,None,225.6336685999995,None,225.6336685999995,None,225.6336685999995,None,228.63648109999485,None,228.63648109999485,None,228.63648109999485,None,228.63648109999485,None,None,None,None,None,None,,,,,,,,,,ST02_112522,2022-11-25_15h05.43.955,Hippopolis_Updating,2021.1.4,60.23918570873442,
Hippopolis,stimuli/subj_files/ST02_112522_cityA.csv,./stimuli/seattle.jpg,./stimuli/street_plate1.png,PIZSAMA UTCA,stimuli/scenes/008a.jpg,scene,2,stimuli/objects/006a.jpg,stimuli/objects/006b.jpg,stimuli/objects/091a.jpg,stimuli/objects/006a.jpg,stimuli/objects/091b.jpg,lure,dist1,target,dist2,0,0,0,0,0,32,32,11,,,,,,,,,,,230.6500442000106,None,231.64994130001287,None,231.64994130001287,None,231.64994130001287,None,231.64994130001287,None,234.65057630001684,None,234.65057630001684,None,234.65057630001684,None,234.65057630001684,None,None,None,None,None,None,,,,,,,,,,ST02_112522,2022-11-25_15h05.43.955,Hippopolis_Updating,2021.1.4,60.23918570873442,
Hippopolis,stimuli/subj_files/ST02_112522_cityA.csv,./stimuli/seattle.jpg,./stimuli/street_plate1.png,LABDA UTCA,stimuli/objects/063a.jpg,object,1,stimuli/objects/016a.jpg,stimuli/objects/095b.jpg,stimuli/objects/016b.jpg,stimuli/objects/095a.jpg,stimuli/objects/016a.jpg,dist2,lure,dist1,target,0,0,0,0,0,33,33,47,,,,,,,,,,,236.64944830001332,None,237.6499155999918,None,237.6499155999918,None,237.6499155999918,None,237.6499155999918,None,240.65059120001388,None,240.65059120001388,None,240.65059120001388,None,240.65059120001388,None,None,None,None,None,None,,,,,,,,,,ST02_112522,2022-11-25_15h05.43.955,Hippopolis_Updating,2021.1.4,60.23918570873442,
Hippopolis,stimuli/subj_files/ST02_112522_cityA.csv,./stimuli/seattle.jpg,./stimuli/street_plate1.png,VITORLA UTCA,stimuli/objects/027a.jpg,object,2,stimuli/scenes/094a.jpg,stimuli/objects/056a.jpg,stimuli/scenes/094a.jpg,stimuli/objects/056b.jpg,stimuli/scenes/094b.jpg,dist1,target,dist2,lure,0,0,0,0,0,34,34,17,,,,,,,,,,,242.64997940001194,None,243.64987560000736,None,243.64987560000736,None,243.64987560000736,None,243.64987560000736,None,246.65136390001862,None,246.65136390001862,None,246.65136390001862,None,246.65136390001862,None,None,None,None,None,None,,,,,,,,,,ST02_112522,2022-11-25_15h05.43.955,Hippopolis_Updating,2021.1.4,60.23918570873442,
Hippopolis,stimuli/subj_files/ST02_112522_cityA.csv,./stimuli/seattle.jpg,./stimuli/street_plate1.png,OLDAL UTCA,stimuli/objects/079a.jpg,object,0,stimuli/objects/079a.jpg,stimuli/objects/079a.jpg,stimuli/scenes/120a.jpg,stimuli/objects/079b.jpg,stimuli/scenes/120b.jpg,target,dist1,lure,dist2,0,0,0,0,0,35,35,70,,,,,,,,,,,248.6658424999914,None,249.6662511000177,None,249.6662511000177,None,249.6662511000177,None,249.6662511000177,None,252.66692069999408,None,252.66692069999408,None,252.66692069999408,None,252.66692069999408,None,None,None,None,None,None,,,,,,,,,,ST02_112522,2022-11-25_15h05.43.955,Hippopolis_Updating,2021.1.4,60.23918570873442,
Hippopolis,stimuli/subj_files/ST02_112522_cityA.csv,./stimuli/seattle.jpg,./stimuli/street_plate1.png,KIRAKÓ UTCA,stimuli/objects/024a.jpg,object,2,stimuli/scenes/047a.jpg,stimuli/objects/068a.jpg,stimuli/scenes/047b.jpg,stimuli/objects/068b.jpg,stimuli/scenes/047a.jpg,dist1,lure,dist2,target,0,0,0,0,0,36,36,19,,,,,,,,,,,254.6659917999932,None,255.66612890001852,None,255.66612890001852,None,255.66612890001852,None,255.66612890001852,None,258.66781210000045,None,258.66781210000045,None,258.66781210000045,None,258.66781210000045,None,None,None,None,None,None,,,,,,,,,,ST02_112522,2022-11-25_15h05.43.955,Hippopolis_Updating,2021.1.4,60.23918570873442,
Hippopolis,stimuli/subj_files/ST02_112522_cityA.csv,./stimuli/seattle.jpg,./stimuli/street_plate1.png,ORVOS UTCA,stimuli/scenes/060a.jpg,scene,0,stimuli/scenes/060a.jpg,stimuli/scenes/060b.jpg,stimuli/scenes/060a.jpg,stimuli/scenes/060a.jpg,stimuli/scenes/060b.jpg,lure,dist1,target,dist2,0,0,0,0,0,37,37,20,,,,,,,,,,,260.68253360001836,None,261.6833620000107,None,261.6833620000107,None,261.6833620000107,None,261.6833620000107,None,264.6834022999974,None,264.6834022999974,None,264.6834022999974,None,264.6834022999974,None,None,None,None,None,None,,,,,,,,,,ST02_112522,2022-11-25_15h05.43.955,Hippopolis_Updating,2021.1.4,60.23918570873442,
Hippopolis,stimuli/subj_files/ST02_112522_cityA.csv,./stimuli/seattle.jpg,./stimuli/street_plate1.png,KÖNYVTÁR UTCA,stimuli/objects/094a.jpg,object,1,stimuli/objects/062a.jpg,stimuli/objects/062b.jpg,stimuli/objects/062a.jpg,stimuli/objects/099a.jpg,stimuli/objects/099b.jpg,lure,target,dist1,dist2,0,0,0,0,0,38,38,33,,,,,,,,,,,266.68236540001817,None,267.68311859999085,None,267.68311859999085,None,267.68311859999085,None,267.68311859999085,None,270.6844281000085,None,270.6844281000085,None,270.6844281000085,None,270.6844281000085,None,None,None,None,None,None,,,,,,,,,,ST02_112522,2022-11-25_15h05.43.955,Hippopolis_Updating,2021.1.4,60.23918570873442,
Hippopolis,stimuli/subj_files/ST02_112522_cityA.csv,./stimuli/seattle.jpg,./stimuli/street_plate1.png,PAPAGÁJ UTCA,stimuli/objects/114a.jpg,object,0,stimuli/objects/114a.jpg,stimuli/objects/114a.jpg,stimuli/objects/052b.jpg,stimuli/objects/052a.jpg,stimuli/objects/114b.jpg,target,dist2,dist1,lure,0,0,0,0,0,39,39,48,,,,,,,,,,,272.69877720001386,None,273.70062220000545,None,273.70062220000545,None,273.70062220000545,None,273.70062220000545,None,276.7174941000121,None,276.7174941000121,None,276.7174941000121,None,276.7174941000121,None,None,None,None,None,None,,,,,,,,,,ST02_112522,2022-11-25_15h05.43.955,Hippopolis_Updating,2021.1.4,60.23918570873442,
Hippopolis,stimuli/subj_files/ST02_112522_cityA.csv,./stimuli/seattle.jpg,./stimuli/street_plate1.png,PAPRIKA UTCA,stimuli/scenes/082a.jpg,scene,2,stimuli/objects/009a.jpg,stimuli/objects/106b.jpg,stimuli/objects/106a.jpg,stimuli/objects/009a.jpg,stimuli/objects/009b.jpg,dist2,dist1,target,lure,0,0,0,0,0,40,40,59,,,,,,,,,,,278.715442500019,None,279.71586560001015,None,279.71586560001015,None,279.71586560001015,None,279.71586560001015,None,282.7165173999965,None,282.7165173999965,None,282.7165173999965,None,282.7165173999965,None,None,None,None,None,None,,,,,,,,,,ST02_112522,2022-11-25_15h05.43.955,Hippopolis_Updating,2021.1.4,60.23918570873442,
Hippopolis,stimuli/subj_files/ST02_112522_cityA.csv,./stimuli/seattle.jpg,./stimuli/street_plate1.png,PÁRNA UTCA,stimuli/objects/021a.jpg,object,2,stimuli/scenes/046a.jpg,stimuli/scenes/073b.jpg,stimuli/scenes/046a.jpg,stimuli/scenes/046b.jpg,stimuli/scenes/073a.jpg,dist2,target,lure,dist1,0,0,0,0,0,41,41,40,,,,,,,,,,,284.7154689000163,None,285.7161785000062,None,285.7161785000062,None,285.7161785000062,None,285.7161785000062,None,288.71607359999325,None,288.71607359999325,None,288.71607359999325,None,288.71607359999325,None,None,None,None,None,None,,,,,,,,,,ST02_112522,2022-11-25_15h05.43.955,Hippopolis_Updating,2021.1.4,60.23918570873442,
Hippopolis,stimuli/subj_files/ST02_112522_cityA.csv,./stimuli/seattle.jpg,./stimuli/street_plate1.png,BÚJÓCSKA UTCA,stimuli/objects/035a.jpg,object,0,stimuli/objects/035a.jpg,stimuli/objects/034b.jpg,stimuli/objects/035a.jpg,stimuli/objects/034a.jpg,stimuli/objects/035b.jpg,dist2,target,dist1,lure,0,0,0,0,0,42,42,2,,,,,,,,,,,290.71526150000864,None,291.71542890000273,None,291.71542890000273,None,291.71542890000273,None,291.71542890000273,None,294.71979100001045,None,294.71979100001045,None,294.71979100001045,None,294.71979100001045,None,None,None,None,None,None,,,,,,,,,,ST02_112522,2022-11-25_15h05.43.955,Hippopolis_Updating,2021.1.4,60.23918570873442,
Hippopolis,stimuli/subj_files/ST02_112522_cityA.csv,./stimuli/seattle.jpg,./stimuli/street_plate1.png,MUNKA UTCA,stimuli/scenes/004a.jpg,scene,2,stimuli/objects/022a.jpg,stimuli/objects/022b.jpg,stimuli/objects/022a.jpg,stimuli/scenes/051a.jpg,stimuli/scenes/051b.jpg,lure,target,dist1,dist2,0,0,0,0,0,43,43,58,,,,,,,,,,,296.7316468000063,None,297.73224300000584,None,297.73224300000584,None,297.73224300000584,None,297.73224300000584,None,300.73474169999827,None,300.73474169999827,None,300.73474169999827,None,300.73474169999827,None,None,None,None,None,None,,,,,,,,,,ST02_112522,2022-11-25_15h05.43.955,Hippopolis_Updating,2021.1.4,60.23918570873442,
Hippopolis,stimuli/subj_files/ST02_112522_cityA.csv,./stimuli/seattle.jpg,./stimuli/street_plate1.png,ASZTAL UTCA,stimuli/scenes/072a.jpg,scene,2,stimuli/objects/001a.jpg,stimuli/objects/001a.jpg,stimuli/scenes/079b.jpg,stimuli/scenes/079a.jpg,stimuli/objects/001b.jpg,target,dist2,dist1,lure,0,0,0,0,0,44,44,42,,,,,,,,,,,302.7484647000092,None,303.748668300017,None,303.748668300017,None,303.748668300017,None,303.748668300017,None,306.7492060000077,None,306.7492060000077,None,306.7492060000077,None,306.7492060000077,None,308.7483179999981,None,space,308.7483179999981,None,18.115061399992555,,,,,,,,,ST02_112522,2022-11-25_15h05.43.955,Hippopolis_Updating,2021.1.4,60.23918570873442,
Hippopolis,stimuli/subj_files/ST02_112522_cityA.csv,./stimuli/seattle.jpg,./stimuli/street_plate1.png,KOCKA UTCA,stimuli/scenes/002a.jpg,scene,2,stimuli/objects/111a.jpg,stimuli/objects/111a.jpg,stimuli/objects/072a.jpg,stimuli/objects/072b.jpg,stimuli/objects/111b.jpg,target,dist1,dist2,lure,0,0,0,0,0,45,45,16,,,,,,,,,,,326.8811747000145,None,327.88115550001385,None,327.88115550001385,None,327.88115550001385,None,327.88115550001385,None,330.8872046000033,None,330.8872046000033,None,330.8872046000033,None,330.8872046000033,None,None,None,None,None,None,,,,,,,,,,ST02_112522,2022-11-25_15h05.43.955,Hippopolis_Updating,2021.1.4,60.23918570873442,
Hippopolis,stimuli/subj_files/ST02_112522_cityA.csv,./stimuli/seattle.jpg,./stimuli/street_plate1.png,SZAXOFON UTCA,stimuli/scenes/103a.jpg,scene,1,stimuli/scenes/018a.jpg,stimuli/scenes/071b.jpg,stimuli/scenes/018a.jpg,stimuli/scenes/071a.jpg,stimuli/scenes/018b.jpg,dist2,target,dist1,lure,0,0,0,0,0,46,46,55,,,,,,,,,,,332.8980753000069,None,333.90000759999384,None,333.90000759999384,None,333.90000759999384,None,333.90000759999384,None,336.9156457000063,None,336.9156457000063,None,336.9156457000063,None,336.9156457000063,None,None,None,None,None,None,,,,,,,,,,ST02_112522,2022-11-25_15h05.43.955,Hippopolis_Updating,2021.1.4,60.23918570873442,
Hippopolis,stimuli/subj_files/ST02_112522_cityA.csv,./stimuli/seattle.jpg,./stimuli/street_plate1.png,KULLANCS UTCA,stimuli/scenes/057a.jpg,scene,1,stimuli/scenes/066a.jpg,stimuli/scenes/080a.jpg,stimuli/scenes/066b.jpg,stimuli/scenes/080b.jpg,stimuli/scenes/066a.jpg,dist1,lure,dist2,target,0,0,0,0,0,47,47,71,,,,,,,,,,,338.9142498000001,None,339.91525170000386,None,339.91525170000386,None,339.91525170000386,None,339.91525170000386,None,342.91494799999055,None,342.91494799999055,None,342.91494799999055,None,342.91494799999055,None,None,None,None,None,None,,,,,,,,,,ST02_112522,2022-11-25_15h05.43.955,Hippopolis_Updating,2021.1.4,60.23918570873442,
Hippopolis,stimuli/subj_files/ST02_112522_cityA.csv,./stimuli/seattle.jpg,./stimuli/street_plate1.png,HARMONIKA UTCA,stimuli/objects/023a.jpg,object,1,stimuli/objects/090a.jpg,stimuli/objects/090a.jpg,stimuli/objects/092b.jpg,stimuli/objects/092a.jpg,stimuli/objects/090b.jpg,target,dist2,dist1,lure,0,0,0,0,0,48,48,25,,,,,,,,,,,344.9142639999918,None,345.9137833999994,None,345.9137833999994,None,345.9137833999994,None,345.9137833999994,None,348.9183469999989,None,348.9183469999989,None,348.9183469999989,None,348.9183469999989,None,None,None,None,None,None,,,,,,,,,,ST02_112522,2022-11-25_15h05.43.955,Hippopolis_Updating,2021.1.4,60.23918570873442,
Hippopolis,stimuli/subj_files/ST02_112522_cityA.csv,./stimuli/seattle.jpg,./stimuli/street_plate1.png,REPÜLŐ UTCA,stimuli/objects/048a.jpg,object,1,stimuli/objects/095a.jpg,stimuli/objects/095a.jpg,stimuli/scenes/042b.jpg,stimuli/scenes/042a.jpg,stimuli/objects/095b.jpg,target,dist2,dist1,lure,0,0,0,0,0,49,49,60,,,,,,,,,,,350.93082860001596,None,351.9315903999959,None,351.9315903999959,None,351.9315903999959,None,351.9315903999959,None,354.9321853000147,None,354.9321853000147,None,354.9321853000147,None,354.9321853000147,None,None,None,None,None,None,,,,,,,,,,ST02_112522,2022-11-25_15h05.43.955,Hippopolis_Updating,2021.1.4,60.23918570873442,
Hippopolis,stimuli/subj_files/ST02_112522_cityA.csv,./stimuli/seattle.jpg,./stimuli/street_plate1.png,KERÉK UTCA,stimuli/objects/039a.jpg,object,1,stimuli/objects/097a.jpg,stimuli/objects/019a.jpg,stimuli/objects/097b.jpg,stimuli/objects/019b.jpg,stimuli/objects/097a.jpg,dist1,lure,dist2,target,0,0,0,0,0,50,50,15,,,,,,,,,,,356.947854500002,None,357.9479675999901,None,357.9479675999901,None,357.9479675999901,None,357.9479675999901,None,360.94870269999956,None,360.94870269999956,None,360.94870269999956,None,360.94870269999956,None,None,None,None,None,None,,,,,,,,,,ST02_112522,2022-11-25_15h05.43.955,Hippopolis_Updating,2021.1.4,60.23918570873442,
Hippopolis,stimuli/subj_files/ST02_112522_cityA.csv,./stimuli/seattle.jpg,./stimuli/street_plate1.png,HORGONY UTCA,stimuli/objects/031a.jpg,object,0,stimuli/objects/031a.jpg,stimuli/objects/031a.jpg,stimuli/objects/031b.jpg,stimuli/scenes/085a.jpg,stimuli/scenes/085b.jpg,target,lure,dist1,dist2,0,0,0,0,0,51,51,75,,,,,,,,,,,362.9472221000178,None,363.9475738000183,None,363.9475738000183,None,363.9475738000183,None,363.9475738000183,None,366.9478658000007,None,366.9478658000007,None,366.9478658000007,None,366.9478658000007,None,None,None,None,None,None,,,,,,,,,,ST02_112522,2022-11-25_15h05.43.955,Hippopolis_Updating,2021.1.4,60.23918570873442,
Hippopolis,stimuli/subj_files/ST02_112522_cityA.csv,./stimuli/seattle.jpg,./stimuli/street_plate1.png,EGÉR UTCA,stimuli/scenes/120a.jpg,scene,0,stimuli/scenes/120a.jpg,stimuli/scenes/056b.jpg,stimuli/scenes/120a.jpg,stimuli/scenes/056a.jpg,stimuli/scenes/120b.jpg,dist2,target,dist1,lure,0,0,0,0,0,52,52,35,,,,,,,,,,,368.94727840000996,None,369.94802870001877,None,369.94802870001877,None,369.94802870001877,None,369.94802870001877,None,372.94767120000324,None,372.94767120000324,None,372.94767120000324,None,372.94767120000324,None,None,None,None,None,None,,,,,,,,,,ST02_112522,2022-11-25_15h05.43.955,Hippopolis_Updating,2021.1.4,60.23918570873442,
Hippopolis,stimuli/subj_files/ST02_112522_cityA.csv,./stimuli/seattle.jpg,./stimuli/street_plate1.png,KÍGYÓ UTCA,stimuli/scenes/117a.jpg,scene,0,stimuli/scenes/117a.jpg,stimuli/objects/020b.jpg,stimuli/scenes/117b.jpg,stimuli/objects/020a.jpg,stimuli/scenes/117a.jpg,dist2,lure,dist1,target,0,0,0,0,0,53,53,5,,,,,,,,,,,374.94718190000276,None,375.9470693000185,None,375.9470693000185,None,375.9470693000185,None,375.9470693000185,None,378.94917490001535,None,378.94917490001535,None,378.94917490001535,None,378.94917490001535,None,None,None,None,None,None,,,,,,,,,,ST02_112522,2022-11-25_15h05.43.955,Hippopolis_Updating,2021.1.4,60.23918570873442,
Hippopolis,stimuli/subj_files/ST02_112522_cityA.csv,./stimuli/seattle.jpg,./stimuli/street_plate1.png,ÁLLOMÁS UTCA,stimuli/scenes/053a.jpg,scene,1,stimuli/scenes/015a.jpg,stimuli/objects/038b.jpg,stimuli/scenes/015b.jpg,stimuli/scenes/015a.jpg,stimuli/objects/038a.jpg,dist2,lure,target,dist1,0,0,0,0,0,54,54,67,,,,,,,,,,,380.96353629999794,None,381.9645376999979,None,381.9645376999979,None,381.9645376999979,None,381.9645376999979,None,384.9656733000011,None,384.9656733000011,None,384.9656733000011,None,384.9656733000011,None,None,None,None,None,None,,,,,,,,,,ST02_112522,2022-11-25_15h05.43.955,Hippopolis_Updating,2021.1.4,60.23918570873442,
Hippopolis,stimuli/subj_files/ST02_112522_cityA.csv,./stimuli/seattle.jpg,./stimuli/street_plate1.png,KÁRTYA UTCA,stimuli/objects/018a.jpg,object,1,stimuli/objects/003a.jpg,stimuli/objects/003b.jpg,stimuli/objects/016b.jpg,stimuli/objects/003a.jpg,stimuli/objects/016a.jpg,lure,dist2,target,dist1,0,0,0,0,0,55,55,68,,,,,,,,,,,386.9806976999971,None,387.98080079999636,None,387.98080079999636,None,387.98080079999636,None,387.98080079999636,None,390.9808669000049,None,390.9808669000049,None,390.9808669000049,None,390.9808669000049,None,None,None,None,None,None,,,,,,,,,,ST02_112522,2022-11-25_15h05.43.955,Hippopolis_Updating,2021.1.4,60.23918570873442,
Hippopolis,stimuli/subj_files/ST02_112522_cityA.csv,./stimuli/seattle.jpg,./stimuli/street_plate1.png,TRIATLON UTCA,stimuli/scenes/006a.jpg,scene,2,stimuli/objects/103a.jpg,stimuli/objects/103b.jpg,stimuli/scenes/041a.jpg,stimuli/objects/103a.jpg,stimuli/scenes/041b.jpg,lure,dist1,target,dist2,0,0,0,0,0,56,56,31,,,,,,,,,,,392.980605299992,None,393.9809479000105,None,393.9809479000105,None,393.9809479000105,None,393.9809479000105,None,396.98287300000084,None,396.98287300000084,None,396.98287300000084,None,396.98287300000084,None,None,None,None,None,None,,,,,,,,,,ST02_112522,2022-11-25_15h05.43.955,Hippopolis_Updating,2021.1.4,60.23918570873442,
Hippopolis,stimuli/subj_files/ST02_112522_cityA.csv,./stimuli/seattle.jpg,./stimuli/street_plate1.png,KESZTYŰ UTCA,stimuli/scenes/089a.jpg,scene,1,stimuli/scenes/106a.jpg,stimuli/scenes/106a.jpg,stimuli/scenes/029a.jpg,stimuli/scenes/106b.jpg,stimuli/scenes/029b.jpg,target,dist1,lure,dist2,0,0,0,0,0,57,57,1,,,,,,,,,,,398.99676840001484,None,399.99754840001697,None,399.99754840001697,None,399.99754840001697,None,399.99754840001697,None,402.9977431000152,None,402.9977431000152,None,402.9977431000152,None,402.9977431000152,None,None,None,None,None,None,,,,,,,,,,ST02_112522,2022-11-25_15h05.43.955,Hippopolis_Updating,2021.1.4,60.23918570873442,
Hippopolis,stimuli/subj_files/ST02_112522_cityA.csv,./stimuli/seattle.jpg,./stimuli/street_plate1.png,KOSÁR UTCA,stimuli/objects/081a.jpg,object,0,stimuli/objects/081a.jpg,stimuli/objects/081a.jpg,stimuli/scenes/083a.jpg,stimuli/scenes/083b.jpg,stimuli/objects/081b.jpg,target,dist1,dist2,lure,0,0,0,0,0,58,58,77,,,,,,,,,,,404.99660750001203,None,405.99693860000116,None,405.99693860000116,None,405.99693860000116,None,405.99693860000116,None,408.99719500000356,None,408.99719500000356,None,408.99719500000356,None,408.99719500000356,None,None,None,None,None,None,,,,,,,,,,ST02_112522,2022-11-25_15h05.43.955,Hippopolis_Updating,2021.1.4,60.23918570873442,
Hippopolis,stimuli/subj_files/ST02_112522_cityA.csv,./stimuli/seattle.jpg,./stimuli/street_plate1.png,RÓZSA UTCA,stimuli/scenes/102a.jpg,scene,2,stimuli/objects/061a.jpg,stimuli/objects/061b.jpg,stimuli/objects/001b.jpg,stimuli/objects/061a.jpg,stimuli/objects/001a.jpg,lure,dist2,target,dist1,0,0,0,0,0,59,59,38,,,,,,,,,,,410.9963623000076,None,411.99687760000234,None,411.99687760000234,None,411.99687760000234,None,411.99687760000234,None,414.9968492999906,None,414.9968492999906,None,414.9968492999906,None,414.9968492999906,None,None,None,None,None,None,,,,,,,,,,ST02_112522,2022-11-25_15h05.43.955,Hippopolis_Updating,2021.1.4,60.23918570873442,
Hippopolis,stimuli/subj_files/ST02_112522_cityA.csv,./stimuli/seattle.jpg,./stimuli/street_plate1.png,SZOMSZÉD UTCA,stimuli/scenes/017a.jpg,scene,1,stimuli/scenes/013a.jpg,stimuli/scenes/015a.jpg,stimuli/scenes/015b.jpg,stimuli/scenes/013b.jpg,stimuli/scenes/013a.jpg,dist1,dist2,lure,target,0,0,0,0,0,60,60,12,,,,,,,,,,,416.99628660001326,None,417.99731710000196,None,417.99731710000196,None,417.99731710000196,None,417.99731710000196,None,420.99809490001644,None,420.99809490001644,None,420.99809490001644,None,420.99809490001644,None,None,None,None,None,None,,,,,,,,,,ST02_112522,2022-11-25_15h05.43.955,Hippopolis_Updating,2021.1.4,60.23918570873442,
Hippopolis,stimuli/subj_files/ST02_112522_cityA.csv,./stimuli/seattle.jpg,./stimuli/street_plate1.png,FEJSZE UTCA,stimuli/scenes/114a.jpg,scene,0,stimuli/scenes/114a.jpg,stimuli/scenes/114b.jpg,stimuli/objects/114a.jpg,stimuli/objects/114b.jpg,stimuli/scenes/114a.jpg,lure,dist1,dist2,target,0,0,0,0,0,61,61,72,,,,,,,,,,,422.99626539999736,None,423.99661420000484,None,423.99661420000484,None,423.99661420000484,None,423.99661420000484,None,426.9988838999998,None,426.9988838999998,None,426.9988838999998,None,426.9988838999998,None,None,None,None,None,None,,,,,,,,,,ST02_112522,2022-11-25_15h05.43.955,Hippopolis_Updating,2021.1.4,60.23918570873442,
Hippopolis,stimuli/subj_files/ST02_112522_cityA.csv,./stimuli/seattle.jpg,./stimuli/street_plate1.png,MARTINI UTCA,stimuli/scenes/078a.jpg,scene,1,stimuli/scenes/080a.jpg,stimuli/scenes/080a.jpg,stimuli/scenes/080b.jpg,stimuli/scenes/106b.jpg,stimuli/scenes/106a.jpg,target,lure,dist2,dist1,0,0,0,0,0,62,62,45,,,,,,,,,,,429.012988100003,None,430.01306560001103,None,430.01306560001103,None,430.01306560001103,None,430.01306560001103,None,433.01475609999034,None,433.01475609999034,None,433.01475609999034,None,433.01475609999034,None,None,None,None,None,None,,,,,,,,,,ST02_112522,2022-11-25_15h05.43.955,Hippopolis_Updating,2021.1.4,60.23918570873442,
Hippopolis,stimuli/subj_files/ST02_112522_cityA.csv,./stimuli/seattle.jpg,./stimuli/street_plate1.png,HAJÓ UTCA,stimuli/scenes/032a.jpg,scene,2,stimuli/objects/056a.jpg,stimuli/scenes/088b.jpg,stimuli/scenes/088a.jpg,stimuli/objects/056a.jpg,stimuli/objects/056b.jpg,dist2,dist1,target,lure,0,0,0,0,0,63,63,34,,,,,,,,,,,435.0291597000032,None,436.0298316999979,None,436.0298316999979,None,436.0298316999979,None,436.0298316999979,None,439.034731199994,None,439.034731199994,None,439.034731199994,None,439.034731199994,None,None,None,None,None,None,,,,,,,,,,ST02_112522,2022-11-25_15h05.43.955,Hippopolis_Updating,2021.1.4,60.23918570873442,
Hippopolis,stimuli/subj_files/ST02_112522_cityA.csv,./stimuli/seattle.jpg,./stimuli/street_plate1.png,SAJTÓ UTCA,stimuli/objects/102a.jpg,object,1,stimuli/objects/051a.jpg,stimuli/objects/108b.jpg,stimuli/objects/051a.jpg,stimuli/objects/051b.jpg,stimuli/objects/108a.jpg,dist2,target,lure,dist1,0,0,0,0,0,64,64,13,,,,,,,,,,,441.04606920000515,None,442.04670700000133,None,442.04670700000133,None,442.04670700000133,None,442.04670700000133,None,445.0502221999923,None,445.0502221999923,None,445.0502221999923,None,445.0502221999923,None,None,None,None,None,None,,,,,,,,,,ST02_112522,2022-11-25_15h05.43.955,Hippopolis_Updating,2021.1.4,60.23918570873442,
Hippopolis,stimuli/subj_files/ST02_112522_cityA.csv,./stimuli/seattle.jpg,./stimuli/street_plate1.png,PÁFRÁNY UTCA,stimuli/objects/037a.jpg,object,1,stimuli/objects/070a.jpg,stimuli/objects/070a.jpg,stimuli/scenes/066a.jpg,stimuli/objects/070b.jpg,stimuli/scenes/066b.jpg,target,dist1,lure,dist2,0,0,0,0,0,65,65,73,,,,,,,,,,,447.0625574000005,None,448.0628073000116,None,448.0628073000116,None,448.0628073000116,None,448.0628073000116,None,451.06757579999976,None,451.06757579999976,None,451.06757579999976,None,451.06757579999976,None,None,None,None,None,None,,,,,,,,,,ST02_112522,2022-11-25_15h05.43.955,Hippopolis_Updating,2021.1.4,60.23918570873442,
Hippopolis,stimuli/subj_files/ST02_112522_cityA.csv,./stimuli/seattle.jpg,./stimuli/street_plate1.png,LÁNDZSA UTCA,stimuli/objects/065a.jpg,object,1,stimuli/objects/038a.jpg,stimuli/objects/003a.jpg,stimuli/objects/038a.jpg,stimuli/objects/003b.jpg,stimuli/objects/038b.jpg,dist1,target,dist2,lure,0,0,0,0,0,66,66,18,,,,,,,,,,,453.0790332000179,None,454.07912559999386,None,454.07912559999386,None,454.07912559999386,None,454.07912559999386,None,457.0796842999989,None,457.0796842999989,None,457.0796842999989,None,457.0796842999989,None,None,None,None,None,None,,,,,,,,,,ST02_112522,2022-11-25_15h05.43.955,Hippopolis_Updating,2021.1.4,60.23918570873442,
Hippopolis,stimuli/subj_files/ST02_112522_cityA.csv,./stimuli/seattle.jpg,./stimuli/street_plate1.png,SZILVA UTCA,stimuli/objects/045a.jpg,object,1,stimuli/objects/092a.jpg,stimuli/objects/092b.jpg,stimuli/objects/097b.jpg,stimuli/objects/092a.jpg,stimuli/objects/097a.jpg,lure,dist2,target,dist1,0,0,0,0,0,67,67,0,,,,,,,,,,,459.07900890000747,None,460.0797165000113,None,460.0797165000113,None,460.0797165000113,None,460.0797165000113,None,463.08303840001463,None,463.08303840001463,None,463.08303840001463,None,463.08303840001463,None,None,None,None,None,None,,,,,,,,,,ST02_112522,2022-11-25_15h05.43.955,Hippopolis_Updating,2021.1.4,60.23918570873442,
Hippopolis,stimuli/subj_files/ST02_112522_cityA.csv,./stimuli/seattle.jpg,./stimuli/street_plate1.png,HORDÓ UTCA,stimuli/objects/052a.jpg,object,0,stimuli/objects/052a.jpg,stimuli/objects/052b.jpg,stimuli/objects/057b.jpg,stimuli/objects/052a.jpg,stimuli/objects/057a.jpg,lure,dist2,target,dist1,0,0,0,0,0,68,68,69,,,,,,,,,,,465.09597719999147,None,466.0962020000152,None,466.0962020000152,None,466.0962020000152,None,466.0962020000152,None,469.098275700002,None,469.098275700002,None,469.098275700002,None,469.098275700002,None,None,None,None,None,None,,,,,,,,,,ST02_112522,2022-11-25_15h05.43.955,Hippopolis_Updating,2021.1.4,60.23918570873442,
Hippopolis,stimuli/subj_files/ST02_112522_cityA.csv,./stimuli/seattle.jpg,./stimuli/street_plate1.png,KÓKUSZ UTCA,stimuli/scenes/070a.jpg,scene,2,stimuli/objects/091a.jpg,stimuli/objects/117b.jpg,stimuli/objects/117a.jpg,stimuli/objects/091a.jpg,stimuli/objects/091b.jpg,dist2,dist1,target,lure,0,0,0,0,0,69,69,39,,,,,,,,,,,471.11224670000956,None,472.11268170000403,None,472.11268170000403,None,472.11268170000403,None,472.11268170000403,None,475.11698940000497,None,475.11698940000497,None,475.11698940000497,None,475.11698940000497,None,None,None,None,None,None,,,,,,,,,,ST02_112522,2022-11-25_15h05.43.955,Hippopolis_Updating,2021.1.4,60.23918570873442,
Hippopolis,stimuli/subj_files/ST02_112522_cityA.csv,./stimuli/seattle.jpg,./stimuli/street_plate1.png,TISZTÁS UTCA,stimuli/scenes/031a.jpg,scene,2,stimuli/objects/068a.jpg,stimuli/objects/068b.jpg,stimuli/scenes/047b.jpg,stimuli/objects/068a.jpg,stimuli/scenes/047a.jpg,lure,dist2,target,dist1,0,0,0,0,0,70,70,51,,,,,,,,,,,477.1287430000084,None,478.1290721000114,None,478.1290721000114,None,478.1290721000114,None,478.1290721000114,None,481.129279899993,None,481.129279899993,None,481.129279899993,None,481.129279899993,None,None,None,None,None,None,,,,,,,,,,ST02_112522,2022-11-25_15h05.43.955,Hippopolis_Updating,2021.1.4,60.23918570873442,
Hippopolis,stimuli/subj_files/ST02_112522_cityA.csv,./stimuli/seattle.jpg,./stimuli/street_plate1.png,ÁLOM UTCA,stimuli/scenes/083a.jpg,scene,0,stimuli/scenes/083a.jpg,stimuli/objects/031b.jpg,stimuli/scenes/083b.jpg,stimuli/objects/031a.jpg,stimuli/scenes/083a.jpg,dist2,lure,dist1,target,0,0,0,0,0,71,71,30,,,,,,,,,,,483.12852610001573,None,484.1284505999938,None,484.1284505999938,None,484.1284505999938,None,484.1284505999938,None,487.12899150000885,None,487.12899150000885,None,487.12899150000885,None,487.12899150000885,None,None,None,None,None,None,,,,,,,,,,ST02_112522,2022-11-25_15h05.43.955,Hippopolis_Updating,2021.1.4,60.23918570873442,
Hippopolis,stimuli/subj_files/ST02_112522_cityA.csv,./stimuli/seattle.jpg,./stimuli/street_plate1.png,TOJÁS UTCA,stimuli/scenes/001a.jpg,scene,2,stimuli/objects/072a.jpg,stimuli/scenes/108b.jpg,stimuli/scenes/108a.jpg,stimuli/objects/072a.jpg,stimuli/objects/072b.jpg,dist2,dist1,target,lure,0,0,0,0,0,72,72,65,,,,,,,,,,,489.1289179000014,None,490.1286105000181,None,490.1286105000181,None,490.1286105000181,None,490.1286105000181,None,493.13161989999935,None,493.13161989999935,None,493.13161989999935,None,493.13161989999935,None,None,None,None,None,None,,,,,,,,,,ST02_112522,2022-11-25_15h05.43.955,Hippopolis_Updating,2021.1.4,60.23918570873442,
Hippopolis,stimuli/subj_files/ST02_112522_cityA.csv,./stimuli/seattle.jpg,./stimuli/street_plate1.png,TÜKÖR UTCA,stimuli/objects/025a.jpg,object,1,stimuli/objects/108a.jpg,stimuli/objects/108a.jpg,stimuli/objects/108b.jpg,stimuli/scenes/011b.jpg,stimuli/scenes/011a.jpg,target,lure,dist2,dist1,0,0,0,0,0,73,73,21,,,,,,,,,,,495.14485430001514,None,496.1457616999978,None,496.1457616999978,None,496.1457616999978,None,496.1457616999978,None,499.1460752999992,None,499.1460752999992,None,499.1460752999992,None,499.1460752999992,None,None,None,None,None,None,,,,,,,,,,ST02_112522,2022-11-25_15h05.43.955,Hippopolis_Updating,2021.1.4,60.23918570873442,
Hippopolis,stimuli/subj_files/ST02_112522_cityA.csv,./stimuli/seattle.jpg,./stimuli/street_plate1.png,SZIKLA UTCA,stimuli/scenes/055a.jpg,scene,1,stimuli/scenes/029a.jpg,stimuli/objects/090a.jpg,stimuli/objects/090b.jpg,stimuli/scenes/029b.jpg,stimuli/scenes/029a.jpg,dist1,dist2,lure,target,0,0,0,0,0,74,74,4,,,,,,,,,,,501.1447068999987,None,502.14555809999,None,502.14555809999,None,502.14555809999,None,502.14555809999,None,505.1455463000166,None,505.1455463000166,None,505.1455463000166,None,505.1455463000166,None,None,None,None,None,None,,,,,,,,,,ST02_112522,2022-11-25_15h05.43.955,Hippopolis_Updating,2021.1.4,60.23918570873442,
Hippopolis,stimuli/subj_files/ST02_112522_cityA.csv,./stimuli/seattle.jpg,./stimuli/street_plate1.png,TELEFON UTCA,stimuli/objects/113a.jpg,object,2,stimuli/scenes/088a.jpg,stimuli/scenes/088b.jpg,stimuli/scenes/094b.jpg,stimuli/scenes/094a.jpg,stimuli/scenes/088a.jpg,lure,dist2,dist1,target,0,0,0,0,0,75,75,7,,,,,,,,,,,507.14439400000265,None,508.1450596000068,None,508.1450596000068,None,508.1450596000068,None,508.1450596000068,None,511.14696260000346,None,511.14696260000346,None,511.14696260000346,None,511.14696260000346,None,None,None,None,None,None,,,,,,,,,,ST02_112522,2022-11-25_15h05.43.955,Hippopolis_Updating,2021.1.4,60.23918570873442,
Hippopolis,stimuli/subj_files/ST02_112522_cityA.csv,./stimuli/seattle.jpg,./stimuli/street_plate1.png,KORONG UTCA,stimuli/objects/046a.jpg,object,1,stimuli/objects/099a.jpg,stimuli/objects/099a.jpg,stimuli/objects/099b.jpg,stimuli/objects/062a.jpg,stimuli/objects/062b.jpg,target,lure,dist1,dist2,0,0,0,0,0,76,76,53,,,,,,,,,,,513.1614987000066,None,514.1615775999962,None,514.1615775999962,None,514.1615775999962,None,514.1615775999962,None,517.1638853999902,None,517.1638853999902,None,517.1638853999902,None,517.1638853999902,None,None,None,None,None,None,,,,,,,,,,ST02_112522,2022-11-25_15h05.43.955,Hippopolis_Updating,2021.1.4,60.23918570873442,
Hippopolis,stimuli/subj_files/ST02_112522_cityA.csv,./stimuli/seattle.jpg,./stimuli/street_plate1.png,TOBOZ UTCA,stimuli/objects/034a.jpg,object,0,stimuli/objects/034a.jpg,stimuli/objects/034b.jpg,stimuli/objects/034a.jpg,stimuli/scenes/119a.jpg,stimuli/scenes/119b.jpg,lure,target,dist1,dist2,0,0,0,0,0,77,77,46,,,,,,,,,,,519.1782819000073,None,520.1785776000179,None,520.1785776000179,None,520.1785776000179,None,520.1785776000179,None,523.1810827000008,None,523.1810827000008,None,523.1810827000008,None,523.1810827000008,None,None,None,None,None,None,,,,,,,,,,ST02_112522,2022-11-25_15h05.43.955,Hippopolis_Updating,2021.1.4,60.23918570873442,
Hippopolis,stimuli/subj_files/ST02_112522_cityA.csv,./stimuli/seattle.jpg,./stimuli/street_plate1.png,HEGESZTŐ UTCA,stimuli/objects/053a.jpg,object,2,stimuli/scenes/051a.jpg,stimuli/scenes/051a.jpg,stimuli/scenes/046b.jpg,stimuli/scenes/046a.jpg,stimuli/scenes/051b.jpg,target,dist2,dist1,lure,0,0,0,0,0,78,78,10,,,,,,,,,,,525.194336000015,None,526.1949675999931,None,526.1949675999931,None,526.1949675999931,None,526.1949675999931,None,529.1961963000067,None,529.1961963000067,None,529.1961963000067,None,529.1961963000067,None,None,None,None,None,None,,,,,,,,,,ST02_112522,2022-11-25_15h05.43.955,Hippopolis_Updating,2021.1.4,60.23918570873442,
Hippopolis,stimuli/subj_files/ST02_112522_cityA.csv,./stimuli/seattle.jpg,./stimuli/street_plate1.png,KESELYŰ UTCA,stimuli/objects/119a.jpg,object,2,stimuli/scenes/065a.jpg,stimuli/scenes/065a.jpg,stimuli/scenes/065b.jpg,stimuli/scenes/033b.jpg,stimuli/scenes/033a.jpg,target,lure,dist2,dist1,0,0,0,0,0,79,79,6,,,,,,,,,,,531.2110724000086,None,532.2112247000041,None,532.2112247000041,None,532.2112247000041,None,532.2112247000041,None,535.2115622000128,None,535.2115622000128,None,535.2115622000128,None,535.2115622000128,None,None,None,None,None,None,,,,,,,,,,ST02_112522,2022-11-25_15h05.43.955,Hippopolis_Updating,2021.1.4,60.23918570873442,
Camponello,stimuli/subj_files/ST02_112522_cityB.csv,./stimuli/hallstatt.jpg,./stimuli/street_plate2.png,POGÁCSA UTCA,stimuli/objects/075a.jpg,object,0,stimuli/objects/075a.jpg,stimuli/objects/075b.jpg,stimuli/objects/075a.jpg,stimuli/objects/112a.jpg,stimuli/objects/112b.jpg,lure,target,dist1,dist2,0,1,1,1,0,0,0,76,,,,,,,591.4125606000016,None,591.4125606000016,None,594.4135609999939,None,595.4154197000025,None,595.4154197000025,None,595.4154197000025,None,595.4154197000025,None,598.4104634000105,None,598.4104634000105,None,598.4104634000105,None,598.4104634000105,None,None,None,None,None,None,,537.2109212999931,None,space,54.15746049999143,537.2109212999931,None,,,ST02_112522,2022-11-25_15h05.43.955,Hippopolis_Updating,2021.1.4,60.23918570873442,
Camponello,stimuli/subj_files/ST02_112522_cityB.csv,./stimuli/hallstatt.jpg,./stimuli/street_plate2.png,KOCSI UTCA,stimuli/scenes/107a.jpg,scene,1,stimuli/scenes/048a.jpg,stimuli/scenes/048b.jpg,stimuli/objects/008b.jpg,stimuli/objects/008a.jpg,stimuli/scenes/048a.jpg,lure,dist2,dist1,target,0,1,1,1,0,1,1,66,,,,,,,,,,,600.4096580000187,None,601.4100290999922,None,601.4100290999922,None,601.4100290999922,None,601.4100290999922,None,604.4106400000164,None,604.4106400000164,None,604.4106400000164,None,604.4106400000164,None,None,None,None,None,None,,,,,,,,,,ST02_112522,2022-11-25_15h05.43.955,Hippopolis_Updating,2021.1.4,60.23918570873442,
Camponello,stimuli/subj_files/ST02_112522_cityB.csv,./stimuli/hallstatt.jpg,./stimuli/street_plate2.png,FOGAS UTCA,stimuli/scenes/023a.jpg,scene,0,stimuli/scenes/023a.jpg,stimuli/objects/064b.jpg,stimuli/scenes/023b.jpg,stimuli/objects/064a.jpg,stimuli/scenes/023a.jpg,dist2,lure,dist1,target,0,1,1,1,0,2,2,53,,,,,,,,,,,606.4093480000156,None,607.4103560000076,None,607.4103560000076,None,607.4103560000076,None,607.4103560000076,None,610.4101773000148,None,610.4101773000148,None,610.4101773000148,None,610.4101773000148,None,None,None,None,None,None,,,,,,,,,,ST02_112522,2022-11-25_15h05.43.955,Hippopolis_Updating,2021.1.4,60.23918570873442,
Camponello,stimuli/subj_files/ST02_112522_cityB.csv,./stimuli/hallstatt.jpg,./stimuli/street_plate2.png,FÉSZEK UTCA,stimuli/scenes/027a.jpg,scene,0,stimuli/scenes/027a.jpg,stimuli/objects/105a.jpg,stimuli/objects/105b.jpg,stimuli/scenes/027a.jpg,stimuli/scenes/027b.jpg,dist1,dist2,target,lure,0,1,1,1,0,3,3,8,,,,,,,,,,,612.4093554000137,None,613.4098647999926,None,613.4098647999926,None,613.4098647999926,None,613.4098647999926,None,616.4105018000118,None,616.4105018000118,None,616.4105018000118,None,616.4105018000118,None,None,None,None,None,None,,,,,,,,,,ST02_112522,2022-11-25_15h05.43.955,Hippopolis_Updating,2021.1.4,60.23918570873442,
Camponello,stimuli/subj_files/ST02_112522_cityB.csv,./stimuli/hallstatt.jpg,./stimuli/street_plate2.png,SUGÁR UTCA,stimuli/objects/107a.jpg,object,0,stimuli/objects/107a.jpg,stimuli/objects/107b.jpg,stimuli/scenes/115b.jpg,stimuli/scenes/115a.jpg,stimuli/objects/107a.jpg,lure,dist2,dist1,target,0,1,1,1,0,4,4,51,,,,,,,,,,,618.4098472000042,None,619.4097321000008,None,619.4097321000008,None,619.4097321000008,None,619.4097321000008,None,622.41444220001,None,622.41444220001,None,622.41444220001,None,622.41444220001,None,None,None,None,None,None,,,,,,,,,,ST02_112522,2022-11-25_15h05.43.955,Hippopolis_Updating,2021.1.4,60.23918570873442,
Camponello,stimuli/subj_files/ST02_112522_cityB.csv,./stimuli/hallstatt.jpg,./stimuli/street_plate2.png,HEGEDŰ UTCA,stimuli/objects/017a.jpg,object,0,stimuli/objects/017a.jpg,stimuli/objects/017a.jpg,stimuli/objects/088b.jpg,stimuli/objects/017b.jpg,stimuli/objects/088a.jpg,target,dist2,lure,dist1,0,1,1,1,0,5,5,6,,,,,,,,,,,624.4260631999932,None,625.426861600019,None,625.426861600019,None,625.426861600019,None,625.426861600019,None,628.4300192999945,None,628.4300192999945,None,628.4300192999945,None,628.4300192999945,None,None,None,None,None,None,,,,,,,,,,ST02_112522,2022-11-25_15h05.43.955,Hippopolis_Updating,2021.1.4,60.23918570873442,
Camponello,stimuli/subj_files/ST02_112522_cityB.csv,./stimuli/hallstatt.jpg,./stimuli/street_plate2.png,ZSEMLE UTCA,stimuli/scenes/086a.jpg,scene,0,stimuli/scenes/086a.jpg,stimuli/scenes/086a.jpg,stimuli/scenes/087b.jpg,stimuli/scenes/086b.jpg,stimuli/scenes/087a.jpg,target,dist2,lure,dist1,0,1,1,1,0,6,6,75,,,,,,,,,,,630.4429990999924,None,631.4434448000102,None,631.4434448000102,None,631.4434448000102,None,631.4434448000102,None,634.443674500013,None,634.443674500013,None,634.443674500013,None,634.443674500013,None,None,None,None,None,None,,,,,,,,,,ST02_112522,2022-11-25_15h05.43.955,Hippopolis_Updating,2021.1.4,60.23918570873442,
Camponello,stimuli/subj_files/ST02_112522_cityB.csv,./stimuli/hallstatt.jpg,./stimuli/street_plate2.png,MOTOR UTCA,stimuli/objects/086a.jpg,object,0,stimuli/objects/086a.jpg,stimuli/scenes/024a.jpg,stimuli/objects/086b.jpg,stimuli/objects/086a.jpg,stimuli/scenes/024b.jpg,dist1,lure,target,dist2,0,1,1,1,0,7,7,73,,,,,,,,,,,636.4424517000152,None,637.4431641999981,None,637.4431641999981,None,637.4431641999981,None,637.4431641999981,None,640.4434592000034,None,640.4434592000034,None,640.4434592000034,None,640.4434592000034,None,None,None,None,None,None,,,,,,,,,,ST02_112522,2022-11-25_15h05.43.955,Hippopolis_Updating,2021.1.4,60.23918570873442,
Camponello,stimuli/subj_files/ST02_112522_cityB.csv,./stimuli/hallstatt.jpg,./stimuli/street_plate2.png,ÁRNYÉK UTCA,stimuli/objects/088a.jpg,object,0,stimuli/objects/088a.jpg,stimuli/objects/089a.jpg,stimuli/objects/088a.jpg,stimuli/objects/089b.jpg,stimuli/objects/088b.jpg,dist1,target,dist2,lure,0,1,1,1,0,8,8,31,,,,,,,,,,,642.4421505999926,None,643.4432147000043,None,643.4432147000043,None,643.4432147000043,None,643.4432147000043,None,646.4436699000071,None,646.4436699000071,None,646.4436699000071,None,646.4436699000071,None,None,None,None,None,None,,,,,,,,,,ST02_112522,2022-11-25_15h05.43.955,Hippopolis_Updating,2021.1.4,60.23918570873442,
Camponello,stimuli/subj_files/ST02_112522_cityB.csv,./stimuli/hallstatt.jpg,./stimuli/street_plate2.png,CSILLAG UTCA,stimuli/scenes/025a.jpg,scene,2,stimuli/objects/060a.jpg,stimuli/scenes/044a.jpg,stimuli/scenes/044b.jpg,stimuli/objects/060a.jpg,stimuli/objects/060b.jpg,dist1,dist2,target,lure,0,1,1,1,0,9,9,19,,,,,,,,,,,648.4585175999964,None,649.4590080000053,None,649.4590080000053,None,649.4590080000053,None,649.4590080000053,None,652.4613981000148,None,652.4613981000148,None,652.4613981000148,None,652.4613981000148,None,None,None,None,None,None,,,,,,,,,,ST02_112522,2022-11-25_15h05.43.955,Hippopolis_Updating,2021.1.4,60.23918570873442,
Camponello,stimuli/subj_files/ST02_112522_cityB.csv,./stimuli/hallstatt.jpg,./stimuli/street_plate2.png,SZALVÉTA UTCA,stimuli/objects/087a.jpg,object,1,stimuli/objects/083a.jpg,stimuli/scenes/022a.jpg,stimuli/objects/083b.jpg,stimuli/scenes/022b.jpg,stimuli/objects/083a.jpg,dist1,lure,dist2,target,0,1,1,1,0,10,10,54,,,,,,,,,,,654.4755141999922,None,655.4760730999988,None,655.4760730999988,None,655.4760730999988,None,655.4760730999988,None,658.4772709000099,None,658.4772709000099,None,658.4772709000099,None,658.4772709000099,None,None,None,None,None,None,,,,,,,,,,ST02_112522,2022-11-25_15h05.43.955,Hippopolis_Updating,2021.1.4,60.23918570873442,
Camponello,stimuli/subj_files/ST02_112522_cityB.csv,./stimuli/hallstatt.jpg,./stimuli/street_plate2.png,KANÁL UTCA,stimuli/scenes/009a.jpg,scene,0,stimuli/scenes/009a.jpg,stimuli/scenes/009b.jpg,stimuli/scenes/003b.jpg,stimuli/scenes/009a.jpg,stimuli/scenes/003a.jpg,lure,dist2,target,dist1,0,1,1,1,0,11,11,60,,,,,,,,,,,660.492101300013,None,661.4922602000006,None,661.4922602000006,None,661.4922602000006,None,661.4922602000006,None,664.49322199999,None,664.49322199999,None,664.49322199999,None,664.49322199999,None,None,None,None,None,None,,,,,,,,,,ST02_112522,2022-11-25_15h05.43.955,Hippopolis_Updating,2021.1.4,60.23918570873442,
Camponello,stimuli/subj_files/ST02_112522_cityB.csv,./stimuli/hallstatt.jpg,./stimuli/street_plate2.png,ZEBRA UTCA,stimuli/objects/105a.jpg,object,0,stimuli/objects/105a.jpg,stimuli/objects/029b.jpg,stimuli/objects/105b.jpg,stimuli/objects/029a.jpg,stimuli/objects/105a.jpg,dist2,lure,dist1,target,0,1,1,1,0,12,12,20,,,,,,,,,,,666.508275900007,None,667.509379199997,None,667.509379199997,None,667.509379199997,None,667.509379199997,None,670.5110133000126,None,670.5110133000126,None,670.5110133000126,None,670.5110133000126,None,None,None,None,None,None,,,,,,,,,,ST02_112522,2022-11-25_15h05.43.955,Hippopolis_Updating,2021.1.4,60.23918570873442,
Camponello,stimuli/subj_files/ST02_112522_cityB.csv,./stimuli/hallstatt.jpg,./stimuli/street_plate2.png,BETON UTCA,stimuli/objects/112a.jpg,object,0,stimuli/objects/112a.jpg,stimuli/objects/112a.jpg,stimuli/objects/112b.jpg,stimuli/scenes/096a.jpg,stimuli/scenes/096b.jpg,target,lure,dist1,dist2,0,1,1,1,0,13,13,72,,,,,,,,,,,672.5251695000043,None,673.5259581000137,None,673.5259581000137,None,673.5259581000137,None,673.5259581000137,None,676.5263691,None,676.5263691,None,676.5263691,None,676.5263691,None,None,None,None,None,None,,,,,,,,,,ST02_112522,2022-11-25_15h05.43.955,Hippopolis_Updating,2021.1.4,60.23918570873442,
Camponello,stimuli/subj_files/ST02_112522_cityB.csv,./stimuli/hallstatt.jpg,./stimuli/street_plate2.png,ZÁSZLÓ UTCA,stimuli/scenes/026a.jpg,scene,2,stimuli/objects/049a.jpg,stimuli/scenes/101a.jpg,stimuli/objects/049b.jpg,stimuli/objects/049a.jpg,stimuli/scenes/101b.jpg,dist1,lure,target,dist2,0,1,1,1,0,14,14,55,,,,,,,,,,,678.5254542999901,None,679.5254093999974,None,679.5254093999974,None,679.5254093999974,None,679.5254093999974,None,682.5271850000136,None,682.5271850000136,None,682.5271850000136,None,682.5271850000136,None,None,None,None,None,None,,,,,,,,,,ST02_112522,2022-11-25_15h05.43.955,Hippopolis_Updating,2021.1.4,60.23918570873442,
Camponello,stimuli/subj_files/ST02_112522_cityB.csv,./stimuli/hallstatt.jpg,./stimuli/street_plate2.png,HERNYÓ UTCA,stimuli/scenes/019a.jpg,scene,0,stimuli/scenes/019a.jpg,stimuli/objects/014b.jpg,stimuli/objects/014a.jpg,stimuli/scenes/019a.jpg,stimuli/scenes/019b.jpg,dist2,dist1,target,lure,0,1,1,1,0,15,15,12,,,,,,,,,,,684.5414500000188,None,685.5416957999987,None,685.5416957999987,None,685.5416957999987,None,685.5416957999987,None,688.5430438000185,None,688.5430438000185,None,688.5430438000185,None,688.5430438000185,None,None,None,None,None,None,,,,,,,,,,ST02_112522,2022-11-25_15h05.43.955,Hippopolis_Updating,2021.1.4,60.23918570873442,
Camponello,stimuli/subj_files/ST02_112522_cityB.csv,./stimuli/hallstatt.jpg,./stimuli/street_plate2.png,LÉTRA UTCA,stimuli/objects/041a.jpg,object,0,stimuli/objects/041a.jpg,stimuli/objects/041b.jpg,stimuli/objects/041a.jpg,stimuli/objects/073a.jpg,stimuli/objects/073b.jpg,lure,target,dist1,dist2,0,1,1,1,0,16,16,69,,,,,,,,,,,690.541392300016,None,691.5422771000012,None,691.5422771000012,None,691.5422771000012,None,691.5422771000012,None,694.542649400013,None,694.542649400013,None,694.542649400013,None,694.542649400013,None,None,None,None,None,None,,,,,,,,,,ST02_112522,2022-11-25_15h05.43.955,Hippopolis_Updating,2021.1.4,60.23918570873442,
Camponello,stimuli/subj_files/ST02_112522_cityB.csv,./stimuli/hallstatt.jpg,./stimuli/street_plate2.png,KATONA UTCA,stimuli/scenes/087a.jpg,scene,0,stimuli/scenes/087a.jpg,stimuli/scenes/087b.jpg,stimuli/scenes/040a.jpg,stimuli/scenes/087a.jpg,stimuli/scenes/040b.jpg,lure,dist1,target,dist2,0,1,1,1,0,17,17,77,,,,,,,,,,,696.5418540000101,None,697.5422557000129,None,697.5422557000129,None,697.5422557000129,None,697.5422557000129,None,700.5419091999938,None,700.5419091999938,None,700.5419091999938,None,700.5419091999938,None,None,None,None,None,None,,,,,,,,,,ST02_112522,2022-11-25_15h05.43.955,Hippopolis_Updating,2021.1.4,60.23918570873442,
Camponello,stimuli/subj_files/ST02_112522_cityB.csv,./stimuli/hallstatt.jpg,./stimuli/street_plate2.png,POLIP UTCA,stimuli/scenes/003a.jpg,scene,0,stimuli/scenes/003a.jpg,stimuli/scenes/003b.jpg,stimuli/scenes/003a.jpg,stimuli/scenes/075a.jpg,stimuli/scenes/075b.jpg,lure,target,dist1,dist2,0,1,1,1,0,18,18,34,,,,,,,,,,,702.5411396000127,None,703.5419071000069,None,703.5419071000069,None,703.5419071000069,None,703.5419071000069,None,706.5420501999906,None,706.5420501999906,None,706.5420501999906,None,706.5420501999906,None,None,None,None,None,None,,,,,,,,,,ST02_112522,2022-11-25_15h05.43.955,Hippopolis_Updating,2021.1.4,60.23918570873442,
Camponello,stimuli/subj_files/ST02_112522_cityB.csv,./stimuli/hallstatt.jpg,./stimuli/street_plate2.png,MÁLNA UTCA,stimuli/objects/093a.jpg,object,0,stimuli/objects/093a.jpg,stimuli/objects/093a.jpg,stimuli/objects/041a.jpg,stimuli/objects/093b.jpg,stimuli/objects/041b.jpg,target,dist1,lure,dist2,0,1,1,1,0,19,19,32,,,,,,,,,,,708.5413491000072,None,709.5414457000152,None,709.5414457000152,None,709.5414457000152,None,709.5414457000152,None,712.5470969000016,None,712.5470969000016,None,712.5470969000016,None,712.5470969000016,None,None,None,None,None,None,,,,,,,,,,ST02_112522,2022-11-25_15h05.43.955,Hippopolis_Updating,2021.1.4,60.23918570873442,
Camponello,stimuli/subj_files/ST02_112522_cityB.csv,./stimuli/hallstatt.jpg,./stimuli/street_plate2.png,MOCSÁR UTCA,stimuli/scenes/034a.jpg,scene,0,stimuli/scenes/034a.jpg,stimuli/scenes/009a.jpg,stimuli/scenes/034a.jpg,stimuli/scenes/009b.jpg,stimuli/scenes/034b.jpg,dist1,target,dist2,lure,0,1,1,1,0,20,20,79,,,,,,,,,,,714.5578888000164,None,715.5587062000122,None,715.5587062000122,None,715.5587062000122,None,715.5587062000122,None,718.5584915000072,None,718.5584915000072,None,718.5584915000072,None,718.5584915000072,None,None,None,None,None,None,,,,,,,,,,ST02_112522,2022-11-25_15h05.43.955,Hippopolis_Updating,2021.1.4,60.23918570873442,
Camponello,stimuli/subj_files/ST02_112522_cityB.csv,./stimuli/hallstatt.jpg,./stimuli/street_plate2.png,KECSKE UTCA,stimuli/scenes/077a.jpg,scene,0,stimuli/scenes/077a.jpg,stimuli/scenes/077b.jpg,stimuli/scenes/054a.jpg,stimuli/scenes/077a.jpg,stimuli/scenes/054b.jpg,lure,dist1,target,dist2,0,1,1,1,0,21,21,2,,,,,,,,,,,720.5578050000186,None,721.5583956000046,None,721.5583956000046,None,721.5583956000046,None,721.5583956000046,None,724.558684699994,None,724.558684699994,None,724.558684699994,None,724.558684699994,None,None,None,None,None,None,,,,,,,,,,ST02_112522,2022-11-25_15h05.43.955,Hippopolis_Updating,2021.1.4,60.23918570873442,
Camponello,stimuli/subj_files/ST02_112522_cityB.csv,./stimuli/hallstatt.jpg,./stimuli/street_plate2.png,AJÁNDÉK UTCA,stimuli/objects/002a.jpg,object,2,stimuli/scenes/068a.jpg,stimuli/scenes/005b.jpg,stimuli/scenes/068b.jpg,stimuli/scenes/005a.jpg,stimuli/scenes/068a.jpg,dist2,lure,dist1,target,0,1,1,1,0,22,22,9,,,,,,,,,,,726.5571427000104,None,727.5582762999984,None,727.5582762999984,None,727.5582762999984,None,727.5582762999984,None,730.5577475000173,None,730.5577475000173,None,730.5577475000173,None,730.5577475000173,None,None,None,None,None,None,,,,,,,,,,ST02_112522,2022-11-25_15h05.43.955,Hippopolis_Updating,2021.1.4,60.23918570873442,
Camponello,stimuli/subj_files/ST02_112522_cityB.csv,./stimuli/hallstatt.jpg,./stimuli/street_plate2.png,BOLYGÓ UTCA,stimuli/scenes/069a.jpg,scene,0,stimuli/scenes/069a.jpg,stimuli/scenes/050a.jpg,stimuli/scenes/069a.jpg,stimuli/scenes/069b.jpg,stimuli/scenes/050b.jpg,dist1,target,lure,dist2,0,1,1,1,0,23,23,52,,,,,,,,,,,732.5575251000118,None,733.5582360000117,None,733.5582360000117,None,733.5582360000117,None,733.5582360000117,None,736.5574716000119,None,736.5574716000119,None,736.5574716000119,None,736.5574716000119,None,None,None,None,None,None,,,,,,,,,,ST02_112522,2022-11-25_15h05.43.955,Hippopolis_Updating,2021.1.4,60.23918570873442,
Camponello,stimuli/subj_files/ST02_112522_cityB.csv,./stimuli/hallstatt.jpg,./stimuli/street_plate2.png,OROSZLÁN UTCA,stimuli/objects/004a.jpg,object,0,stimuli/objects/004a.jpg,stimuli/scenes/034b.jpg,stimuli/objects/004b.jpg,stimuli/scenes/034a.jpg,stimuli/objects/004a.jpg,dist2,lure,dist1,target,0,1,1,1,0,24,24,64,,,,,,,,,,,738.5578354000172,None,739.5580221000127,None,739.5580221000127,None,739.5580221000127,None,739.5580221000127,None,742.5606682999933,None,742.5606682999933,None,742.5606682999933,None,742.5606682999933,None,None,None,None,None,None,,,,,,,,,,ST02_112522,2022-11-25_15h05.43.955,Hippopolis_Updating,2021.1.4,60.23918570873442,
Camponello,stimuli/subj_files/ST02_112522_cityB.csv,./stimuli/hallstatt.jpg,./stimuli/street_plate2.png,SALÁTA UTCA,stimuli/scenes/021a.jpg,scene,1,stimuli/scenes/058a.jpg,stimuli/objects/076a.jpg,stimuli/scenes/058b.jpg,stimuli/scenes/058a.jpg,stimuli/objects/076b.jpg,dist1,lure,target,dist2,0,1,1,1,0,25,25,56,,,,,,,,,,,744.5736958000052,None,745.5737416000047,None,745.5737416000047,None,745.5737416000047,None,745.5737416000047,None,748.5749309000093,None,748.5749309000093,None,748.5749309000093,None,748.5749309000093,None,None,None,None,None,None,,,,,,,,,,ST02_112522,2022-11-25_15h05.43.955,Hippopolis_Updating,2021.1.4,60.23918570873442,
Camponello,stimuli/subj_files/ST02_112522_cityB.csv,./stimuli/hallstatt.jpg,./stimuli/street_plate2.png,TOLLTARTÓ UTCA,stimuli/objects/074a.jpg,object,0,stimuli/objects/074a.jpg,stimuli/objects/074a.jpg,stimuli/objects/074b.jpg,stimuli/objects/032a.jpg,stimuli/objects/032b.jpg,target,lure,dist1,dist2,0,1,1,1,0,26,26,16,,,,,,,,,,,750.5741767,None,751.5740356000024,None,751.5740356000024,None,751.5740356000024,None,751.5740356000024,None,754.5743412000011,None,754.5743412000011,None,754.5743412000011,None,754.5743412000011,None,None,None,None,None,None,,,,,,,,,,ST02_112522,2022-11-25_15h05.43.955,Hippopolis_Updating,2021.1.4,60.23918570873442,
Camponello,stimuli/subj_files/ST02_112522_cityB.csv,./stimuli/hallstatt.jpg,./stimuli/street_plate2.png,RIBIZLI UTCA,stimuli/objects/084a.jpg,object,1,stimuli/objects/076a.jpg,stimuli/objects/076b.jpg,stimuli/objects/076a.jpg,stimuli/scenes/064b.jpg,stimuli/scenes/064a.jpg,lure,target,dist2,dist1,0,1,1,1,0,27,27,71,,,,,,,,,,,756.5737512999913,None,757.5739824000048,None,757.5739824000048,None,757.5739824000048,None,757.5739824000048,None,760.5744120000163,None,760.5744120000163,None,760.5744120000163,None,760.5744120000163,None,None,None,None,None,None,,,,,,,,,,ST02_112522,2022-11-25_15h05.43.955,Hippopolis_Updating,2021.1.4,60.23918570873442,
Camponello,stimuli/subj_files/ST02_112522_cityB.csv,./stimuli/hallstatt.jpg,./stimuli/street_plate2.png,LAKAT UTCA,stimuli/objects/100a.jpg,object,2,stimuli/scenes/005a.jpg,stimuli/scenes/005a.jpg,stimuli/objects/005b.jpg,stimuli/scenes/005b.jpg,stimuli/objects/005a.jpg,target,dist2,lure,dist1,0,1,1,1,0,28,28,11,,,,,,,,,,,762.5734577999974,None,763.573977299995,None,763.573977299995,None,763.573977299995,None,763.573977299995,None,766.5747706000111,None,766.5747706000111,None,766.5747706000111,None,766.5747706000111,None,None,None,None,None,None,,,,,,,,,,ST02_112522,2022-11-25_15h05.43.955,Hippopolis_Updating,2021.1.4,60.23918570873442,
Camponello,stimuli/subj_files/ST02_112522_cityB.csv,./stimuli/hallstatt.jpg,./stimuli/street_plate2.png,LIGET UTCA,stimuli/objects/042a.jpg,object,1,stimuli/objects/008a.jpg,stimuli/objects/008a.jpg,stimuli/objects/071a.jpg,stimuli/objects/008b.jpg,stimuli/objects/071b.jpg,target,dist1,lure,dist2,0,1,1,1,0,29,29,21,,,,,,,,,,,768.5733307999908,None,769.5737669999944,None,769.5737669999944,None,769.5737669999944,None,769.5737669999944,None,772.5741080000007,None,772.5741080000007,None,772.5741080000007,None,772.5741080000007,None,None,None,None,None,None,,,,,,,,,,ST02_112522,2022-11-25_15h05.43.955,Hippopolis_Updating,2021.1.4,60.23918570873442,
Camponello,stimuli/subj_files/ST02_112522_cityB.csv,./stimuli/hallstatt.jpg,./stimuli/street_plate2.png,HÁRFA UTCA,stimuli/scenes/050a.jpg,scene,0,stimuli/scenes/050a.jpg,stimuli/scenes/050a.jpg,stimuli/objects/013a.jpg,stimuli/objects/013b.jpg,stimuli/scenes/050b.jpg,target,dist1,dist2,lure,0,1,1,1,0,30,30,59,,,,,,,,,,,774.5737690000096,None,775.573647000012,None,775.573647000012,None,775.573647000012,None,775.573647000012,None,778.574586200004,None,778.574586200004,None,778.574586200004,None,778.574586200004,None,None,None,None,None,None,,,,,,,,,,ST02_112522,2022-11-25_15h05.43.955,Hippopolis_Updating,2021.1.4,60.23918570873442,
Camponello,stimuli/subj_files/ST02_112522_cityB.csv,./stimuli/hallstatt.jpg,./stimuli/street_plate2.png,CUKOR UTCA,stimuli/objects/078a.jpg,object,2,stimuli/scenes/037a.jpg,stimuli/scenes/037b.jpg,stimuli/objects/066b.jpg,stimuli/scenes/037a.jpg,stimuli/objects/066a.jpg,lure,dist2,target,dist1,0,1,1,1,0,31,31,68,,,,,,,,,,,780.5731012000178,None,781.574311000004,None,781.574311000004,None,781.574311000004,None,781.574311000004,None,784.573724899994,None,784.573724899994,None,784.573724899994,None,784.573724899994,None,None,None,None,None,None,,,,,,,,,,ST02_112522,2022-11-25_15h05.43.955,Hippopolis_Updating,2021.1.4,60.23918570873442,
Camponello,stimuli/subj_files/ST02_112522_cityB.csv,./stimuli/hallstatt.jpg,./stimuli/street_plate2.png,TELEP UTCA,stimuli/scenes/109a.jpg,scene,0,stimuli/scenes/109a.jpg,stimuli/objects/074b.jpg,stimuli/objects/074a.jpg,stimuli/scenes/109a.jpg,stimuli/scenes/109b.jpg,dist2,dist1,target,lure,0,1,1,1,0,32,32,28,,,,,,,,,,,786.5729579000035,None,787.5733720000135,None,787.5733720000135,None,787.5733720000135,None,787.5733720000135,None,790.5773791999964,None,790.5773791999964,None,790.5773791999964,None,790.5773791999964,None,None,None,None,None,None,,,,,,,,,,ST02_112522,2022-11-25_15h05.43.955,Hippopolis_Updating,2021.1.4,60.23918570873442,
Camponello,stimuli/subj_files/ST02_112522_cityB.csv,./stimuli/hallstatt.jpg,./stimuli/street_plate2.png,FÜZET UTCA,stimuli/scenes/098a.jpg,scene,0,stimuli/scenes/098a.jpg,stimuli/objects/107a.jpg,stimuli/scenes/098a.jpg,stimuli/scenes/098b.jpg,stimuli/objects/107b.jpg,dist1,target,lure,dist2,0,1,1,1,0,33,33,4,,,,,,,,,,,792.5896906999988,None,793.5905060000077,None,793.5905060000077,None,793.5905060000077,None,793.5905060000077,None,796.5899716000131,None,796.5899716000131,None,796.5899716000131,None,796.5899716000131,None,None,None,None,None,None,,,,,,,,,,ST02_112522,2022-11-25_15h05.43.955,Hippopolis_Updating,2021.1.4,60.23918570873442,
Camponello,stimuli/subj_files/ST02_112522_cityB.csv,./stimuli/hallstatt.jpg,./stimuli/street_plate2.png,SZŐLŐ UTCA,stimuli/objects/101a.jpg,object,0,stimuli/objects/101a.jpg,stimuli/objects/101a.jpg,stimuli/objects/101b.jpg,stimuli/scenes/030b.jpg,stimuli/scenes/030a.jpg,target,lure,dist2,dist1,0,1,1,1,0,34,34,65,,,,,,,,,,,798.5895013000118,None,799.5903866000008,None,799.5903866000008,None,799.5903866000008,None,799.5903866000008,None,802.5902732000104,None,802.5902732000104,None,802.5902732000104,None,802.5902732000104,None,None,None,None,None,None,,,,,,,,,,ST02_112522,2022-11-25_15h05.43.955,Hippopolis_Updating,2021.1.4,60.23918570873442,
Camponello,stimuli/subj_files/ST02_112522_cityB.csv,./stimuli/hallstatt.jpg,./stimuli/street_plate2.png,SÜTŐ UTCA,stimuli/objects/058a.jpg,object,0,stimuli/objects/058a.jpg,stimuli/objects/058b.jpg,stimuli/scenes/052b.jpg,stimuli/objects/058a.jpg,stimuli/scenes/052a.jpg,lure,dist2,target,dist1,0,1,1,1,0,35,35,25,,,,,,,,,,,804.5899012000009,None,805.5903186000069,None,805.5903186000069,None,805.5903186000069,None,805.5903186000069,None,808.5919674000179,None,808.5919674000179,None,808.5919674000179,None,808.5919674000179,None,None,None,None,None,None,,,,,,,,,,ST02_112522,2022-11-25_15h05.43.955,Hippopolis_Updating,2021.1.4,60.23918570873442,
Camponello,stimuli/subj_files/ST02_112522_cityB.csv,./stimuli/hallstatt.jpg,./stimuli/street_plate2.png,LEVÉL UTCA,stimuli/objects/073a.jpg,object,0,stimuli/objects/073a.jpg,stimuli/objects/073a.jpg,stimuli/scenes/086b.jpg,stimuli/scenes/086a.jpg,stimuli/objects/073b.jpg,target,dist2,dist1,lure,0,1,1,1,0,36,36,70,,,,,,,,,,,810.6059496999951,None,811.6067770000082,None,811.6067770000082,None,811.6067770000082,None,811.6067770000082,None,814.6097237000067,None,814.6097237000067,None,814.6097237000067,None,814.6097237000067,None,None,None,None,None,None,,,,,,,,,,ST02_112522,2022-11-25_15h05.43.955,Hippopolis_Updating,2021.1.4,60.23918570873442,
Camponello,stimuli/subj_files/ST02_112522_cityB.csv,./stimuli/hallstatt.jpg,./stimuli/street_plate2.png,SZÖCSKE UTCA,stimuli/scenes/040a.jpg,scene,0,stimuli/scenes/040a.jpg,stimuli/scenes/023a.jpg,stimuli/scenes/040a.jpg,stimuli/scenes/023b.jpg,stimuli/scenes/040b.jpg,dist1,target,dist2,lure,0,1,1,1,0,37,37,17,,,,,,,,,,,816.6220868999953,None,817.6234478999977,None,817.6234478999977,None,817.6234478999977,None,817.6234478999977,None,820.623748300015,None,820.623748300015,None,820.623748300015,None,820.623748300015,None,None,None,None,None,None,,,,,,,,,,ST02_112522,2022-11-25_15h05.43.955,Hippopolis_Updating,2021.1.4,60.23918570873442,
Camponello,stimuli/subj_files/ST02_112522_cityB.csv,./stimuli/hallstatt.jpg,./stimuli/street_plate2.png,TERÍTŐ UTCA,stimuli/scenes/115a.jpg,scene,0,stimuli/scenes/115a.jpg,stimuli/objects/093a.jpg,stimuli/scenes/115a.jpg,stimuli/scenes/115b.jpg,stimuli/objects/093b.jpg,dist1,target,lure,dist2,0,1,1,1,0,38,38,7,,,,,,,,,,,822.622549199994,None,823.6233191000065,None,823.6233191000065,None,823.6233191000065,None,823.6233191000065,None,826.627479399991,None,826.627479399991,None,826.627479399991,None,826.627479399991,None,None,None,None,None,None,,,,,,,,,,ST02_112522,2022-11-25_15h05.43.955,Hippopolis_Updating,2021.1.4,60.23918570873442,
Camponello,stimuli/subj_files/ST02_112522_cityB.csv,./stimuli/hallstatt.jpg,./stimuli/street_plate2.png,PULÓVER UTCA,stimuli/scenes/012a.jpg,scene,0,stimuli/scenes/012a.jpg,stimuli/objects/058a.jpg,stimuli/scenes/012a.jpg,stimuli/objects/058b.jpg,stimuli/scenes/012b.jpg,dist1,target,dist2,lure,0,1,1,1,0,39,39,67,,,,,,,,,,,828.6385406999907,None,829.6398405999935,None,829.6398405999935,None,829.6398405999935,None,829.6398405999935,None,832.6402690999967,None,832.6402690999967,None,832.6402690999967,None,832.6402690999967,None,None,None,None,None,None,,,,,,,,,,ST02_112522,2022-11-25_15h05.43.955,Hippopolis_Updating,2021.1.4,60.23918570873442,
Camponello,stimuli/subj_files/ST02_112522_cityB.csv,./stimuli/hallstatt.jpg,./stimuli/street_plate2.png,LOVAGLÁS UTCA,stimuli/objects/077a.jpg,object,0,stimuli/objects/077a.jpg,stimuli/objects/077b.jpg,stimuli/objects/077a.jpg,stimuli/objects/096a.jpg,stimuli/objects/096b.jpg,lure,target,dist1,dist2,0,1,1,1,0,40,40,37,,,,,,,,,,,834.6554601000098,None,835.6564209999924,None,835.6564209999924,None,835.6564209999924,None,835.6564209999924,None,838.6570053000178,None,838.6570053000178,None,838.6570053000178,None,838.6570053000178,None,None,None,None,None,None,,,,,,,,,,ST02_112522,2022-11-25_15h05.43.955,Hippopolis_Updating,2021.1.4,60.23918570873442,
Camponello,stimuli/subj_files/ST02_112522_cityB.csv,./stimuli/hallstatt.jpg,./stimuli/street_plate2.png,TORONY UTCA,stimuli/scenes/067a.jpg,scene,1,stimuli/scenes/064a.jpg,stimuli/scenes/064a.jpg,stimuli/objects/083a.jpg,stimuli/scenes/064b.jpg,stimuli/objects/083b.jpg,target,dist1,lure,dist2,0,1,1,1,0,41,41,63,,,,,,,,,,,840.6556172000128,None,841.6562657000031,None,841.6562657000031,None,841.6562657000031,None,841.6562657000031,None,844.6561183000158,None,844.6561183000158,None,844.6561183000158,None,844.6561183000158,None,None,None,None,None,None,,,,,,,,,,ST02_112522,2022-11-25_15h05.43.955,Hippopolis_Updating,2021.1.4,60.23918570873442,
Camponello,stimuli/subj_files/ST02_112522_cityB.csv,./stimuli/hallstatt.jpg,./stimuli/street_plate2.png,MOGYORÓ UTCA,stimuli/objects/089a.jpg,object,0,stimuli/objects/089a.jpg,stimuli/objects/089b.jpg,stimuli/objects/089a.jpg,stimuli/scenes/027b.jpg,stimuli/scenes/027a.jpg,lure,target,dist2,dist1,0,1,1,1,0,42,42,5,,,,,,,,,,,846.6552614000102,None,847.6557077000034,None,847.6557077000034,None,847.6557077000034,None,847.6557077000034,None,850.6592301999917,None,850.6592301999917,None,850.6592301999917,None,850.6592301999917,None,None,None,None,None,None,,,,,,,,,,ST02_112522,2022-11-25_15h05.43.955,Hippopolis_Updating,2021.1.4,60.23918570873442,
Camponello,stimuli/subj_files/ST02_112522_cityB.csv,./stimuli/hallstatt.jpg,./stimuli/street_plate2.png,VÁSÁR UTCA,stimuli/scenes/100a.jpg,scene,1,stimuli/scenes/099a.jpg,stimuli/scenes/099b.jpg,stimuli/scenes/099a.jpg,stimuli/scenes/099a.jpg,stimuli/scenes/099b.jpg,lure,dist1,target,dist2,0,1,1,1,0,43,43,44,,,,,,,,,,,852.671915999992,None,853.6729710999934,None,853.6729710999934,None,853.6729710999934,None,853.6729710999934,None,856.6726864000084,None,856.6726864000084,None,856.6726864000084,None,856.6726864000084,None,None,None,None,None,None,,,,,,,,,,ST02_112522,2022-11-25_15h05.43.955,Hippopolis_Updating,2021.1.4,60.23918570873442,
Camponello,stimuli/subj_files/ST02_112522_cityB.csv,./stimuli/hallstatt.jpg,./stimuli/street_plate2.png,NARANCS UTCA,stimuli/objects/032a.jpg,object,0,stimuli/objects/032a.jpg,stimuli/objects/032b.jpg,stimuli/objects/077a.jpg,stimuli/objects/032a.jpg,stimuli/objects/077b.jpg,lure,dist1,target,dist2,0,1,1,1,0,44,44,10,,,,,,,,,,,858.6717353000131,None,859.6726726999914,None,859.6726726999914,None,859.6726726999914,None,859.6726726999914,None,862.6730129999924,None,862.6730129999924,None,862.6730129999924,None,862.6730129999924,None,864.6889849000145,None,space,864.6889849000145,None,28.85724029998528,,,,,,,,,ST02_112522,2022-11-25_15h05.43.955,Hippopolis_Updating,2021.1.4,60.23918570873442,
Camponello,stimuli/subj_files/ST02_112522_cityB.csv,./stimuli/hallstatt.jpg,./stimuli/street_plate2.png,TÉRKÉP UTCA,stimuli/scenes/061a.jpg,scene,0,stimuli/scenes/061a.jpg,stimuli/scenes/061b.jpg,stimuli/objects/101b.jpg,stimuli/scenes/061a.jpg,stimuli/objects/101a.jpg,lure,dist2,target,dist1,0,1,1,1,0,45,45,35,,,,,,,,,,,893.5711818000127,None,894.5711290000181,None,894.5711290000181,None,894.5711290000181,None,894.5711290000181,None,897.5732397999964,None,897.5732397999964,None,897.5732397999964,None,897.5732397999964,None,None,None,None,None,None,,,,,,,,,,ST02_112522,2022-11-25_15h05.43.955,Hippopolis_Updating,2021.1.4,60.23918570873442,
Camponello,stimuli/subj_files/ST02_112522_cityB.csv,./stimuli/hallstatt.jpg,./stimuli/street_plate2.png,BONBON UTCA,stimuli/objects/096a.jpg,object,0,stimuli/objects/096a.jpg,stimuli/scenes/109b.jpg,stimuli/objects/096a.jpg,stimuli/scenes/109a.jpg,stimuli/objects/096b.jpg,dist2,target,dist1,lure,0,1,1,1,0,46,46,61,,,,,,,,,,,899.5876653000014,None,900.5882349000021,None,900.5882349000021,None,900.5882349000021,None,900.5882349000021,None,903.5895114000014,None,903.5895114000014,None,903.5895114000014,None,903.5895114000014,None,None,None,None,None,None,,,,,,,,,,ST02_112522,2022-11-25_15h05.43.955,Hippopolis_Updating,2021.1.4,60.23918570873442,
Camponello,stimuli/subj_files/ST02_112522_cityB.csv,./stimuli/hallstatt.jpg,./stimuli/street_plate2.png,MAJOM UTCA,stimuli/objects/029a.jpg,object,0,stimuli/objects/029a.jpg,stimuli/objects/043b.jpg,stimuli/objects/029b.jpg,stimuli/objects/029a.jpg,stimuli/objects/043a.jpg,dist2,lure,target,dist1,0,1,1,1,0,47,47,38,,,,,,,,,,,905.6044198000163,None,906.6043699000147,None,906.6043699000147,None,906.6043699000147,None,906.6043699000147,None,909.6062043000129,None,909.6062043000129,None,909.6062043000129,None,909.6062043000129,None,None,None,None,None,None,,,,,,,,,,ST02_112522,2022-11-25_15h05.43.955,Hippopolis_Updating,2021.1.4,60.23918570873442,
Camponello,stimuli/subj_files/ST02_112522_cityB.csv,./stimuli/hallstatt.jpg,./stimuli/street_plate2.png,TIGRIS UTCA,stimuli/objects/064a.jpg,object,0,stimuli/objects/064a.jpg,stimuli/objects/064a.jpg,stimuli/objects/110a.jpg,stimuli/objects/064b.jpg,stimuli/objects/110b.jpg,target,dist1,lure,dist2,0,1,1,1,0,48,48,49,,,,,,,,,,,911.6208631999907,None,912.6215173999954,None,912.6215173999954,None,912.6215173999954,None,912.6215173999954,None,915.6222573000123,None,915.6222573000123,None,915.6222573000123,None,915.6222573000123,None,None,None,None,None,None,,,,,,,,,,ST02_112522,2022-11-25_15h05.43.955,Hippopolis_Updating,2021.1.4,60.23918570873442,
Camponello,stimuli/subj_files/ST02_112522_cityB.csv,./stimuli/hallstatt.jpg,./stimuli/street_plate2.png,VIHAR UTCA,stimuli/objects/059a.jpg,object,2,stimuli/scenes/113a.jpg,stimuli/scenes/113a.jpg,stimuli/scenes/068a.jpg,stimuli/scenes/068b.jpg,stimuli/scenes/113b.jpg,target,dist1,dist2,lure,0,1,1,1,0,49,49,18,,,,,,,,,,,917.620872200001,None,918.6210458000132,None,918.6210458000132,None,918.6210458000132,None,918.6210458000132,None,921.625117299991,None,921.625117299991,None,921.625117299991,None,921.625117299991,None,None,None,None,None,None,,,,,,,,,,ST02_112522,2022-11-25_15h05.43.955,Hippopolis_Updating,2021.1.4,60.23918570873442,
Camponello,stimuli/subj_files/ST02_112522_cityB.csv,./stimuli/hallstatt.jpg,./stimuli/street_plate2.png,MOSODA UTCA,stimuli/scenes/105a.jpg,scene,2,stimuli/objects/005a.jpg,stimuli/objects/049b.jpg,stimuli/objects/049a.jpg,stimuli/objects/005b.jpg,stimuli/objects/005a.jpg,dist2,dist1,lure,target,0,1,1,1,0,50,50,26,,,,,,,,,,,923.6373058000172,None,924.638314300013,None,924.638314300013,None,924.638314300013,None,924.638314300013,None,927.6377619999985,None,927.6377619999985,None,927.6377619999985,None,927.6377619999985,None,None,None,None,None,None,,,,,,,,,,ST02_112522,2022-11-25_15h05.43.955,Hippopolis_Updating,2021.1.4,60.23918570873442,
Camponello,stimuli/subj_files/ST02_112522_cityB.csv,./stimuli/hallstatt.jpg,./stimuli/street_plate2.png,PAPUCS UTCA,stimuli/objects/043a.jpg,object,0,stimuli/objects/043a.jpg,stimuli/objects/043b.jpg,stimuli/objects/043a.jpg,stimuli/scenes/028b.jpg,stimuli/scenes/028a.jpg,lure,target,dist2,dist1,0,1,1,1,0,51,51,45,,,,,,,,,,,929.6371333000134,None,930.6378828000161,None,930.6378828000161,None,930.6378828000161,None,930.6378828000161,None,933.6379011000099,None,933.6379011000099,None,933.6379011000099,None,933.6379011000099,None,None,None,None,None,None,,,,,,,,,,ST02_112522,2022-11-25_15h05.43.955,Hippopolis_Updating,2021.1.4,60.23918570873442,
Camponello,stimuli/subj_files/ST02_112522_cityB.csv,./stimuli/hallstatt.jpg,./stimuli/street_plate2.png,MUSTÁR UTCA,stimuli/scenes/028a.jpg,scene,0,stimuli/scenes/028a.jpg,stimuli/scenes/028b.jpg,stimuli/objects/004a.jpg,stimuli/objects/004b.jpg,stimuli/scenes/028a.jpg,lure,dist1,dist2,target,0,1,1,1,0,52,52,24,,,,,,,,,,,935.6376258000091,None,936.6380538000085,None,936.6380538000085,None,936.6380538000085,None,936.6380538000085,None,939.638379400014,None,939.638379400014,None,939.638379400014,None,939.638379400014,None,None,None,None,None,None,,,,,,,,,,ST02_112522,2022-11-25_15h05.43.955,Hippopolis_Updating,2021.1.4,60.23918570873442,
Camponello,stimuli/subj_files/ST02_112522_cityB.csv,./stimuli/hallstatt.jpg,./stimuli/street_plate2.png,BAGOLY UTCA,stimuli/scenes/093a.jpg,scene,0,stimuli/scenes/093a.jpg,stimuli/scenes/093b.jpg,stimuli/scenes/093a.jpg,stimuli/scenes/012a.jpg,stimuli/scenes/012b.jpg,lure,target,dist1,dist2,0,1,1,1,0,53,53,27,,,,,,,,,,,941.6375947000051,None,942.6371993999928,None,942.6371993999928,None,942.6371993999928,None,942.6371993999928,None,945.6378197000013,None,945.6378197000013,None,945.6378197000013,None,945.6378197000013,None,None,None,None,None,None,,,,,,,,,,ST02_112522,2022-11-25_15h05.43.955,Hippopolis_Updating,2021.1.4,60.23918570873442,
Camponello,stimuli/subj_files/ST02_112522_cityB.csv,./stimuli/hallstatt.jpg,./stimuli/street_plate2.png,KAKAS UTCA,stimuli/scenes/095a.jpg,scene,2,stimuli/objects/047a.jpg,stimuli/objects/047b.jpg,stimuli/objects/047a.jpg,stimuli/objects/116b.jpg,stimuli/objects/116a.jpg,lure,target,dist2,dist1,0,1,1,1,0,54,54,33,,,,,,,,,,,947.6371321000042,None,948.6378217000165,None,948.6378217000165,None,948.6378217000165,None,948.6378217000165,None,951.6383260000148,None,951.6383260000148,None,951.6383260000148,None,951.6383260000148,None,None,None,None,None,None,,,,,,,,,,ST02_112522,2022-11-25_15h05.43.955,Hippopolis_Updating,2021.1.4,60.23918570873442,
Camponello,stimuli/subj_files/ST02_112522_cityB.csv,./stimuli/hallstatt.jpg,./stimuli/street_plate2.png,KÖTÉL UTCA,stimuli/scenes/024a.jpg,scene,0,stimuli/scenes/024a.jpg,stimuli/scenes/024b.jpg,stimuli/objects/040a.jpg,stimuli/objects/040b.jpg,stimuli/scenes/024a.jpg,lure,dist1,dist2,target,0,1,1,1,0,55,55,74,,,,,,,,,,,953.6369729000144,None,954.6370229000167,None,954.6370229000167,None,954.6370229000167,None,954.6370229000167,None,957.6374650000071,None,957.6374650000071,None,957.6374650000071,None,957.6374650000071,None,None,None,None,None,None,,,,,,,,,,ST02_112522,2022-11-25_15h05.43.955,Hippopolis_Updating,2021.1.4,60.23918570873442,
Camponello,stimuli/subj_files/ST02_112522_cityB.csv,./stimuli/hallstatt.jpg,./stimuli/street_plate2.png,TERASZ UTCA,stimuli/objects/110a.jpg,object,0,stimuli/objects/110a.jpg,stimuli/objects/110a.jpg,stimuli/objects/075a.jpg,stimuli/objects/110b.jpg,stimuli/objects/075b.jpg,target,dist1,lure,dist2,0,1,1,1,0,56,56,39,,,,,,,,,,,959.6368043000111,None,960.6370016000001,None,960.6370016000001,None,960.6370016000001,None,960.6370016000001,None,963.6371378999902,None,963.6371378999902,None,963.6371378999902,None,963.6371378999902,None,None,None,None,None,None,,,,,,,,,,ST02_112522,2022-11-25_15h05.43.955,Hippopolis_Updating,2021.1.4,60.23918570873442,
Camponello,stimuli/subj_files/ST02_112522_cityB.csv,./stimuli/hallstatt.jpg,./stimuli/street_plate2.png,ÜVEG UTCA,stimuli/scenes/076a.jpg,scene,2,stimuli/objects/066a.jpg,stimuli/objects/066b.jpg,stimuli/objects/066a.jpg,stimuli/objects/047a.jpg,stimuli/objects/047b.jpg,lure,target,dist1,dist2,0,1,1,1,0,57,57,47,,,,,,,,,,,965.6366059000138,None,966.6367731000064,None,966.6367731000064,None,966.6367731000064,None,966.6367731000064,None,969.6404734000098,None,969.6404734000098,None,969.6404734000098,None,969.6404734000098,None,None,None,None,None,None,,,,,,,,,,ST02_112522,2022-11-25_15h05.43.955,Hippopolis_Updating,2021.1.4,60.23918570873442,
Camponello,stimuli/subj_files/ST02_112522_cityB.csv,./stimuli/hallstatt.jpg,./stimuli/street_plate2.png,SIRÁLY UTCA,stimuli/objects/033a.jpg,object,0,stimuli/objects/033a.jpg,stimuli/scenes/069a.jpg,stimuli/objects/033a.jpg,stimuli/objects/033b.jpg,stimuli/scenes/069b.jpg,dist1,target,lure,dist2,0,1,1,1,0,58,58,15,,,,,,,,,,,971.6532732000051,None,972.6541458000138,None,972.6541458000138,None,972.6541458000138,None,972.6541458000138,None,975.656630500016,None,975.656630500016,None,975.656630500016,None,975.656630500016,None,None,None,None,None,None,,,,,,,,,,ST02_112522,2022-11-25_15h05.43.955,Hippopolis_Updating,2021.1.4,60.23918570873442,
Camponello,stimuli/subj_files/ST02_112522_cityB.csv,./stimuli/hallstatt.jpg,./stimuli/street_plate2.png,DOMINÓ UTCA,stimuli/scenes/096a.jpg,scene,0,stimuli/scenes/096a.jpg,stimuli/scenes/098b.jpg,stimuli/scenes/098a.jpg,stimuli/scenes/096b.jpg,stimuli/scenes/096a.jpg,dist2,dist1,lure,target,0,1,1,1,0,59,59,36,,,,,,,,,,,977.6697564999922,None,978.6698013000132,None,978.6698013000132,None,978.6698013000132,None,978.6698013000132,None,981.6699971999915,None,981.6699971999915,None,981.6699971999915,None,981.6699971999915,None,None,None,None,None,None,,,,,,,,,,ST02_112522,2022-11-25_15h05.43.955,Hippopolis_Updating,2021.1.4,60.23918570873442,
Camponello,stimuli/subj_files/ST02_112522_cityB.csv,./stimuli/hallstatt.jpg,./stimuli/street_plate2.png,ECSET UTCA,stimuli/objects/115a.jpg,object,1,stimuli/objects/007a.jpg,stimuli/scenes/074b.jpg,stimuli/objects/007b.jpg,stimuli/objects/007a.jpg,stimuli/scenes/074a.jpg,dist2,lure,target,dist1,0,1,1,1,0,60,60,43,,,,,,,,,,,983.6698686000018,None,984.6698004000064,None,984.6698004000064,None,984.6698004000064,None,984.6698004000064,None,987.6708883999963,None,987.6708883999963,None,987.6708883999963,None,987.6708883999963,None,None,None,None,None,None,,,,,,,,,,ST02_112522,2022-11-25_15h05.43.955,Hippopolis_Updating,2021.1.4,60.23918570873442,
Camponello,stimuli/subj_files/ST02_112522_cityB.csv,./stimuli/hallstatt.jpg,./stimuli/street_plate2.png,TÁNYÉR UTCA,stimuli/scenes/097a.jpg,scene,2,stimuli/objects/116a.jpg,stimuli/scenes/113b.jpg,stimuli/scenes/113a.jpg,stimuli/objects/116a.jpg,stimuli/objects/116b.jpg,dist2,dist1,target,lure,0,1,1,1,0,61,61,42,,,,,,,,,,,989.6866062000045,None,990.6869365000166,None,990.6869365000166,None,990.6869365000166,None,990.6869365000166,None,993.6868262999924,None,993.6868262999924,None,993.6868262999924,None,993.6868262999924,None,None,None,None,None,None,,,,,,,,,,ST02_112522,2022-11-25_15h05.43.955,Hippopolis_Updating,2021.1.4,60.23918570873442,
Camponello,stimuli/subj_files/ST02_112522_cityB.csv,./stimuli/hallstatt.jpg,./stimuli/street_plate2.png,TULIPÁN UTCA,stimuli/objects/040a.jpg,object,0,stimuli/objects/040a.jpg,stimuli/scenes/077a.jpg,stimuli/objects/040b.jpg,stimuli/objects/040a.jpg,stimuli/scenes/077b.jpg,dist1,lure,target,dist2,0,1,1,1,0,62,62,13,,,,,,,,,,,995.6862152999965,None,996.6865174999984,None,996.6865174999984,None,996.6865174999984,None,996.6865174999984,None,999.686961600004,None,999.686961600004,None,999.686961600004,None,999.686961600004,None,None,None,None,None,None,,,,,,,,,,ST02_112522,2022-11-25_15h05.43.955,Hippopolis_Updating,2021.1.4,60.23918570873442,
Camponello,stimuli/subj_files/ST02_112522_cityB.csv,./stimuli/hallstatt.jpg,./stimuli/street_plate2.png,KÖTÉNY UTCA,stimuli/objects/118a.jpg,object,0,stimuli/objects/118a.jpg,stimuli/scenes/093b.jpg,stimuli/objects/118a.jpg,stimuli/scenes/093a.jpg,stimuli/objects/118b.jpg,dist2,target,dist1,lure,0,1,1,1,0,63,63,58,,,,,,,,,,,1001.6858791999985,None,1002.6868142000167,None,1002.6868142000167,None,1002.6868142000167,None,1002.6868142000167,None,1005.687136499997,None,1005.687136499997,None,1005.687136499997,None,1005.687136499997,None,None,None,None,None,None,,,,,,,,,,ST02_112522,2022-11-25_15h05.43.955,Hippopolis_Updating,2021.1.4,60.23918570873442,
Camponello,stimuli/subj_files/ST02_112522_cityB.csv,./stimuli/hallstatt.jpg,./stimuli/street_plate2.png,PÁLMAFA UTCA,stimuli/objects/082a.jpg,object,0,stimuli/objects/082a.jpg,stimuli/objects/082b.jpg,stimuli/objects/082a.jpg,stimuli/scenes/081a.jpg,stimuli/scenes/081b.jpg,lure,target,dist1,dist2,0,1,1,1,0,64,64,62,,,,,,,,,,,1007.6860354999953,None,1008.6867254000099,None,1008.6867254000099,None,1008.6867254000099,None,1008.6867254000099,None,1011.6879887999967,None,1011.6879887999967,None,1011.6879887999967,None,1011.6879887999967,None,None,None,None,None,None,,,,,,,,,,ST02_112522,2022-11-25_15h05.43.955,Hippopolis_Updating,2021.1.4,60.23918570873442,
Camponello,stimuli/subj_files/ST02_112522_cityB.csv,./stimuli/hallstatt.jpg,./stimuli/street_plate2.png,PETÁRDA UTCA,stimuli/scenes/054a.jpg,scene,0,stimuli/scenes/054a.jpg,stimuli/objects/033b.jpg,stimuli/scenes/054b.jpg,stimuli/objects/033a.jpg,stimuli/scenes/054a.jpg,dist2,lure,dist1,target,0,1,1,1,0,65,65,40,,,,,,,,,,,1013.7023685000022,None,1014.7024521999992,None,1014.7024521999992,None,1014.7024521999992,None,1014.7024521999992,None,1017.7035807000066,None,1017.7035807000066,None,1017.7035807000066,None,1017.7035807000066,None,None,None,None,None,None,,,,,,,,,,ST02_112522,2022-11-25_15h05.43.955,Hippopolis_Updating,2021.1.4,60.23918570873442,
Camponello,stimuli/subj_files/ST02_112522_cityB.csv,./stimuli/hallstatt.jpg,./stimuli/street_plate2.png,KALAPÁCS UTCA,stimuli/objects/055a.jpg,object,1,stimuli/objects/067a.jpg,stimuli/objects/067a.jpg,stimuli/objects/067b.jpg,stimuli/scenes/058b.jpg,stimuli/scenes/058a.jpg,target,lure,dist2,dist1,0,1,1,1,0,66,66,57,,,,,,,,,,,1019.7024385000113,None,1020.7033714000136,None,1020.7033714000136,None,1020.7033714000136,None,1020.7033714000136,None,1023.7065318000095,None,1023.7065318000095,None,1023.7065318000095,None,1023.7065318000095,None,None,None,None,None,None,,,,,,,,,,ST02_112522,2022-11-25_15h05.43.955,Hippopolis_Updating,2021.1.4,60.23918570873442,
Camponello,stimuli/subj_files/ST02_112522_cityB.csv,./stimuli/hallstatt.jpg,./stimuli/street_plate2.png,LEGELŐ UTCA,stimuli/scenes/052a.jpg,scene,0,stimuli/scenes/052a.jpg,stimuli/scenes/052a.jpg,stimuli/scenes/052b.jpg,stimuli/scenes/059b.jpg,stimuli/scenes/059a.jpg,target,lure,dist2,dist1,0,1,1,1,0,67,67,30,,,,,,,,,,,1025.718747100007,None,1026.7190732000163,None,1026.7190732000163,None,1026.7190732000163,None,1026.7190732000163,None,1029.7200008000073,None,1029.7200008000073,None,1029.7200008000073,None,1029.7200008000073,None,None,None,None,None,None,,,,,,,,,,ST02_112522,2022-11-25_15h05.43.955,Hippopolis_Updating,2021.1.4,60.23918570873442,
Camponello,stimuli/subj_files/ST02_112522_cityB.csv,./stimuli/hallstatt.jpg,./stimuli/street_plate2.png,SÜTEMÉNY UTCA,stimuli/objects/013a.jpg,object,0,stimuli/objects/013a.jpg,stimuli/scenes/019a.jpg,stimuli/objects/013b.jpg,stimuli/objects/013a.jpg,stimuli/scenes/019b.jpg,dist1,lure,target,dist2,0,1,1,1,0,68,68,23,,,,,,,,,,,1031.7187390000036,None,1032.7190446000022,None,1032.7190446000022,None,1032.7190446000022,None,1032.7190446000022,None,1035.7200093000138,None,1035.7200093000138,None,1035.7200093000138,None,1035.7200093000138,None,None,None,None,None,None,,,,,,,,,,ST02_112522,2022-11-25_15h05.43.955,Hippopolis_Updating,2021.1.4,60.23918570873442,
Camponello,stimuli/subj_files/ST02_112522_cityB.csv,./stimuli/hallstatt.jpg,./stimuli/street_plate2.png,CSAVAR UTCA,stimuli/scenes/081a.jpg,scene,0,stimuli/scenes/081a.jpg,stimuli/scenes/081b.jpg,stimuli/scenes/081a.jpg,stimuli/objects/017b.jpg,stimuli/objects/017a.jpg,lure,target,dist2,dist1,0,1,1,1,0,69,69,78,,,,,,,,,,,1037.7186197999981,None,1038.7193922000006,None,1038.7193922000006,None,1038.7193922000006,None,1038.7193922000006,None,1041.7194103999936,None,1041.7194103999936,None,1041.7194103999936,None,1041.7194103999936,None,None,None,None,None,None,,,,,,,,,,ST02_112522,2022-11-25_15h05.43.955,Hippopolis_Updating,2021.1.4,60.23918570873442,
Camponello,stimuli/subj_files/ST02_112522_cityB.csv,./stimuli/hallstatt.jpg,./stimuli/street_plate2.png,LÉPCSŐ UTCA,stimuli/objects/085a.jpg,object,2,stimuli/scenes/044a.jpg,stimuli/scenes/044b.jpg,stimuli/scenes/044a.jpg,stimuli/scenes/037b.jpg,stimuli/scenes/037a.jpg,lure,target,dist2,dist1,0,1,1,1,0,70,70,41,,,,,,,,,,,1043.7186090000032,None,1044.719125500007,None,1044.719125500007,None,1044.719125500007,None,1044.719125500007,None,1047.7188821000163,None,1047.7188821000163,None,1047.7188821000163,None,1047.7188821000163,None,None,None,None,None,None,,,,,,,,,,ST02_112522,2022-11-25_15h05.43.955,Hippopolis_Updating,2021.1.4,60.23918570873442,
