CityName,StimuliFile,CityImage,StreetSign,VideoFile,Cue,Image,Category,Novelty,UpdateImage,TestImage1,TestImage2,TestImage3,TestImage4,TestImage1Type,TestImage2Type,TestImage3Type,TestImage4Type,CityBlock.thisRepN,CityBlock.thisTrialN,CityBlock.thisN,CityBlock.thisIndex,LearningTrials.thisRepN,LearningTrials.thisTrialN,LearningTrials.thisN,LearningTrials.thisIndex,trials.thisRepN,trials.thisTrialN,trials.thisN,trials.thisIndex,learning_instructions_text.started,intro_key.started,intro_key.keys,intro_key.rt,cityname_text_intro.started,city_image_2.started,load_video.started,movie.started,end_vid_key.started,end_vid_key.keys,cityname_text.started,city_image.started,text_countdown.started,fx_cross.started,plate.started,city_text.started,street_text.started,learning_image.started,short_break_key.keys,fx_cross.stopped,short_break_text.started,short_break_key.started,short_break_key.rt,test_text.started,key_resp.started,key_resp.keys,key_resp.rt,plate_test.started,city_text_test.started,street_text_test.started,test_question.started,test_key_resp.started,button_image.started,test_key_resp.keys,verbal_test_key_resp.keys,test_key_resp.rt,plate_verbal.started,street_text_verbal.started,city_text_verbal.started,question_verbal.started,verbal_test_key_resp.started,verbal_test_key_resp.rt,n_remembered,break_text.started,break_key_resp.started,break_key_resp.keys,break_key_resp.rt,end_vid_key.rt,end_text.started,participant,date,expName,psychopyVersion,frameRate,
,,,,,,,,,,,,,,,,,,,,,,,,,,,,,,29.834311343729496,29.834311343729496,space,11.58858997002244,,,,,,,,,,,,,,,,,,,,,,,,,,,,,,,,,,,,,,,,,,,,,,ST02_112822,2022-11-29_11h09.24.884,Hippopolis_Learning,2022.2.2,59.09473192939509,
Hippopolis,stimuli/subj_files/ST02_112822_cityA.csv,./stimuli/seattle.jpg,./stimuli/street_plate1.png,./stimuli/videos/hippopolis_part1.mp4,SÜTŐ UTCA,stimuli/objects/051a.jpg,object,2,stimuli/scenes/117a.jpg,stimuli/scenes/117a.jpg,stimuli/scenes/117b.jpg,stimuli/scenes/004b.jpg,stimuli/scenes/004a.jpg,target,lure,dist2,dist1,0,0,0,0,0,0,0,67,,,,,,,,,41.497932428494096,41.497932428494096,0.04472271911799908,44.62302262149751,44.62302262149751,None,72.71871120110154,72.71871120110154,75.2611327841878,78.26610142178833,79.36237780563533,79.36237780563533,79.36237780563533,79.36237780563533,None,,,,,,,,,,,,,,,,,,,,,,,,,,,,,,,ST02_112822,2022-11-29_11h09.24.884,Hippopolis_Learning,2022.2.2,59.09473192939509,
Hippopolis,stimuli/subj_files/ST02_112822_cityA.csv,./stimuli/seattle.jpg,./stimuli/street_plate1.png,./stimuli/videos/hippopolis_part1.mp4,TÁSKA UTCA,stimuli/scenes/093a.jpg,scene,1,stimuli/scenes/071a.jpg,stimuli/scenes/071a.jpg,stimuli/scenes/071b.jpg,stimuli/scenes/107a.jpg,stimuli/scenes/107b.jpg,target,lure,dist1,dist2,0,0,0,0,0,1,1,41,,,,,,,,,,,,,,,,,,82.26137941144407,83.33820949867368,83.33820949867368,83.33820949867368,83.33820949867368,None,,,,,,,,,,,,,,,,,,,,,,,,,,,,,,,ST02_112822,2022-11-29_11h09.24.884,Hippopolis_Learning,2022.2.2,59.09473192939509,
Hippopolis,stimuli/subj_files/ST02_112822_cityA.csv,./stimuli/seattle.jpg,./stimuli/street_plate1.png,./stimuli/videos/hippopolis_part1.mp4,LABDA UTCA,stimuli/scenes/058a.jpg,scene,1,stimuli/scenes/055a.jpg,stimuli/scenes/091b.jpg,stimuli/scenes/091a.jpg,stimuli/scenes/055b.jpg,stimuli/scenes/055a.jpg,dist2,dist1,lure,target,0,0,0,0,0,2,2,75,,,,,,,,,,,,,,,,,,86.27769480831921,87.33332078903913,87.33332078903913,87.33332078903913,87.33332078903913,None,,,,,,,,,,,,,,,,,,,,,,,,,,,,,,,ST02_112822,2022-11-29_11h09.24.884,Hippopolis_Learning,2022.2.2,59.09473192939509,
Hippopolis,stimuli/subj_files/ST02_112822_cityA.csv,./stimuli/seattle.jpg,./stimuli/street_plate1.png,./stimuli/videos/hippopolis_part1.mp4,KOCSI UTCA,stimuli/objects/029a.jpg,object,2,stimuli/scenes/119a.jpg,stimuli/scenes/068b.jpg,stimuli/scenes/119b.jpg,stimuli/scenes/068a.jpg,stimuli/scenes/119a.jpg,dist2,lure,dist1,target,0,0,0,0,0,3,3,76,,,,,,,,,,,,,,,,,,90.2803591992706,91.3356213029474,91.3356213029474,91.3356213029474,91.3356213029474,None,,,,,,,,,,,,,,,,,,,,,,,,,,,,,,,ST02_112822,2022-11-29_11h09.24.884,Hippopolis_Learning,2022.2.2,59.09473192939509,
Hippopolis,stimuli/subj_files/ST02_112822_cityA.csv,./stimuli/seattle.jpg,./stimuli/street_plate1.png,./stimuli/videos/hippopolis_part1.mp4,MÁLNA UTCA,stimuli/objects/109a.jpg,object,1,stimuli/objects/028a.jpg,stimuli/objects/115a.jpg,stimuli/objects/028a.jpg,stimuli/objects/028b.jpg,stimuli/objects/115b.jpg,dist1,target,lure,dist2,0,0,0,0,0,4,4,14,,,,,,,,,,,,,,,,,,94.28763021714985,95.32524084299803,95.32524084299803,95.32524084299803,95.32524084299803,None,95.32524084299803,,,,,,,,,,,,,,,,,,,,,,,,,,,,,,ST02_112822,2022-11-29_11h09.24.884,Hippopolis_Learning,2022.2.2,59.09473192939509,
Hippopolis,stimuli/subj_files/ST02_112822_cityA.csv,./stimuli/seattle.jpg,./stimuli/street_plate1.png,./stimuli/videos/hippopolis_part1.mp4,FÉNYKÉP UTCA,stimuli/objects/072a.jpg,object,0,stimuli/objects/072a.jpg,stimuli/objects/072b.jpg,stimuli/scenes/061b.jpg,stimuli/scenes/061a.jpg,stimuli/objects/072a.jpg,lure,dist2,dist1,target,0,0,0,0,0,5,5,22,,,,,,,,,,,,,,,,,,98.29445276595652,99.35765983723104,99.35765983723104,99.35765983723104,99.35765983723104,None,,,,,,,,,,,,,,,,,,,,,,,,,,,,,,,ST02_112822,2022-11-29_11h09.24.884,Hippopolis_Learning,2022.2.2,59.09473192939509,
Hippopolis,stimuli/subj_files/ST02_112822_cityA.csv,./stimuli/seattle.jpg,./stimuli/street_plate1.png,./stimuli/videos/hippopolis_part1.mp4,KÖNYVTÁR UTCA,stimuli/scenes/065a.jpg,scene,0,stimuli/scenes/065a.jpg,stimuli/scenes/065b.jpg,stimuli/scenes/118b.jpg,stimuli/scenes/065a.jpg,stimuli/scenes/118a.jpg,lure,dist2,target,dist1,0,0,0,0,0,6,6,34,,,,,,,,,,,,,,,,,,102.29697564803064,103.35202906653285,103.35202906653285,103.35202906653285,103.35202906653285,None,,,,,,,,,,,,,,,,,,,,,,,,,,,,,,,ST02_112822,2022-11-29_11h09.24.884,Hippopolis_Learning,2022.2.2,59.09473192939509,
Hippopolis,stimuli/subj_files/ST02_112822_cityA.csv,./stimuli/seattle.jpg,./stimuli/street_plate1.png,./stimuli/videos/hippopolis_part1.mp4,SIRÁLY UTCA,stimuli/objects/055a.jpg,object,0,stimuli/objects/055a.jpg,stimuli/objects/055b.jpg,stimuli/objects/085b.jpg,stimuli/objects/085a.jpg,stimuli/objects/055a.jpg,lure,dist2,dist1,target,0,0,0,0,0,7,7,19,,,,,,,,,,,,,,,,,,106.30929989926517,107.35682385228574,107.35682385228574,107.35682385228574,107.35682385228574,None,,,,,,,,,,,,,,,,,,,,,,,,,,,,,,,ST02_112822,2022-11-29_11h09.24.884,Hippopolis_Learning,2022.2.2,59.09473192939509,
Hippopolis,stimuli/subj_files/ST02_112822_cityA.csv,./stimuli/seattle.jpg,./stimuli/street_plate1.png,./stimuli/videos/hippopolis_part1.mp4,ÁRNYÉK UTCA,stimuli/objects/035a.jpg,object,1,stimuli/objects/059a.jpg,stimuli/objects/059a.jpg,stimuli/scenes/078b.jpg,stimuli/objects/059b.jpg,stimuli/scenes/078a.jpg,target,dist2,lure,dist1,0,0,0,0,0,8,8,29,,,,,,,,,,,,,,,,,,110.31165981478989,111.35984528064728,111.35984528064728,111.35984528064728,111.35984528064728,None,,,,,,,,,,,,,,,,,,,,,,,,,,,,,,,ST02_112822,2022-11-29_11h09.24.884,Hippopolis_Learning,2022.2.2,59.09473192939509,
Hippopolis,stimuli/subj_files/ST02_112822_cityA.csv,./stimuli/seattle.jpg,./stimuli/street_plate1.png,./stimuli/videos/hippopolis_part1.mp4,HEGEDŰ UTCA,stimuli/objects/085a.jpg,object,0,stimuli/objects/085a.jpg,stimuli/scenes/021a.jpg,stimuli/objects/085a.jpg,stimuli/scenes/021b.jpg,stimuli/objects/085b.jpg,dist1,target,dist2,lure,0,0,0,0,0,9,9,46,,,,,,,,,,,,,,,,,,114.32379559613764,115.38553285226226,115.38553285226226,115.38553285226226,115.38553285226226,None,,,,,,,,,,,,,,,,,,,,,,,,,,,,,,,ST02_112822,2022-11-29_11h09.24.884,Hippopolis_Learning,2022.2.2,59.09473192939509,
Hippopolis,stimuli/subj_files/ST02_112822_cityA.csv,./stimuli/seattle.jpg,./stimuli/street_plate1.png,./stimuli/videos/hippopolis_part1.mp4,KÁRTYA UTCA,stimuli/objects/023a.jpg,object,0,stimuli/objects/023a.jpg,stimuli/objects/023b.jpg,stimuli/objects/023a.jpg,stimuli/scenes/100b.jpg,stimuli/scenes/100a.jpg,lure,target,dist2,dist1,0,0,0,0,0,10,10,37,,,,,,,,,,,,,,,,,,118.33807203359902,119.40200872719288,119.40200872719288,119.40200872719288,119.40200872719288,None,,,,,,,,,,,,,,,,,,,,,,,,,,,,,,,ST02_112822,2022-11-29_11h09.24.884,Hippopolis_Learning,2022.2.2,59.09473192939509,
Hippopolis,stimuli/subj_files/ST02_112822_cityA.csv,./stimuli/seattle.jpg,./stimuli/street_plate1.png,./stimuli/videos/hippopolis_part1.mp4,SZILVA UTCA,stimuli/scenes/016a.jpg,scene,1,stimuli/scenes/070a.jpg,stimuli/scenes/070b.jpg,stimuli/scenes/070a.jpg,stimuli/objects/067a.jpg,stimuli/objects/067b.jpg,lure,target,dist1,dist2,0,0,0,0,0,11,11,20,,,,,,,,,,,,,,,,,,122.35818294994533,123.39598173461854,123.39598173461854,123.39598173461854,123.39598173461854,None,,,,,,,,,,,,,,,,,,,,,,,,,,,,,,,ST02_112822,2022-11-29_11h09.24.884,Hippopolis_Learning,2022.2.2,59.09473192939509,
Hippopolis,stimuli/subj_files/ST02_112822_cityA.csv,./stimuli/seattle.jpg,./stimuli/street_plate1.png,./stimuli/videos/hippopolis_part1.mp4,HÁRFA UTCA,stimuli/scenes/037a.jpg,scene,0,stimuli/scenes/037a.jpg,stimuli/scenes/037a.jpg,stimuli/scenes/037b.jpg,stimuli/objects/072a.jpg,stimuli/objects/072b.jpg,target,lure,dist1,dist2,0,0,0,0,0,12,12,16,,,,,,,,,,,,,,,,,,126.37463954277337,127.43185134604573,127.43185134604573,127.43185134604573,127.43185134604573,None,,,,,,,,,,,,,,,,,,,,,,,,,,,,,,,ST02_112822,2022-11-29_11h09.24.884,Hippopolis_Learning,2022.2.2,59.09473192939509,
Hippopolis,stimuli/subj_files/ST02_112822_cityA.csv,./stimuli/seattle.jpg,./stimuli/street_plate1.png,./stimuli/videos/hippopolis_part1.mp4,BETON UTCA,stimuli/scenes/022a.jpg,scene,1,stimuli/scenes/077a.jpg,stimuli/scenes/084b.jpg,stimuli/scenes/077b.jpg,stimuli/scenes/084a.jpg,stimuli/scenes/077a.jpg,dist2,lure,dist1,target,0,0,0,0,0,13,13,0,,,,,,,,,,,,,,,,,,130.38274001516402,131.43802637793124,131.43802637793124,131.43802637793124,131.43802637793124,None,,,,,,,,,,,,,,,,,,,,,,,,,,,,,,,ST02_112822,2022-11-29_11h09.24.884,Hippopolis_Learning,2022.2.2,59.09473192939509,
Hippopolis,stimuli/subj_files/ST02_112822_cityA.csv,./stimuli/seattle.jpg,./stimuli/street_plate1.png,./stimuli/videos/hippopolis_part1.mp4,SZÖCSKE UTCA,stimuli/objects/081a.jpg,object,1,stimuli/objects/038a.jpg,stimuli/scenes/099a.jpg,stimuli/objects/038b.jpg,stimuli/objects/038a.jpg,stimuli/scenes/099b.jpg,dist1,lure,target,dist2,0,0,0,0,0,14,14,66,,,,,,,,,,,,,,,,,,134.38850638456643,135.44945492967963,135.44945492967963,135.44945492967963,135.44945492967963,None,,,,,,,,,,,,,,,,,,,,,,,,,,,,,,,ST02_112822,2022-11-29_11h09.24.884,Hippopolis_Learning,2022.2.2,59.09473192939509,
Hippopolis,stimuli/subj_files/ST02_112822_cityA.csv,./stimuli/seattle.jpg,./stimuli/street_plate1.png,./stimuli/videos/hippopolis_part1.mp4,SIVATAG UTCA,stimuli/scenes/061a.jpg,scene,0,stimuli/scenes/061a.jpg,stimuli/scenes/061b.jpg,stimuli/objects/087b.jpg,stimuli/objects/087a.jpg,stimuli/scenes/061a.jpg,lure,dist2,dist1,target,0,0,0,0,0,15,15,18,,,,,,,,,,,,,,,,,,138.39467923901975,139.44279130734503,139.44279130734503,139.44279130734503,139.44279130734503,None,,,,,,,,,,,,,,,,,,,,,,,,,,,,,,,ST02_112822,2022-11-29_11h09.24.884,Hippopolis_Learning,2022.2.2,59.09473192939509,
Hippopolis,stimuli/subj_files/ST02_112822_cityA.csv,./stimuli/seattle.jpg,./stimuli/street_plate1.png,./stimuli/videos/hippopolis_part1.mp4,SZALVÉTA UTCA,stimuli/scenes/035a.jpg,scene,1,stimuli/scenes/099a.jpg,stimuli/objects/059b.jpg,stimuli/scenes/099a.jpg,stimuli/scenes/099b.jpg,stimuli/objects/059a.jpg,dist2,target,lure,dist1,0,0,0,0,0,16,16,56,,,,,,,,,,,,,,,,,,142.3965844642371,143.44778295978904,143.44778295978904,143.44778295978904,143.44778295978904,None,,,,,,,,,,,,,,,,,,,,,,,,,,,,,,,ST02_112822,2022-11-29_11h09.24.884,Hippopolis_Learning,2022.2.2,59.09473192939509,
Hippopolis,stimuli/subj_files/ST02_112822_cityA.csv,./stimuli/seattle.jpg,./stimuli/street_plate1.png,./stimuli/videos/hippopolis_part1.mp4,TULIPÁN UTCA,stimuli/scenes/094a.jpg,scene,0,stimuli/scenes/094a.jpg,stimuli/scenes/014a.jpg,stimuli/scenes/094b.jpg,stimuli/scenes/014b.jpg,stimuli/scenes/094a.jpg,dist1,lure,dist2,target,0,0,0,0,0,17,17,62,,,,,,,,,,,,,,,,,,146.40389155969024,147.4402444753796,147.4402444753796,147.4402444753796,147.4402444753796,None,147.4402444753796,,,,,,,,,,,,,,,,,,,,,,,,,,,,,,ST02_112822,2022-11-29_11h09.24.884,Hippopolis_Learning,2022.2.2,59.09473192939509,
Hippopolis,stimuli/subj_files/ST02_112822_cityA.csv,./stimuli/seattle.jpg,./stimuli/street_plate1.png,./stimuli/videos/hippopolis_part1.mp4,TRIATLON UTCA,stimuli/objects/026a.jpg,object,1,stimuli/objects/068a.jpg,stimuli/scenes/111b.jpg,stimuli/objects/068a.jpg,stimuli/scenes/111a.jpg,stimuli/objects/068b.jpg,dist2,target,dist1,lure,0,0,0,0,0,18,18,35,,,,,,,,,,,,,,,,,,150.41161509230733,151.47696251235902,151.47696251235902,151.47696251235902,151.47696251235902,None,,,,,,,,,,,,,,,,,,,,,,,,,,,,,,,ST02_112822,2022-11-29_11h09.24.884,Hippopolis_Learning,2022.2.2,59.09473192939509,
Hippopolis,stimuli/subj_files/ST02_112822_cityA.csv,./stimuli/seattle.jpg,./stimuli/street_plate1.png,./stimuli/videos/hippopolis_part1.mp4,ECSET UTCA,stimuli/objects/025a.jpg,object,0,stimuli/objects/025a.jpg,stimuli/objects/025b.jpg,stimuli/scenes/052b.jpg,stimuli/objects/025a.jpg,stimuli/scenes/052a.jpg,lure,dist2,target,dist1,0,0,0,0,0,19,19,8,,,,,,,,,,,,,,,,,,154.4284103717655,155.46270411275327,155.46270411275327,155.46270411275327,155.46270411275327,None,155.46270411275327,,,,,,,,,,,,,,,,,,,,,,,,,,,,,,ST02_112822,2022-11-29_11h09.24.884,Hippopolis_Learning,2022.2.2,59.09473192939509,
Hippopolis,stimuli/subj_files/ST02_112822_cityA.csv,./stimuli/seattle.jpg,./stimuli/street_plate1.png,./stimuli/videos/hippopolis_part1.mp4,TÁNYÉR UTCA,stimuli/objects/105a.jpg,object,0,stimuli/objects/105a.jpg,stimuli/scenes/048b.jpg,stimuli/objects/105b.jpg,stimuli/scenes/048a.jpg,stimuli/objects/105a.jpg,dist2,lure,dist1,target,0,0,0,0,0,20,20,36,,,,,,,,,,,,,,,,,,158.43091863766313,159.50226599164307,159.50226599164307,159.50226599164307,159.50226599164307,None,,,,,,,,,,,,,,,,,,,,,,,,,,,,,,,ST02_112822,2022-11-29_11h09.24.884,Hippopolis_Learning,2022.2.2,59.09473192939509,
Hippopolis,stimuli/subj_files/ST02_112822_cityA.csv,./stimuli/seattle.jpg,./stimuli/street_plate1.png,./stimuli/videos/hippopolis_part1.mp4,HERNYÓ UTCA,stimuli/objects/006a.jpg,object,2,stimuli/scenes/046a.jpg,stimuli/objects/098a.jpg,stimuli/scenes/046b.jpg,stimuli/objects/098b.jpg,stimuli/scenes/046a.jpg,dist1,lure,dist2,target,0,0,0,0,0,21,21,13,,,,,,,,,,,,,,,,,,162.43535172194242,163.49983205646276,163.49983205646276,163.49983205646276,163.49983205646276,None,163.49983205646276,,,,,,,,,,,,,,,,,,,,,,,,,,,,,,ST02_112822,2022-11-29_11h09.24.884,Hippopolis_Learning,2022.2.2,59.09473192939509,
Hippopolis,stimuli/subj_files/ST02_112822_cityA.csv,./stimuli/seattle.jpg,./stimuli/street_plate1.png,./stimuli/videos/hippopolis_part1.mp4,FÓKA UTCA,stimuli/objects/041a.jpg,object,0,stimuli/objects/041a.jpg,stimuli/objects/061a.jpg,stimuli/objects/041b.jpg,stimuli/objects/061b.jpg,stimuli/objects/041a.jpg,dist1,lure,dist2,target,0,0,0,0,0,22,22,39,,,,,,,,,,,,,,,,,,166.4436643011868,167.50389317795634,167.50389317795634,167.50389317795634,167.50389317795634,None,,,,,,,,,,,,,,,,,,,,,,,,,,,,,,,ST02_112822,2022-11-29_11h09.24.884,Hippopolis_Learning,2022.2.2,59.09473192939509,
Hippopolis,stimuli/subj_files/ST02_112822_cityA.csv,./stimuli/seattle.jpg,./stimuli/street_plate1.png,./stimuli/videos/hippopolis_part1.mp4,SZŐNYEG UTCA,stimuli/scenes/062a.jpg,scene,1,stimuli/scenes/111a.jpg,stimuli/scenes/111a.jpg,stimuli/scenes/044a.jpg,stimuli/scenes/111b.jpg,stimuli/scenes/044b.jpg,target,dist1,lure,dist2,0,0,0,0,0,23,23,53,,,,,,,,,,,,,,,,,,170.46071678213775,171.53890938684344,171.53890938684344,171.53890938684344,171.53890938684344,None,,,,,,,,,,,,,,,,,,,,,,,,,,,,,,,ST02_112822,2022-11-29_11h09.24.884,Hippopolis_Learning,2022.2.2,59.09473192939509,
Hippopolis,stimuli/subj_files/ST02_112822_cityA.csv,./stimuli/seattle.jpg,./stimuli/street_plate1.png,./stimuli/videos/hippopolis_part1.mp4,MÁRVÁNY UTCA,stimuli/scenes/100a.jpg,scene,0,stimuli/scenes/100a.jpg,stimuli/objects/025a.jpg,stimuli/scenes/100a.jpg,stimuli/scenes/100b.jpg,stimuli/objects/025b.jpg,dist1,target,lure,dist2,0,0,0,0,0,24,24,24,,,,,,,,,,,,,,,,,,174.46099140122533,175.5122580062598,175.5122580062598,175.5122580062598,175.5122580062598,None,,,,,,,,,,,,,,,,,,,,,,,,,,,,,,,ST02_112822,2022-11-29_11h09.24.884,Hippopolis_Learning,2022.2.2,59.09473192939509,
Hippopolis,stimuli/subj_files/ST02_112822_cityA.csv,./stimuli/seattle.jpg,./stimuli/street_plate1.png,./stimuli/videos/hippopolis_part1.mp4,TELEFON UTCA,stimuli/objects/050a.jpg,object,1,stimuli/objects/067a.jpg,stimuli/scenes/055b.jpg,stimuli/scenes/055a.jpg,stimuli/objects/067b.jpg,stimuli/objects/067a.jpg,dist2,dist1,lure,target,0,0,0,0,0,25,25,50,,,,,,,,,,,,,,,,,,178.46761614829302,179.53120886906981,179.53120886906981,179.53120886906981,179.53120886906981,None,,,,,,,,,,,,,,,,,,,,,,,,,,,,,,,ST02_112822,2022-11-29_11h09.24.884,Hippopolis_Learning,2022.2.2,59.09473192939509,
Hippopolis,stimuli/subj_files/ST02_112822_cityA.csv,./stimuli/seattle.jpg,./stimuli/street_plate1.png,./stimuli/videos/hippopolis_part1.mp4,TOLLTARTÓ UTCA,stimuli/scenes/052a.jpg,scene,0,stimuli/scenes/052a.jpg,stimuli/scenes/052a.jpg,stimuli/objects/079b.jpg,stimuli/scenes/052b.jpg,stimuli/objects/079a.jpg,target,dist2,lure,dist1,0,0,0,0,0,26,26,43,,,,,,,,,,,,,,,,,,182.47702813521028,183.54993425309658,183.54993425309658,183.54993425309658,183.54993425309658,None,,,,,,,,,,,,,,,,,,,,,,,,,,,,,,,ST02_112822,2022-11-29_11h09.24.884,Hippopolis_Learning,2022.2.2,59.09473192939509,
Hippopolis,stimuli/subj_files/ST02_112822_cityA.csv,./stimuli/seattle.jpg,./stimuli/street_plate1.png,./stimuli/videos/hippopolis_part1.mp4,LEVÉL UTCA,stimuli/scenes/032a.jpg,scene,2,stimuli/objects/098a.jpg,stimuli/objects/098a.jpg,stimuli/objects/003b.jpg,stimuli/objects/003a.jpg,stimuli/objects/098b.jpg,target,dist2,dist1,lure,0,0,0,0,0,27,27,72,,,,,,,,,,,,,,,,,,186.4799388423562,187.52286674454808,187.52286674454808,187.52286674454808,187.52286674454808,None,,,,,,,,,,,,,,,,,,,,,,,,,,,,,,,ST02_112822,2022-11-29_11h09.24.884,Hippopolis_Learning,2022.2.2,59.09473192939509,
Hippopolis,stimuli/subj_files/ST02_112822_cityA.csv,./stimuli/seattle.jpg,./stimuli/street_plate1.png,./stimuli/videos/hippopolis_part1.mp4,LIGET UTCA,stimuli/scenes/063a.jpg,scene,2,stimuli/objects/108a.jpg,stimuli/scenes/008a.jpg,stimuli/objects/108b.jpg,stimuli/objects/108a.jpg,stimuli/scenes/008b.jpg,dist1,lure,target,dist2,0,0,0,0,0,28,28,21,,,,,,,,,,,,,,,,,,190.49816661700606,191.52515917271376,191.52515917271376,191.52515917271376,191.52515917271376,None,,,,,,,,,,,,,,,,,,,,,,,,,,,,,,,ST02_112822,2022-11-29_11h09.24.884,Hippopolis_Learning,2022.2.2,59.09473192939509,
Hippopolis,stimuli/subj_files/ST02_112822_cityA.csv,./stimuli/seattle.jpg,./stimuli/street_plate1.png,./stimuli/videos/hippopolis_part1.mp4,GYŰRŰ UTCA,stimuli/objects/019a.jpg,object,2,stimuli/scenes/074a.jpg,stimuli/scenes/074a.jpg,stimuli/objects/086b.jpg,stimuli/scenes/074b.jpg,stimuli/objects/086a.jpg,target,dist2,lure,dist1,0,0,0,0,0,29,29,78,,,,,,,,,,,,,,,,,,194.50118369050324,195.54858728311956,195.54858728311956,195.54858728311956,195.54858728311956,None,,,,,,,,,,,,,,,,,,,,,,,,,,,,,,,ST02_112822,2022-11-29_11h09.24.884,Hippopolis_Learning,2022.2.2,59.09473192939509,
Hippopolis,stimuli/subj_files/ST02_112822_cityA.csv,./stimuli/seattle.jpg,./stimuli/street_plate1.png,./stimuli/videos/hippopolis_part1.mp4,RIBIZLI UTCA,stimuli/objects/118a.jpg,object,2,stimuli/scenes/023a.jpg,stimuli/scenes/023a.jpg,stimuli/objects/008b.jpg,stimuli/scenes/023b.jpg,stimuli/objects/008a.jpg,target,dist2,lure,dist1,0,0,0,0,0,30,30,79,,,,,,,,,,,,,,,,,,198.51047469489276,199.5739772245288,199.5739772245288,199.5739772245288,199.5739772245288,None,,,,,,,,,,,,,,,,,,,,,,,,,,,,,,,ST02_112822,2022-11-29_11h09.24.884,Hippopolis_Learning,2022.2.2,59.09473192939509,
Hippopolis,stimuli/subj_files/ST02_112822_cityA.csv,./stimuli/seattle.jpg,./stimuli/street_plate1.png,./stimuli/videos/hippopolis_part1.mp4,HARCSA UTCA,stimuli/objects/047a.jpg,object,2,stimuli/scenes/073a.jpg,stimuli/scenes/023b.jpg,stimuli/scenes/023a.jpg,stimuli/scenes/073b.jpg,stimuli/scenes/073a.jpg,dist2,dist1,lure,target,0,0,0,0,0,31,31,69,,,,,,,,,,,,,,,,,,202.52697202935815,203.5783941373229,203.5783941373229,203.5783941373229,203.5783941373229,None,,,,,,,,,,,,,,,,,,,,,,,,,,,,,,,ST02_112822,2022-11-29_11h09.24.884,Hippopolis_Learning,2022.2.2,59.09473192939509,
Hippopolis,stimuli/subj_files/ST02_112822_cityA.csv,./stimuli/seattle.jpg,./stimuli/street_plate1.png,./stimuli/videos/hippopolis_part1.mp4,TÉRKÉP UTCA,stimuli/scenes/051a.jpg,scene,2,stimuli/objects/106a.jpg,stimuli/objects/106a.jpg,stimuli/objects/064a.jpg,stimuli/objects/064b.jpg,stimuli/objects/106b.jpg,target,dist1,dist2,lure,0,0,0,0,0,32,32,77,,,,,,,,,,,,,,,,,,206.54332443326712,207.60109946876764,207.60109946876764,207.60109946876764,207.60109946876764,None,,,,,,,,,,,,,,,,,,,,,,,,,,,,,,,ST02_112822,2022-11-29_11h09.24.884,Hippopolis_Learning,2022.2.2,59.09473192939509,
Hippopolis,stimuli/subj_files/ST02_112822_cityA.csv,./stimuli/seattle.jpg,./stimuli/street_plate1.png,./stimuli/videos/hippopolis_part1.mp4,TÜKÖR UTCA,stimuli/scenes/080a.jpg,scene,0,stimuli/scenes/080a.jpg,stimuli/scenes/065a.jpg,stimuli/scenes/065b.jpg,stimuli/scenes/080b.jpg,stimuli/scenes/080a.jpg,dist1,dist2,lure,target,0,0,0,0,0,33,33,5,,,,,,,,,,,,,,,,,,210.5553510505706,211.60707296989858,211.60707296989858,211.60707296989858,211.60707296989858,None,,,,,,,,,,,,,,,,,,,,,,,,,,,,,,,ST02_112822,2022-11-29_11h09.24.884,Hippopolis_Learning,2022.2.2,59.09473192939509,
Hippopolis,stimuli/subj_files/ST02_112822_cityA.csv,./stimuli/seattle.jpg,./stimuli/street_plate1.png,./stimuli/videos/hippopolis_part1.mp4,ZÁSZLÓ UTCA,stimuli/scenes/010a.jpg,scene,1,stimuli/scenes/084a.jpg,stimuli/objects/005a.jpg,stimuli/objects/005b.jpg,stimuli/scenes/084b.jpg,stimuli/scenes/084a.jpg,dist1,dist2,lure,target,0,0,0,0,0,34,34,3,,,,,,,,,,,,,,,,,,214.55840451270342,215.615398298949,215.615398298949,215.615398298949,215.615398298949,None,,,,,,,,,,,,,,,,,,,,,,,,,,,,,,,ST02_112822,2022-11-29_11h09.24.884,Hippopolis_Learning,2022.2.2,59.09473192939509,
Hippopolis,stimuli/subj_files/ST02_112822_cityA.csv,./stimuli/seattle.jpg,./stimuli/street_plate1.png,./stimuli/videos/hippopolis_part1.mp4,KRÉTA UTCA,stimuli/objects/079a.jpg,object,0,stimuli/objects/079a.jpg,stimuli/objects/105a.jpg,stimuli/objects/079b.jpg,stimuli/objects/079a.jpg,stimuli/objects/105b.jpg,dist1,lure,target,dist2,0,0,0,0,0,35,35,65,,,,,,,,,,,,,,,,,,218.56758355535567,219.62419573776424,219.62419573776424,219.62419573776424,219.62419573776424,None,,,,,,,,,,,,,,,,,,,,,,,,,,,,,,,ST02_112822,2022-11-29_11h09.24.884,Hippopolis_Learning,2022.2.2,59.09473192939509,
Hippopolis,stimuli/subj_files/ST02_112822_cityA.csv,./stimuli/seattle.jpg,./stimuli/street_plate1.png,./stimuli/videos/hippopolis_part1.mp4,HARMONIKA UTCA,stimuli/objects/092a.jpg,object,1,stimuli/objects/057a.jpg,stimuli/objects/063a.jpg,stimuli/objects/057a.jpg,stimuli/objects/063b.jpg,stimuli/objects/057b.jpg,dist1,target,dist2,lure,0,0,0,0,0,36,36,58,,,,,,,,,,,,,,,,,,222.5805571861565,223.62870159745216,223.62870159745216,223.62870159745216,223.62870159745216,None,,,,,,,,,,,,,,,,,,,,,,,,,,,,,,,ST02_112822,2022-11-29_11h09.24.884,Hippopolis_Learning,2022.2.2,59.09473192939509,
Hippopolis,stimuli/subj_files/ST02_112822_cityA.csv,./stimuli/seattle.jpg,./stimuli/street_plate1.png,./stimuli/videos/hippopolis_part1.mp4,KOKTÉL UTCA,stimuli/scenes/001a.jpg,scene,2,stimuli/objects/077a.jpg,stimuli/scenes/015a.jpg,stimuli/scenes/015b.jpg,stimuli/objects/077a.jpg,stimuli/objects/077b.jpg,dist1,dist2,target,lure,0,0,0,0,0,37,37,23,,,,,,,,,,,,,,,,,,226.59318902157247,227.63545230217278,227.63545230217278,227.63545230217278,227.63545230217278,None,,,,,,,,,,,,,,,,,,,,,,,,,,,,,,,ST02_112822,2022-11-29_11h09.24.884,Hippopolis_Learning,2022.2.2,59.09473192939509,
Hippopolis,stimuli/subj_files/ST02_112822_cityA.csv,./stimuli/seattle.jpg,./stimuli/street_plate1.png,./stimuli/videos/hippopolis_part1.mp4,MENTA UTCA,stimuli/objects/058a.jpg,object,2,stimuli/scenes/090a.jpg,stimuli/scenes/090a.jpg,stimuli/scenes/090b.jpg,stimuli/scenes/046a.jpg,stimuli/scenes/046b.jpg,target,lure,dist1,dist2,0,0,0,0,0,38,38,51,,,,,,,,,,,,,,,,,,230.6090886015445,231.65167470648885,231.65167470648885,231.65167470648885,231.65167470648885,None,,,,,,,,,,,,,,,,,,,,,,,,,,,,,,,ST02_112822,2022-11-29_11h09.24.884,Hippopolis_Learning,2022.2.2,59.09473192939509,
Hippopolis,stimuli/subj_files/ST02_112822_cityA.csv,./stimuli/seattle.jpg,./stimuli/street_plate1.png,./stimuli/videos/hippopolis_part1.mp4,ZSEMLE UTCA,stimuli/scenes/024a.jpg,scene,2,stimuli/objects/116a.jpg,stimuli/scenes/117a.jpg,stimuli/objects/116b.jpg,stimuli/objects/116a.jpg,stimuli/scenes/117b.jpg,dist1,lure,target,dist2,0,0,0,0,0,39,39,42,,,,,,,,,,,,,,,,,,234.61337613500655,235.65449957735837,235.65449957735837,235.65449957735837,235.65449957735837,None,,,,,,,,,,,,,,,,,,,,,,,,,,,,,,,ST02_112822,2022-11-29_11h09.24.884,Hippopolis_Learning,2022.2.2,59.09473192939509,
Hippopolis,stimuli/subj_files/ST02_112822_cityA.csv,./stimuli/seattle.jpg,./stimuli/street_plate1.png,./stimuli/videos/hippopolis_part1.mp4,BONBON UTCA,stimuli/objects/020a.jpg,object,0,stimuli/objects/020a.jpg,stimuli/scenes/094a.jpg,stimuli/scenes/094b.jpg,stimuli/objects/020b.jpg,stimuli/objects/020a.jpg,dist1,dist2,lure,target,0,0,0,0,0,40,40,59,,,,,,,,,,,,,,,,,,238.62691237777472,239.6815891675651,239.6815891675651,239.6815891675651,239.6815891675651,None,,,,,,,,,,,,,,,,,,,,,,,,,,,,,,,ST02_112822,2022-11-29_11h09.24.884,Hippopolis_Learning,2022.2.2,59.09473192939509,
Hippopolis,stimuli/subj_files/ST02_112822_cityA.csv,./stimuli/seattle.jpg,./stimuli/street_plate1.png,./stimuli/videos/hippopolis_part1.mp4,BANÁN UTCA,stimuli/scenes/048a.jpg,scene,0,stimuli/scenes/048a.jpg,stimuli/objects/041a.jpg,stimuli/scenes/048b.jpg,stimuli/scenes/048a.jpg,stimuli/objects/041b.jpg,dist1,lure,target,dist2,0,0,0,0,0,41,41,25,,,,,,,,,,,,,,,,,,242.64028161019087,243.6856310069561,243.6856310069561,243.6856310069561,243.6856310069561,None,,,,,,,,,,,,,,,,,,,,,,,,,,,,,,,ST02_112822,2022-11-29_11h09.24.884,Hippopolis_Learning,2022.2.2,59.09473192939509,
Hippopolis,stimuli/subj_files/ST02_112822_cityA.csv,./stimuli/seattle.jpg,./stimuli/street_plate1.png,./stimuli/videos/hippopolis_part1.mp4,KOCKA UTCA,stimuli/scenes/053a.jpg,scene,1,stimuli/scenes/107a.jpg,stimuli/scenes/105b.jpg,stimuli/scenes/107b.jpg,stimuli/scenes/107a.jpg,stimuli/scenes/105a.jpg,dist2,lure,target,dist1,0,0,0,0,0,42,42,55,,,,,,,,,,,,,,,,,,246.65114724077284,247.66689131595194,247.66689131595194,247.66689131595194,247.66689131595194,None,247.66689131595194,,,,,,,,,,,,,,,,,,,,,,,,,,,,,,ST02_112822,2022-11-29_11h09.24.884,Hippopolis_Learning,2022.2.2,59.09473192939509,
Hippopolis,stimuli/subj_files/ST02_112822_cityA.csv,./stimuli/seattle.jpg,./stimuli/street_plate1.png,./stimuli/videos/hippopolis_part1.mp4,SAJTÓ UTCA,stimuli/objects/094a.jpg,object,1,stimuli/objects/063a.jpg,stimuli/objects/063b.jpg,stimuli/objects/082a.jpg,stimuli/objects/063a.jpg,stimuli/objects/082b.jpg,lure,dist1,target,dist2,0,0,0,0,0,43,43,44,,,,,,,,,,,,,,,,,,250.65909749642015,251.71440562978387,251.71440562978387,251.71440562978387,251.71440562978387,None,,,,,,,,,,,,,,,,,,,,,,,,,,,,,,,ST02_112822,2022-11-29_11h09.24.884,Hippopolis_Learning,2022.2.2,59.09473192939509,
Hippopolis,stimuli/subj_files/ST02_112822_cityA.csv,./stimuli/seattle.jpg,./stimuli/street_plate1.png,./stimuli/videos/hippopolis_part1.mp4,LÉTRA UTCA,stimuli/objects/048a.jpg,object,1,stimuli/objects/005a.jpg,stimuli/scenes/039b.jpg,stimuli/objects/005b.jpg,stimuli/scenes/039a.jpg,stimuli/objects/005a.jpg,dist2,lure,dist1,target,0,0,0,0,0,44,44,7,,,,,,,,,,,,,,,,,,254.66332500614226,255.716611597687,255.716611597687,255.716611597687,255.716611597687,space,,258.6667137313634,258.6667137313634,4.369508979842067,,,,,,,,,,,,,,,,,,,,,,,,,,,ST02_112822,2022-11-29_11h09.24.884,Hippopolis_Learning,2022.2.2,59.09473192939509,
Hippopolis,stimuli/subj_files/ST02_112822_cityA.csv,./stimuli/seattle.jpg,./stimuli/street_plate1.png,./stimuli/videos/hippopolis_part1.mp4,KORONA UTCA,stimuli/scenes/115a.jpg,scene,1,stimuli/scenes/044a.jpg,stimuli/scenes/070b.jpg,stimuli/scenes/044b.jpg,stimuli/scenes/070a.jpg,stimuli/scenes/044a.jpg,dist2,lure,dist1,target,0,0,0,0,0,45,45,12,,,,,,,,,,,,,,,,,,263.055922370404,264.11479556933045,264.11479556933045,264.11479556933045,264.11479556933045,None,,,,,,,,,,,,,,,,,,,,,,,,,,,,,,,ST02_112822,2022-11-29_11h09.24.884,Hippopolis_Learning,2022.2.2,59.09473192939509,
Hippopolis,stimuli/subj_files/ST02_112822_cityA.csv,./stimuli/seattle.jpg,./stimuli/street_plate1.png,./stimuli/videos/hippopolis_part1.mp4,OROSZLÁN UTCA,stimuli/objects/002a.jpg,object,1,stimuli/objects/103a.jpg,stimuli/objects/103a.jpg,stimuli/scenes/071b.jpg,stimuli/scenes/071a.jpg,stimuli/objects/103b.jpg,target,dist2,dist1,lure,0,0,0,0,0,46,46,38,,,,,,,,,,,,,,,,,,267.07421016693115,268.1361974738538,268.1361974738538,268.1361974738538,268.1361974738538,None,,,,,,,,,,,,,,,,,,,,,,,,,,,,,,,ST02_112822,2022-11-29_11h09.24.884,Hippopolis_Learning,2022.2.2,59.09473192939509,
Hippopolis,stimuli/subj_files/ST02_112822_cityA.csv,./stimuli/seattle.jpg,./stimuli/street_plate1.png,./stimuli/videos/hippopolis_part1.mp4,TOJÁS UTCA,stimuli/scenes/047a.jpg,scene,1,stimuli/scenes/039a.jpg,stimuli/scenes/039b.jpg,stimuli/objects/028a.jpg,stimuli/objects/028b.jpg,stimuli/scenes/039a.jpg,lure,dist1,dist2,target,0,0,0,0,0,47,47,9,,,,,,,,,,,,,,,,,,271.07389511726797,272.112641537562,272.112641537562,272.112641537562,272.112641537562,None,,,,,,,,,,,,,,,,,,,,,,,,,,,,,,,ST02_112822,2022-11-29_11h09.24.884,Hippopolis_Learning,2022.2.2,59.09473192939509,
Hippopolis,stimuli/subj_files/ST02_112822_cityA.csv,./stimuli/seattle.jpg,./stimuli/street_plate1.png,./stimuli/videos/hippopolis_part1.mp4,KOSÁR UTCA,stimuli/scenes/088a.jpg,scene,2,stimuli/objects/003a.jpg,stimuli/objects/003b.jpg,stimuli/scenes/096b.jpg,stimuli/scenes/096a.jpg,stimuli/objects/003a.jpg,lure,dist2,dist1,target,0,0,0,0,0,48,48,68,,,,,,,,,,,,,,,,,,275.07559352368116,276.13151651620865,276.13151651620865,276.13151651620865,276.13151651620865,None,,,,,,,,,,,,,,,,,,,,,,,,,,,,,,,ST02_112822,2022-11-29_11h09.24.884,Hippopolis_Learning,2022.2.2,59.09473192939509,
Hippopolis,stimuli/subj_files/ST02_112822_cityA.csv,./stimuli/seattle.jpg,./stimuli/street_plate1.png,./stimuli/videos/hippopolis_part1.mp4,AJÁNDÉK UTCA,stimuli/scenes/042a.jpg,scene,2,stimuli/objects/022a.jpg,stimuli/objects/022b.jpg,stimuli/objects/011b.jpg,stimuli/objects/022a.jpg,stimuli/objects/011a.jpg,lure,dist2,target,dist1,0,0,0,0,0,49,49,45,,,,,,,,,,,,,,,,,,279.0776334144175,280.12389468215406,280.12389468215406,280.12389468215406,280.12389468215406,None,,,,,,,,,,,,,,,,,,,,,,,,,,,,,,,ST02_112822,2022-11-29_11h09.24.884,Hippopolis_Learning,2022.2.2,59.09473192939509,
Hippopolis,stimuli/subj_files/ST02_112822_cityA.csv,./stimuli/seattle.jpg,./stimuli/street_plate1.png,./stimuli/videos/hippopolis_part1.mp4,ÜVEG UTCA,stimuli/scenes/006a.jpg,scene,2,stimuli/objects/042a.jpg,stimuli/objects/042b.jpg,stimuli/objects/116a.jpg,stimuli/objects/116b.jpg,stimuli/objects/042a.jpg,lure,dist1,dist2,target,0,0,0,0,0,50,50,52,,,,,,,,,,,,,,,,,,283.08431258797646,284.1256646197289,284.1256646197289,284.1256646197289,284.1256646197289,None,,,,,,,,,,,,,,,,,,,,,,,,,,,,,,,ST02_112822,2022-11-29_11h09.24.884,Hippopolis_Learning,2022.2.2,59.09473192939509,
Hippopolis,stimuli/subj_files/ST02_112822_cityA.csv,./stimuli/seattle.jpg,./stimuli/street_plate1.png,./stimuli/videos/hippopolis_part1.mp4,FÉSZEK UTCA,stimuli/scenes/014a.jpg,scene,0,stimuli/scenes/014a.jpg,stimuli/scenes/014b.jpg,stimuli/objects/023b.jpg,stimuli/objects/023a.jpg,stimuli/scenes/014a.jpg,lure,dist2,dist1,target,0,0,0,0,0,51,51,17,,,,,,,,,,,,,,,,,,287.0940340254456,288.11915618926287,288.11915618926287,288.11915618926287,288.11915618926287,None,,,,,,,,,,,,,,,,,,,,,,,,,,,,,,,ST02_112822,2022-11-29_11h09.24.884,Hippopolis_Learning,2022.2.2,59.09473192939509,
Hippopolis,stimuli/subj_files/ST02_112822_cityA.csv,./stimuli/seattle.jpg,./stimuli/street_plate1.png,./stimuli/videos/hippopolis_part1.mp4,PETÁRDA UTCA,stimuli/objects/117a.jpg,object,0,stimuli/objects/117a.jpg,stimuli/objects/117a.jpg,stimuli/objects/055b.jpg,stimuli/objects/055a.jpg,stimuli/objects/117b.jpg,target,dist2,dist1,lure,0,0,0,0,0,52,52,74,,,,,,,,,,,,,,,,,,291.0969780124724,292.15302820689976,292.15302820689976,292.15302820689976,292.15302820689976,None,,,,,,,,,,,,,,,,,,,,,,,,,,,,,,,ST02_112822,2022-11-29_11h09.24.884,Hippopolis_Learning,2022.2.2,59.09473192939509,
Hippopolis,stimuli/subj_files/ST02_112822_cityA.csv,./stimuli/seattle.jpg,./stimuli/street_plate1.png,./stimuli/videos/hippopolis_part1.mp4,KIRAKÓ UTCA,stimuli/objects/104a.jpg,object,2,stimuli/scenes/059a.jpg,stimuli/objects/108b.jpg,stimuli/scenes/059b.jpg,stimuli/objects/108a.jpg,stimuli/scenes/059a.jpg,dist2,lure,dist1,target,0,0,0,0,0,53,53,4,,,,,,,,,,,,,,,,,,295.1088768057525,296.1670592594892,296.1670592594892,296.1670592594892,296.1670592594892,None,,,,,,,,,,,,,,,,,,,,,,,,,,,,,,,ST02_112822,2022-11-29_11h09.24.884,Hippopolis_Learning,2022.2.2,59.09473192939509,
Hippopolis,stimuli/subj_files/ST02_112822_cityA.csv,./stimuli/seattle.jpg,./stimuli/street_plate1.png,./stimuli/videos/hippopolis_part1.mp4,CITROM UTCA,stimuli/scenes/103a.jpg,scene,1,stimuli/scenes/105a.jpg,stimuli/objects/120a.jpg,stimuli/scenes/105a.jpg,stimuli/scenes/105b.jpg,stimuli/objects/120b.jpg,dist1,target,lure,dist2,0,0,0,0,0,54,54,40,,,,,,,,,,,,,,,,,,299.1249138507992,300.1534903626889,300.1534903626889,300.1534903626889,300.1534903626889,None,,,,,,,,,,,,,,,,,,,,,,,,,,,,,,,ST02_112822,2022-11-29_11h09.24.884,Hippopolis_Learning,2022.2.2,59.09473192939509,
Hippopolis,stimuli/subj_files/ST02_112822_cityA.csv,./stimuli/seattle.jpg,./stimuli/street_plate1.png,./stimuli/videos/hippopolis_part1.mp4,TERASZ UTCA,stimuli/scenes/021a.jpg,scene,0,stimuli/scenes/021a.jpg,stimuli/scenes/021a.jpg,stimuli/scenes/025b.jpg,stimuli/scenes/021b.jpg,stimuli/scenes/025a.jpg,target,dist2,lure,dist1,0,0,0,0,0,55,55,60,,,,,,,,,,,,,,,,,,303.1254861019552,304.1554832905531,304.1554832905531,304.1554832905531,304.1554832905531,None,,,,,,,,,,,,,,,,,,,,,,,,,,,,,,,ST02_112822,2022-11-29_11h09.24.884,Hippopolis_Learning,2022.2.2,59.09473192939509,
Hippopolis,stimuli/subj_files/ST02_112822_cityA.csv,./stimuli/seattle.jpg,./stimuli/street_plate1.png,./stimuli/videos/hippopolis_part1.mp4,BÚJÓCSKA UTCA,stimuli/scenes/027a.jpg,scene,1,stimuli/scenes/003a.jpg,stimuli/scenes/003a.jpg,stimuli/objects/038a.jpg,stimuli/scenes/003b.jpg,stimuli/objects/038b.jpg,target,dist1,lure,dist2,0,0,0,0,0,56,56,33,,,,,,,,,,,,,,,,,,307.12762364931405,308.1652883887291,308.1652883887291,308.1652883887291,308.1652883887291,None,,,,,,,,,,,,,,,,,,,,,,,,,,,,,,,ST02_112822,2022-11-29_11h09.24.884,Hippopolis_Learning,2022.2.2,59.09473192939509,
Hippopolis,stimuli/subj_files/ST02_112822_cityA.csv,./stimuli/seattle.jpg,./stimuli/street_plate1.png,./stimuli/videos/hippopolis_part1.mp4,PALACK UTCA,stimuli/objects/014a.jpg,object,2,stimuli/scenes/008a.jpg,stimuli/scenes/059a.jpg,stimuli/scenes/008b.jpg,stimuli/scenes/059b.jpg,stimuli/scenes/008a.jpg,dist1,lure,dist2,target,0,0,0,0,0,57,57,2,,,,,,,,,,,,,,,,,,311.14162111468613,312.21770540624857,312.21770540624857,312.21770540624857,312.21770540624857,None,,,,,,,,,,,,,,,,,,,,,,,,,,,,,,,ST02_112822,2022-11-29_11h09.24.884,Hippopolis_Learning,2022.2.2,59.09473192939509,
Hippopolis,stimuli/subj_files/ST02_112822_cityA.csv,./stimuli/seattle.jpg,./stimuli/street_plate1.png,./stimuli/videos/hippopolis_part1.mp4,TERÍTŐ UTCA,stimuli/scenes/038a.jpg,scene,2,stimuli/objects/040a.jpg,stimuli/objects/040a.jpg,stimuli/objects/106b.jpg,stimuli/objects/040b.jpg,stimuli/objects/106a.jpg,target,dist2,lure,dist1,0,0,0,0,0,58,58,6,,,,,,,,,,,,,,,,,,315.1564887743443,316.19519694149494,316.19519694149494,316.19519694149494,316.19519694149494,None,,,,,,,,,,,,,,,,,,,,,,,,,,,,,,,ST02_112822,2022-11-29_11h09.24.884,Hippopolis_Learning,2022.2.2,59.09473192939509,
Hippopolis,stimuli/subj_files/ST02_112822_cityA.csv,./stimuli/seattle.jpg,./stimuli/street_plate1.png,./stimuli/videos/hippopolis_part1.mp4,PAPRIKA UTCA,stimuli/scenes/025a.jpg,scene,0,stimuli/scenes/025a.jpg,stimuli/scenes/080b.jpg,stimuli/scenes/080a.jpg,stimuli/scenes/025a.jpg,stimuli/scenes/025b.jpg,dist2,dist1,target,lure,0,0,0,0,0,59,59,71,,,,,,,,,,,,,,,,,,319.1589584760368,320.1882767379284,320.1882767379284,320.1882767379284,320.1882767379284,None,,,,,,,,,,,,,,,,,,,,,,,,,,,,,,,ST02_112822,2022-11-29_11h09.24.884,Hippopolis_Learning,2022.2.2,59.09473192939509,
Hippopolis,stimuli/subj_files/ST02_112822_cityA.csv,./stimuli/seattle.jpg,./stimuli/street_plate1.png,./stimuli/videos/hippopolis_part1.mp4,MUNKA UTCA,stimuli/objects/053a.jpg,object,2,stimuli/scenes/068a.jpg,stimuli/scenes/073b.jpg,stimuli/scenes/068a.jpg,stimuli/scenes/068b.jpg,stimuli/scenes/073a.jpg,dist2,target,lure,dist1,0,0,0,0,0,60,60,70,,,,,,,,,,,,,,,,,,323.16163779608905,324.2121794447303,324.2121794447303,324.2121794447303,324.2121794447303,None,,,,,,,,,,,,,,,,,,,,,,,,,,,,,,,ST02_112822,2022-11-29_11h09.24.884,Hippopolis_Learning,2022.2.2,59.09473192939509,
Hippopolis,stimuli/subj_files/ST02_112822_cityA.csv,./stimuli/seattle.jpg,./stimuli/street_plate1.png,./stimuli/videos/hippopolis_part1.mp4,KÖTÉL UTCA,stimuli/scenes/118a.jpg,scene,0,stimuli/scenes/118a.jpg,stimuli/scenes/118b.jpg,stimuli/scenes/037a.jpg,stimuli/scenes/037b.jpg,stimuli/scenes/118a.jpg,lure,dist1,dist2,target,0,0,0,0,0,61,61,32,,,,,,,,,,,,,,,,,,327.1610910464078,328.2161541059613,328.2161541059613,328.2161541059613,328.2161541059613,None,,,,,,,,,,,,,,,,,,,,,,,,,,,,,,,ST02_112822,2022-11-29_11h09.24.884,Hippopolis_Learning,2022.2.2,59.09473192939509,
Hippopolis,stimuli/subj_files/ST02_112822_cityA.csv,./stimuli/seattle.jpg,./stimuli/street_plate1.png,./stimuli/videos/hippopolis_part1.mp4,OLDAL UTCA,stimuli/scenes/087a.jpg,scene,2,stimuli/objects/086a.jpg,stimuli/objects/086b.jpg,stimuli/objects/046a.jpg,stimuli/objects/046b.jpg,stimuli/objects/086a.jpg,lure,dist1,dist2,target,0,0,0,0,0,62,62,61,,,,,,,,,,,,,,,,,,331.1664677262306,332.21657956391573,332.21657956391573,332.21657956391573,332.21657956391573,None,,,,,,,,,,,,,,,,,,,,,,,,,,,,,,,ST02_112822,2022-11-29_11h09.24.884,Hippopolis_Learning,2022.2.2,59.09473192939509,
Hippopolis,stimuli/subj_files/ST02_112822_cityA.csv,./stimuli/seattle.jpg,./stimuli/street_plate1.png,./stimuli/videos/hippopolis_part1.mp4,LAKAT UTCA,stimuli/objects/087a.jpg,object,0,stimuli/objects/087a.jpg,stimuli/objects/087b.jpg,stimuli/objects/087a.jpg,stimuli/objects/117a.jpg,stimuli/objects/117b.jpg,lure,target,dist1,dist2,0,0,0,0,0,63,63,49,,,,,,,,,,,,,,,,,,335.18282199651003,336.26243838854134,336.26243838854134,336.26243838854134,336.26243838854134,None,,,,,,,,,,,,,,,,,,,,,,,,,,,,,,,ST02_112822,2022-11-29_11h09.24.884,Hippopolis_Learning,2022.2.2,59.09473192939509,
Hippopolis,stimuli/subj_files/ST02_112822_cityA.csv,./stimuli/seattle.jpg,./stimuli/street_plate1.png,./stimuli/videos/hippopolis_part1.mp4,FÜZET UTCA,stimuli/objects/071a.jpg,object,2,stimuli/scenes/009a.jpg,stimuli/scenes/009b.jpg,stimuli/scenes/074b.jpg,stimuli/scenes/009a.jpg,stimuli/scenes/074a.jpg,lure,dist2,target,dist1,0,0,0,0,0,64,64,64,,,,,,,,,,,,,,,,,,339.1994238290936,340.2375914659351,340.2375914659351,340.2375914659351,340.2375914659351,None,,,,,,,,,,,,,,,,,,,,,,,,,,,,,,,ST02_112822,2022-11-29_11h09.24.884,Hippopolis_Learning,2022.2.2,59.09473192939509,
Hippopolis,stimuli/subj_files/ST02_112822_cityA.csv,./stimuli/seattle.jpg,./stimuli/street_plate1.png,./stimuli/videos/hippopolis_part1.mp4,MOTOR UTCA,stimuli/objects/024a.jpg,object,2,stimuli/scenes/004a.jpg,stimuli/scenes/004b.jpg,stimuli/scenes/004a.jpg,stimuli/objects/077b.jpg,stimuli/objects/077a.jpg,lure,target,dist2,dist1,0,0,0,0,0,65,65,48,,,,,,,,,,,,,,,,,,343.20319726876915,344.2681671269238,344.2681671269238,344.2681671269238,344.2681671269238,None,,,,,,,,,,,,,,,,,,,,,,,,,,,,,,,ST02_112822,2022-11-29_11h09.24.884,Hippopolis_Learning,2022.2.2,59.09473192939509,
Hippopolis,stimuli/subj_files/ST02_112822_cityA.csv,./stimuli/seattle.jpg,./stimuli/street_plate1.png,./stimuli/videos/hippopolis_part1.mp4,KÓKUSZ UTCA,stimuli/scenes/113a.jpg,scene,2,stimuli/objects/046a.jpg,stimuli/objects/022a.jpg,stimuli/objects/046a.jpg,stimuli/objects/046b.jpg,stimuli/objects/022b.jpg,dist1,target,lure,dist2,0,0,0,0,0,66,66,31,,,,,,,,,,,,,,,,,,347.20642644912004,348.23416884057224,348.23416884057224,348.23416884057224,348.23416884057224,None,,,,,,,,,,,,,,,,,,,,,,,,,,,,,,,ST02_112822,2022-11-29_11h09.24.884,Hippopolis_Learning,2022.2.2,59.09473192939509,
Hippopolis,stimuli/subj_files/ST02_112822_cityA.csv,./stimuli/seattle.jpg,./stimuli/street_plate1.png,./stimuli/videos/hippopolis_part1.mp4,KALAPÁCS UTCA,stimuli/objects/091a.jpg,object,1,stimuli/objects/070a.jpg,stimuli/scenes/077a.jpg,stimuli/objects/070b.jpg,stimuli/objects/070a.jpg,stimuli/scenes/077b.jpg,dist1,lure,target,dist2,0,0,0,0,0,67,67,63,,,,,,,,,,,,,,,,,,351.2117829117924,352.23256809078157,352.23256809078157,352.23256809078157,352.23256809078157,None,352.23256809078157,,,,,,,,,,,,,,,,,,,,,,,,,,,,,,ST02_112822,2022-11-29_11h09.24.884,Hippopolis_Learning,2022.2.2,59.09473192939509,
Hippopolis,stimuli/subj_files/ST02_112822_cityA.csv,./stimuli/seattle.jpg,./stimuli/street_plate1.png,./stimuli/videos/hippopolis_part1.mp4,FEJSZE UTCA,stimuli/scenes/106a.jpg,scene,2,stimuli/objects/008a.jpg,stimuli/scenes/009b.jpg,stimuli/objects/008b.jpg,stimuli/scenes/009a.jpg,stimuli/objects/008a.jpg,dist2,lure,dist1,target,0,0,0,0,0,68,68,27,,,,,,,,,,,,,,,,,,355.2275944761932,356.26433988288045,356.26433988288045,356.26433988288045,356.26433988288045,None,,,,,,,,,,,,,,,,,,,,,,,,,,,,,,,ST02_112822,2022-11-29_11h09.24.884,Hippopolis_Learning,2022.2.2,59.09473192939509,
Hippopolis,stimuli/subj_files/ST02_112822_cityA.csv,./stimuli/seattle.jpg,./stimuli/street_plate1.png,./stimuli/videos/hippopolis_part1.mp4,HAJÓ UTCA,stimuli/objects/021a.jpg,object,2,stimuli/scenes/015a.jpg,stimuli/scenes/015b.jpg,stimuli/scenes/090b.jpg,stimuli/scenes/015a.jpg,stimuli/scenes/090a.jpg,lure,dist2,target,dist1,0,0,0,0,0,69,69,57,,,,,,,,,,,,,,,,,,359.2376334518194,360.2783261500299,360.2783261500299,360.2783261500299,360.2783261500299,None,,,,,,,,,,,,,,,,,,,,,,,,,,,,,,,ST02_112822,2022-11-29_11h09.24.884,Hippopolis_Learning,2022.2.2,59.09473192939509,
Hippopolis,stimuli/subj_files/ST02_112822_cityA.csv,./stimuli/seattle.jpg,./stimuli/street_plate1.png,./stimuli/videos/hippopolis_part1.mp4,PÁLMAFA UTCA,stimuli/objects/039a.jpg,object,1,stimuli/objects/082a.jpg,stimuli/objects/082a.jpg,stimuli/objects/082b.jpg,stimuli/objects/075b.jpg,stimuli/objects/075a.jpg,target,lure,dist2,dist1,0,0,0,0,0,70,70,11,,,,,,,,,,,,,,,,,,363.24141062423587,364.2775598317385,364.2775598317385,364.2775598317385,364.2775598317385,None,,,,,,,,,,,,,,,,,,,,,,,,,,,,,,,ST02_112822,2022-11-29_11h09.24.884,Hippopolis_Learning,2022.2.2,59.09473192939509,
Hippopolis,stimuli/subj_files/ST02_112822_cityA.csv,./stimuli/seattle.jpg,./stimuli/street_plate1.png,./stimuli/videos/hippopolis_part1.mp4,FIÓK UTCA,stimuli/scenes/110a.jpg,scene,1,stimuli/scenes/078a.jpg,stimuli/objects/070b.jpg,stimuli/scenes/078b.jpg,stimuli/scenes/078a.jpg,stimuli/objects/070a.jpg,dist2,lure,target,dist1,0,0,0,0,0,71,71,47,,,,,,,,,,,,,,,,,,367.24114440381527,368.2780142109841,368.2780142109841,368.2780142109841,368.2780142109841,None,,,,,,,,,,,,,,,,,,,,,,,,,,,,,,,ST02_112822,2022-11-29_11h09.24.884,Hippopolis_Learning,2022.2.2,59.09473192939509,
Hippopolis,stimuli/subj_files/ST02_112822_cityA.csv,./stimuli/seattle.jpg,./stimuli/street_plate1.png,./stimuli/videos/hippopolis_part1.mp4,KATONA UTCA,stimuli/scenes/028a.jpg,scene,1,stimuli/scenes/091a.jpg,stimuli/scenes/003b.jpg,stimuli/scenes/091a.jpg,stimuli/scenes/091b.jpg,stimuli/scenes/003a.jpg,dist2,target,lure,dist1,0,0,0,0,0,72,72,73,,,,,,,,,,,,,,,,,,371.25802800804377,372.2890219707042,372.2890219707042,372.2890219707042,372.2890219707042,None,,,,,,,,,,,,,,,,,,,,,,,,,,,,,,,ST02_112822,2022-11-29_11h09.24.884,Hippopolis_Learning,2022.2.2,59.09473192939509,
Hippopolis,stimuli/subj_files/ST02_112822_cityA.csv,./stimuli/seattle.jpg,./stimuli/street_plate1.png,./stimuli/videos/hippopolis_part1.mp4,ÁLOM UTCA,stimuli/scenes/018a.jpg,scene,2,stimuli/objects/011a.jpg,stimuli/objects/040a.jpg,stimuli/objects/040b.jpg,stimuli/objects/011b.jpg,stimuli/objects/011a.jpg,dist1,dist2,lure,target,0,0,0,0,0,73,73,54,,,,,,,,,,,,,,,,,,375.26969043537974,376.3184789419174,376.3184789419174,376.3184789419174,376.3184789419174,None,,,,,,,,,,,,,,,,,,,,,,,,,,,,,,,ST02_112822,2022-11-29_11h09.24.884,Hippopolis_Learning,2022.2.2,59.09473192939509,
Hippopolis,stimuli/subj_files/ST02_112822_cityA.csv,./stimuli/seattle.jpg,./stimuli/street_plate1.png,./stimuli/videos/hippopolis_part1.mp4,KUTYA UTCA,stimuli/objects/007a.jpg,object,2,stimuli/scenes/096a.jpg,stimuli/scenes/119a.jpg,stimuli/scenes/096a.jpg,stimuli/scenes/119b.jpg,stimuli/scenes/096b.jpg,dist1,target,dist2,lure,0,0,0,0,0,74,74,28,,,,,,,,,,,,,,,,,,379.27509479410946,380.33352667465806,380.33352667465806,380.33352667465806,380.33352667465806,None,,,,,,,,,,,,,,,,,,,,,,,,,,,,,,,ST02_112822,2022-11-29_11h09.24.884,Hippopolis_Learning,2022.2.2,59.09473192939509,
Hippopolis,stimuli/subj_files/ST02_112822_cityA.csv,./stimuli/seattle.jpg,./stimuli/street_plate1.png,./stimuli/videos/hippopolis_part1.mp4,PAPUCS UTCA,stimuli/objects/099a.jpg,object,1,stimuli/objects/115a.jpg,stimuli/objects/115b.jpg,stimuli/objects/103b.jpg,stimuli/objects/103a.jpg,stimuli/objects/115a.jpg,lure,dist2,dist1,target,0,0,0,0,0,75,75,30,,,,,,,,,,,,,,,,,,383.28226286917925,384.3301985953003,384.3301985953003,384.3301985953003,384.3301985953003,None,,,,,,,,,,,,,,,,,,,,,,,,,,,,,,,ST02_112822,2022-11-29_11h09.24.884,Hippopolis_Learning,2022.2.2,59.09473192939509,
Hippopolis,stimuli/subj_files/ST02_112822_cityA.csv,./stimuli/seattle.jpg,./stimuli/street_plate1.png,./stimuli/videos/hippopolis_part1.mp4,BAGOLY UTCA,stimuli/objects/013a.jpg,object,1,stimuli/objects/120a.jpg,stimuli/objects/068b.jpg,stimuli/objects/120a.jpg,stimuli/objects/068a.jpg,stimuli/objects/120b.jpg,dist2,target,dist1,lure,0,0,0,0,0,76,76,26,,,,,,,,,,,,,,,,,,387.2925099078566,388.33338236808777,388.33338236808777,388.33338236808777,388.33338236808777,None,,,,,,,,,,,,,,,,,,,,,,,,,,,,,,,ST02_112822,2022-11-29_11h09.24.884,Hippopolis_Learning,2022.2.2,59.09473192939509,
Hippopolis,stimuli/subj_files/ST02_112822_cityA.csv,./stimuli/seattle.jpg,./stimuli/street_plate1.png,./stimuli/videos/hippopolis_part1.mp4,SZAXOFON UTCA,stimuli/objects/061a.jpg,object,0,stimuli/objects/061a.jpg,stimuli/objects/061a.jpg,stimuli/objects/020b.jpg,stimuli/objects/020a.jpg,stimuli/objects/061b.jpg,target,dist2,dist1,lure,0,0,0,0,0,77,77,10,,,,,,,,,,,,,,,,,,391.3050689678639,392.3819105606526,392.3819105606526,392.3819105606526,392.3819105606526,None,,,,,,,,,,,,,,,,,,,,,,,,,,,,,,,ST02_112822,2022-11-29_11h09.24.884,Hippopolis_Learning,2022.2.2,59.09473192939509,
Hippopolis,stimuli/subj_files/ST02_112822_cityA.csv,./stimuli/seattle.jpg,./stimuli/street_plate1.png,./stimuli/videos/hippopolis_part1.mp4,LÁNDZSA UTCA,stimuli/scenes/011a.jpg,scene,2,stimuli/objects/064a.jpg,stimuli/objects/064a.jpg,stimuli/objects/064b.jpg,stimuli/objects/042b.jpg,stimuli/objects/042a.jpg,target,lure,dist2,dist1,0,0,0,0,0,78,78,15,,,,,,,,,,,,,,,,,,395.31062105484307,396.3480590712279,396.3480590712279,396.3480590712279,396.3480590712279,None,,,,,,,,,,,,,,,,,,,,,,,,,,,,,,,ST02_112822,2022-11-29_11h09.24.884,Hippopolis_Learning,2022.2.2,59.09473192939509,
Hippopolis,stimuli/subj_files/ST02_112822_cityA.csv,./stimuli/seattle.jpg,./stimuli/street_plate1.png,./stimuli/videos/hippopolis_part1.mp4,KARTON UTCA,stimuli/objects/073a.jpg,object,1,stimuli/objects/075a.jpg,stimuli/objects/057a.jpg,stimuli/objects/075b.jpg,stimuli/objects/075a.jpg,stimuli/objects/057b.jpg,dist1,lure,target,dist2,0,0,0,0,0,79,79,1,,,,,,,,,,,,,,,,,,399.31844473071396,400.3627276867628,400.3627276867628,400.3627276867628,400.3627276867628,None,,,,,,,,,,,,,,,,,,,,,,,,,,,,,,,ST02_112822,2022-11-29_11h09.24.884,Hippopolis_Learning,2022.2.2,59.09473192939509,
Hippopolis,stimuli/subj_files/ST02_112822_cityA.csv,./stimuli/seattle.jpg,./stimuli/street_plate1.png,./stimuli/videos/hippopolis_part1.mp4,KALAPÁCS UTCA,stimuli/objects/091a.jpg,object,1,stimuli/objects/070a.jpg,stimuli/scenes/077a.jpg,stimuli/objects/070b.jpg,stimuli/objects/070a.jpg,stimuli/scenes/077b.jpg,dist1,lure,target,dist2,0,0,0,0,,,,,0,0,0,63,,,,,,,,,,,,,,409.35139057040215,,,,,,,,,,403.32420519180596,403.32420519180596,space,1.9664817061275244,405.34984829090536,405.34984829090536,405.34984829090536,405.34984829090536,405.34984829090536,405.34984829090536,None,None,,,,,,,,,,,,,,,ST02_112822,2022-11-29_11h09.24.884,Hippopolis_Learning,2022.2.2,59.09473192939509,
Hippopolis,stimuli/subj_files/ST02_112822_cityA.csv,./stimuli/seattle.jpg,./stimuli/street_plate1.png,./stimuli/videos/hippopolis_part1.mp4,PÁLMAFA UTCA,stimuli/objects/039a.jpg,object,1,stimuli/objects/082a.jpg,stimuli/objects/082a.jpg,stimuli/objects/082b.jpg,stimuli/objects/075b.jpg,stimuli/objects/075a.jpg,target,lure,dist2,dist1,0,0,0,0,,,,,0,1,1,11,,,,,,,,,,,,,,414.37114943005145,,,,,,,,,,,,,,410.384134568274,410.384134568274,410.384134568274,410.384134568274,410.384134568274,410.384134568274,None,None,,,,,,,,,,,,,,,ST02_112822,2022-11-29_11h09.24.884,Hippopolis_Learning,2022.2.2,59.09473192939509,
Hippopolis,stimuli/subj_files/ST02_112822_cityA.csv,./stimuli/seattle.jpg,./stimuli/street_plate1.png,./stimuli/videos/hippopolis_part1.mp4,HERNYÓ UTCA,stimuli/objects/006a.jpg,object,2,stimuli/scenes/046a.jpg,stimuli/objects/098a.jpg,stimuli/scenes/046b.jpg,stimuli/objects/098b.jpg,stimuli/scenes/046a.jpg,dist1,lure,dist2,target,0,0,0,0,,,,,0,2,2,13,,,,,,,,,,,,,,419.38738334178925,,,,,,,,,,,,,,415.40401969477534,415.40401969477534,415.40401969477534,415.40401969477534,415.40401969477534,415.40401969477534,None,None,,,,,,,,,,,,,,,ST02_112822,2022-11-29_11h09.24.884,Hippopolis_Learning,2022.2.2,59.09473192939509,
Hippopolis,stimuli/subj_files/ST02_112822_cityA.csv,./stimuli/seattle.jpg,./stimuli/street_plate1.png,./stimuli/videos/hippopolis_part1.mp4,LIGET UTCA,stimuli/scenes/063a.jpg,scene,2,stimuli/objects/108a.jpg,stimuli/scenes/008a.jpg,stimuli/objects/108b.jpg,stimuli/objects/108a.jpg,stimuli/scenes/008b.jpg,dist1,lure,target,dist2,0,0,0,0,,,,,0,3,3,21,,,,,,,,,,,,,,422.88588833250105,,,,,,,,,,,,,,420.41688323020935,420.41688323020935,420.41688323020935,420.41688323020935,420.41688323020935,420.41688323020935,left,None,2.4250880014151335,,,,,,,,,,,,,,ST02_112822,2022-11-29_11h09.24.884,Hippopolis_Learning,2022.2.2,59.09473192939509,
Hippopolis,stimuli/subj_files/ST02_112822_cityA.csv,./stimuli/seattle.jpg,./stimuli/street_plate1.png,./stimuli/videos/hippopolis_part1.mp4,KÖNYVTÁR UTCA,stimuli/scenes/065a.jpg,scene,0,stimuli/scenes/065a.jpg,stimuli/scenes/065b.jpg,stimuli/scenes/118b.jpg,stimuli/scenes/065a.jpg,stimuli/scenes/118a.jpg,lure,dist2,target,dist1,0,0,0,0,,,,,0,4,4,34,,,,,,,,,,,,,,425.8024061322212,,,,,,,,,,,,,,423.9177033547312,423.9177033547312,423.9177033547312,423.9177033547312,423.9177033547312,423.9177033547312,left,None,1.8525936547666788,,,,,,,,,,,,,,ST02_112822,2022-11-29_11h09.24.884,Hippopolis_Learning,2022.2.2,59.09473192939509,
Hippopolis,stimuli/subj_files/ST02_112822_cityA.csv,./stimuli/seattle.jpg,./stimuli/street_plate1.png,./stimuli/videos/hippopolis_part1.mp4,HARCSA UTCA,stimuli/objects/047a.jpg,object,2,stimuli/scenes/073a.jpg,stimuli/scenes/023b.jpg,stimuli/scenes/023a.jpg,stimuli/scenes/073b.jpg,stimuli/scenes/073a.jpg,dist2,dist1,lure,target,0,0,0,0,,,,,0,5,5,69,,,,,,,,,,,,,,428.316499074921,,,,,,,,,,,,,,426.83613353036344,426.83613353036344,426.83613353036344,426.83613353036344,426.83613353036344,426.83613353036344,left,None,1.4459014814347029,,,,,,,,,,,,,,ST02_112822,2022-11-29_11h09.24.884,Hippopolis_Learning,2022.2.2,59.09473192939509,
Hippopolis,stimuli/subj_files/ST02_112822_cityA.csv,./stimuli/seattle.jpg,./stimuli/street_plate1.png,./stimuli/videos/hippopolis_part1.mp4,SZAXOFON UTCA,stimuli/objects/061a.jpg,object,0,stimuli/objects/061a.jpg,stimuli/objects/061a.jpg,stimuli/objects/020b.jpg,stimuli/objects/020a.jpg,stimuli/objects/061b.jpg,target,dist2,dist1,lure,0,0,0,0,,,,,0,6,6,10,,,,,,,,,,,,,,431.4524157103151,,,,,,,,,,,,,,429.3512070775032,429.3512070775032,429.3512070775032,429.3512070775032,429.3512070775032,429.3512070775032,left,None,2.0674244295805693,,,,,,,,,,,,,,ST02_112822,2022-11-29_11h09.24.884,Hippopolis_Learning,2022.2.2,59.09473192939509,
Hippopolis,stimuli/subj_files/ST02_112822_cityA.csv,./stimuli/seattle.jpg,./stimuli/street_plate1.png,./stimuli/videos/hippopolis_part1.mp4,MÁRVÁNY UTCA,stimuli/scenes/100a.jpg,scene,0,stimuli/scenes/100a.jpg,stimuli/objects/025a.jpg,stimuli/scenes/100a.jpg,stimuli/scenes/100b.jpg,stimuli/objects/025b.jpg,dist1,target,lure,dist2,0,0,0,0,,,,,0,7,7,24,,,,,,,,,,,,,,434.65575604327023,,,,,,435.67134275101125,,,,,,,,432.48332041502,432.48332041502,432.48332041502,432.48332041502,432.48332041502,432.48332041502,left,None,2.13460429944098,,,,,,,,,,,,,,ST02_112822,2022-11-29_11h09.24.884,Hippopolis_Learning,2022.2.2,59.09473192939509,
Hippopolis,stimuli/subj_files/ST02_112822_cityA.csv,./stimuli/seattle.jpg,./stimuli/street_plate1.png,./stimuli/videos/hippopolis_part1.mp4,TRIATLON UTCA,stimuli/objects/026a.jpg,object,1,stimuli/objects/068a.jpg,stimuli/scenes/111b.jpg,stimuli/objects/068a.jpg,stimuli/scenes/111a.jpg,stimuli/objects/068b.jpg,dist2,target,dist1,lure,0,0,0,0,,,,,0,8,8,35,,,,,,,,,,,,,,444.7837864905596,,,,,,,,,,,,,,435.67134275101125,435.67134275101125,435.67134275101125,435.67134275101125,435.67134275101125,435.67134275101125,right,space,1.5381665024906397,437.2612854875624,437.2612854875624,437.2612854875624,437.2612854875624,437.2612854875624,7.484891107305884,,,,,,,,ST02_112822,2022-11-29_11h09.24.884,Hippopolis_Learning,2022.2.2,59.09473192939509,
Hippopolis,stimuli/subj_files/ST02_112822_cityA.csv,./stimuli/seattle.jpg,./stimuli/street_plate1.png,./stimuli/videos/hippopolis_part1.mp4,KATONA UTCA,stimuli/scenes/028a.jpg,scene,1,stimuli/scenes/091a.jpg,stimuli/scenes/003b.jpg,stimuli/scenes/091a.jpg,stimuli/scenes/091b.jpg,stimuli/scenes/003a.jpg,dist2,target,lure,dist1,0,0,0,0,,,,,0,9,9,73,,,,,,,,,,,,,,447.2927745748311,,,,,,,,,,,,,,445.8133268095553,445.8133268095553,445.8133268095553,445.8133268095553,445.8133268095553,445.8133268095553,left,None,1.44484250433743,,,,,,,,,,,,,,ST02_112822,2022-11-29_11h09.24.884,Hippopolis_Learning,2022.2.2,59.09473192939509,
Hippopolis,stimuli/subj_files/ST02_112822_cityA.csv,./stimuli/seattle.jpg,./stimuli/street_plate1.png,./stimuli/videos/hippopolis_part1.mp4,BONBON UTCA,stimuli/objects/020a.jpg,object,0,stimuli/objects/020a.jpg,stimuli/scenes/094a.jpg,stimuli/scenes/094b.jpg,stimuli/objects/020b.jpg,stimuli/objects/020a.jpg,dist1,dist2,lure,target,0,0,0,0,,,,,0,10,10,59,,,,,,,,,,,,,,449.6659511439502,,,,,,,,,,,,,,448.32329021021724,448.32329021021724,448.32329021021724,448.32329021021724,448.32329021021724,448.32329021021724,left,None,1.3028301447629929,,,,,,,,,,,,,,ST02_112822,2022-11-29_11h09.24.884,Hippopolis_Learning,2022.2.2,59.09473192939509,
Hippopolis,stimuli/subj_files/ST02_112822_cityA.csv,./stimuli/seattle.jpg,./stimuli/street_plate1.png,./stimuli/videos/hippopolis_part1.mp4,LÁNDZSA UTCA,stimuli/scenes/011a.jpg,scene,2,stimuli/objects/064a.jpg,stimuli/objects/064a.jpg,stimuli/objects/064b.jpg,stimuli/objects/042b.jpg,stimuli/objects/042a.jpg,target,lure,dist2,dist1,0,0,0,0,,,,,0,11,11,15,,,,,,,,,,,,,,452.61057770065963,,,,,,,,,,,,,,450.69368327222764,450.69368327222764,450.69368327222764,450.69368327222764,450.69368327222764,450.69368327222764,left,None,1.8762273397296667,,,,,,,,,,,,,,ST02_112822,2022-11-29_11h09.24.884,Hippopolis_Learning,2022.2.2,59.09473192939509,
Hippopolis,stimuli/subj_files/ST02_112822_cityA.csv,./stimuli/seattle.jpg,./stimuli/street_plate1.png,./stimuli/videos/hippopolis_part1.mp4,FÉSZEK UTCA,stimuli/scenes/014a.jpg,scene,0,stimuli/scenes/014a.jpg,stimuli/scenes/014b.jpg,stimuli/objects/023b.jpg,stimuli/objects/023a.jpg,stimuli/scenes/014a.jpg,lure,dist2,dist1,target,0,0,0,0,,,,,0,12,12,17,,,,,,,,,,,,,,455.2760704215616,,,,,,456.29478678666055,,,,,,,,453.64649302884936,453.64649302884936,453.64649302884936,453.64649302884936,453.64649302884936,453.64649302884936,left,None,1.5951630901545286,,,,,,,,,,,,,,ST02_112822,2022-11-29_11h09.24.884,Hippopolis_Learning,2022.2.2,59.09473192939509,
Hippopolis,stimuli/subj_files/ST02_112822_cityA.csv,./stimuli/seattle.jpg,./stimuli/street_plate1.png,./stimuli/videos/hippopolis_part1.mp4,TOJÁS UTCA,stimuli/scenes/047a.jpg,scene,1,stimuli/scenes/039a.jpg,stimuli/scenes/039b.jpg,stimuli/objects/028a.jpg,stimuli/objects/028b.jpg,stimuli/scenes/039a.jpg,lure,dist1,dist2,target,0,0,0,0,,,,,0,13,13,9,,,,,,,,,,,,,,458.07827471010387,,,,,,,,,,,,,,456.29478678666055,456.29478678666055,456.29478678666055,456.29478678666055,456.29478678666055,456.29478678666055,left,None,1.7475042827427387,,,,,,,,,,,,,,ST02_112822,2022-11-29_11h09.24.884,Hippopolis_Learning,2022.2.2,59.09473192939509,
Hippopolis,stimuli/subj_files/ST02_112822_cityA.csv,./stimuli/seattle.jpg,./stimuli/street_plate1.png,./stimuli/videos/hippopolis_part1.mp4,PETÁRDA UTCA,stimuli/objects/117a.jpg,object,0,stimuli/objects/117a.jpg,stimuli/objects/117a.jpg,stimuli/objects/055b.jpg,stimuli/objects/055a.jpg,stimuli/objects/117b.jpg,target,dist2,dist1,lure,0,0,0,0,,,,,0,14,14,74,,,,,,,,,,,,,,462.65185135789216,,,,,,,,,,,,,,459.1104268617928,459.1104268617928,459.1104268617928,459.1104268617928,459.1104268617928,459.1104268617928,left,None,3.5071675647050142,,,,,,,,,,,,,,ST02_112822,2022-11-29_11h09.24.884,Hippopolis_Learning,2022.2.2,59.09473192939509,
Hippopolis,stimuli/subj_files/ST02_112822_cityA.csv,./stimuli/seattle.jpg,./stimuli/street_plate1.png,./stimuli/videos/hippopolis_part1.mp4,KARTON UTCA,stimuli/objects/073a.jpg,object,1,stimuli/objects/075a.jpg,stimuli/objects/057a.jpg,stimuli/objects/075b.jpg,stimuli/objects/075a.jpg,stimuli/objects/057b.jpg,dist1,lure,target,dist2,0,0,0,0,,,,,0,15,15,1,,,,,,,,,,,,,,465.8225674312562,,,,,,,,,,,,,,463.6695389132947,463.6695389132947,463.6695389132947,463.6695389132947,463.6695389132947,463.6695389132947,left,None,2.1001335941255093,,,,,,,,,,,,,,ST02_112822,2022-11-29_11h09.24.884,Hippopolis_Learning,2022.2.2,59.09473192939509,
Hippopolis,stimuli/subj_files/ST02_112822_cityA.csv,./stimuli/seattle.jpg,./stimuli/street_plate1.png,./stimuli/videos/hippopolis_part1.mp4,PAPUCS UTCA,stimuli/objects/099a.jpg,object,1,stimuli/objects/115a.jpg,stimuli/objects/115b.jpg,stimuli/objects/103b.jpg,stimuli/objects/103a.jpg,stimuli/objects/115a.jpg,lure,dist2,dist1,target,0,0,0,0,,,,,0,16,16,30,,,,,,,,,,,,,,468.34647853672504,,,,,,,,,,,,,,466.84655846469104,466.84655846469104,466.84655846469104,466.84655846469104,466.84655846469104,466.84655846469104,left,None,1.4667634777724743,,,,,,,,,,,,,,ST02_112822,2022-11-29_11h09.24.884,Hippopolis_Learning,2022.2.2,59.09473192939509,
Hippopolis,stimuli/subj_files/ST02_112822_cityA.csv,./stimuli/seattle.jpg,./stimuli/street_plate1.png,./stimuli/videos/hippopolis_part1.mp4,KIRAKÓ UTCA,stimuli/objects/104a.jpg,object,2,stimuli/scenes/059a.jpg,stimuli/objects/108b.jpg,stimuli/scenes/059b.jpg,stimuli/objects/108a.jpg,stimuli/scenes/059a.jpg,dist2,lure,dist1,target,0,0,0,0,,,,,0,17,17,4,,,,,,,,,,,,,,471.01779267564416,,,,,,,,,,,,,,469.3786421958357,469.3786421958357,469.3786421958357,469.3786421958357,469.3786421958357,469.3786421958357,left,None,1.6067689154297113,,,,,,,,,,,,,,ST02_112822,2022-11-29_11h09.24.884,Hippopolis_Learning,2022.2.2,59.09473192939509,
Hippopolis,stimuli/subj_files/ST02_112822_cityA.csv,./stimuli/seattle.jpg,./stimuli/street_plate1.png,./stimuli/videos/hippopolis_part1.mp4,MÁLNA UTCA,stimuli/objects/109a.jpg,object,1,stimuli/objects/028a.jpg,stimuli/objects/115a.jpg,stimuli/objects/028a.jpg,stimuli/objects/028b.jpg,stimuli/objects/115b.jpg,dist1,target,lure,dist2,0,0,0,0,,,,,0,18,18,14,,,,,,,,,,,,,,473.4736502934247,,,,,,,,,,,,,,472.0429266560823,472.0429266560823,472.0429266560823,472.0429266560823,472.0429266560823,472.0429266560823,left,None,1.3902879394590855,,,,,,,,,,,,,,ST02_112822,2022-11-29_11h09.24.884,Hippopolis_Learning,2022.2.2,59.09473192939509,
Hippopolis,stimuli/subj_files/ST02_112822_cityA.csv,./stimuli/seattle.jpg,./stimuli/street_plate1.png,./stimuli/videos/hippopolis_part1.mp4,KÖTÉL UTCA,stimuli/scenes/118a.jpg,scene,0,stimuli/scenes/118a.jpg,stimuli/scenes/118b.jpg,stimuli/scenes/037a.jpg,stimuli/scenes/037b.jpg,stimuli/scenes/118a.jpg,lure,dist1,dist2,target,0,0,0,0,,,,,0,19,19,32,,,,,,,,,,,,,,476.21020393259823,,,,,,,,,,,,,,474.50957090966403,474.50957090966403,474.50957090966403,474.50957090966403,474.50957090966403,474.50957090966403,left,None,1.6599059104919434,,,,,,,,,,,,,,ST02_112822,2022-11-29_11h09.24.884,Hippopolis_Learning,2022.2.2,59.09473192939509,
Hippopolis,stimuli/subj_files/ST02_112822_cityA.csv,./stimuli/seattle.jpg,./stimuli/street_plate1.png,./stimuli/videos/hippopolis_part1.mp4,TERASZ UTCA,stimuli/scenes/021a.jpg,scene,0,stimuli/scenes/021a.jpg,stimuli/scenes/021a.jpg,stimuli/scenes/025b.jpg,stimuli/scenes/021b.jpg,stimuli/scenes/025a.jpg,target,dist2,lure,dist1,0,0,0,0,,,,,0,20,20,60,,,,,,,,,,,,,,478.69857322610915,,,,,,479.71448306925595,,,,,,,,477.23426058888435,477.23426058888435,477.23426058888435,477.23426058888435,477.23426058888435,477.23426058888435,left,None,1.4315986074507236,,,,,,,,,,,,,,ST02_112822,2022-11-29_11h09.24.884,Hippopolis_Learning,2022.2.2,59.09473192939509,
Hippopolis,stimuli/subj_files/ST02_112822_cityA.csv,./stimuli/seattle.jpg,./stimuli/street_plate1.png,./stimuli/videos/hippopolis_part1.mp4,TOLLTARTÓ UTCA,stimuli/scenes/052a.jpg,scene,0,stimuli/scenes/052a.jpg,stimuli/scenes/052a.jpg,stimuli/objects/079b.jpg,stimuli/scenes/052b.jpg,stimuli/objects/079a.jpg,target,dist2,lure,dist1,0,0,0,0,,,,,0,21,21,43,,,,,,,,,,,,,,481.5493346322328,,,,,,,,,,,,,,479.71448306925595,479.71448306925595,479.71448306925595,479.71448306925595,479.71448306925595,479.71448306925595,left,None,1.7991388086229563,,,,,,,,,,,,,,ST02_112822,2022-11-29_11h09.24.884,Hippopolis_Learning,2022.2.2,59.09473192939509,
Hippopolis,stimuli/subj_files/ST02_112822_cityA.csv,./stimuli/seattle.jpg,./stimuli/street_plate1.png,./stimuli/videos/hippopolis_part1.mp4,BETON UTCA,stimuli/scenes/022a.jpg,scene,1,stimuli/scenes/077a.jpg,stimuli/scenes/084b.jpg,stimuli/scenes/077b.jpg,stimuli/scenes/084a.jpg,stimuli/scenes/077a.jpg,dist2,lure,dist1,target,0,0,0,0,,,,,0,22,22,0,,,,,,,,,,,,,,484.23412529937923,,,,,,,,,,,,,,482.5802380926907,482.5802380926907,482.5802380926907,482.5802380926907,482.5802380926907,482.5802380926907,left,None,1.6210263818502426,,,,,,,,,,,,,,ST02_112822,2022-11-29_11h09.24.884,Hippopolis_Learning,2022.2.2,59.09473192939509,
Hippopolis,stimuli/subj_files/ST02_112822_cityA.csv,./stimuli/seattle.jpg,./stimuli/street_plate1.png,./stimuli/videos/hippopolis_part1.mp4,KRÉTA UTCA,stimuli/objects/079a.jpg,object,0,stimuli/objects/079a.jpg,stimuli/objects/105a.jpg,stimuli/objects/079b.jpg,stimuli/objects/079a.jpg,stimuli/objects/105b.jpg,dist1,lure,target,dist2,0,0,0,0,,,,,0,23,23,65,,,,,,,,,,,,,,486.6810449063778,,,,,,487.69619185104966,,,,,,,,485.26620281115174,485.26620281115174,485.26620281115174,485.26620281115174,485.26620281115174,485.26620281115174,left,None,1.3829879965633154,,,,,,,,,,,,,,ST02_112822,2022-11-29_11h09.24.884,Hippopolis_Learning,2022.2.2,59.09473192939509,
Hippopolis,stimuli/subj_files/ST02_112822_cityA.csv,./stimuli/seattle.jpg,./stimuli/street_plate1.png,./stimuli/videos/hippopolis_part1.mp4,CITROM UTCA,stimuli/scenes/103a.jpg,scene,1,stimuli/scenes/105a.jpg,stimuli/objects/120a.jpg,stimuli/scenes/105a.jpg,stimuli/scenes/105b.jpg,stimuli/objects/120b.jpg,dist1,target,lure,dist2,0,0,0,0,,,,,0,24,24,40,,,,,,,,,,,,,,489.1293105483055,,,,,,,,,,,,,,487.69619185104966,487.69619185104966,487.69619185104966,487.69619185104966,487.69619185104966,487.69619185104966,left,None,1.3847971223294735,,,,,,,,,,,,,,ST02_112822,2022-11-29_11h09.24.884,Hippopolis_Learning,2022.2.2,59.09473192939509,
Hippopolis,stimuli/subj_files/ST02_112822_cityA.csv,./stimuli/seattle.jpg,./stimuli/street_plate1.png,./stimuli/videos/hippopolis_part1.mp4,FÉNYKÉP UTCA,stimuli/objects/072a.jpg,object,0,stimuli/objects/072a.jpg,stimuli/objects/072b.jpg,stimuli/scenes/061b.jpg,stimuli/scenes/061a.jpg,stimuli/objects/072a.jpg,lure,dist2,dist1,target,0,0,0,0,,,,,0,25,25,22,,,,,,,,,,,,,,491.90641630999744,,,,,,,,,,,,,,490.1537177078426,490.1537177078426,490.1537177078426,490.1537177078426,490.1537177078426,490.1537177078426,left,None,1.711836514994502,,,,,,,,,,,,,,ST02_112822,2022-11-29_11h09.24.884,Hippopolis_Learning,2022.2.2,59.09473192939509,
Hippopolis,stimuli/subj_files/ST02_112822_cityA.csv,./stimuli/seattle.jpg,./stimuli/street_plate1.png,./stimuli/videos/hippopolis_part1.mp4,MOTOR UTCA,stimuli/objects/024a.jpg,object,2,stimuli/scenes/004a.jpg,stimuli/scenes/004b.jpg,stimuli/scenes/004a.jpg,stimuli/objects/077b.jpg,stimuli/objects/077a.jpg,lure,target,dist2,dist1,0,0,0,0,,,,,0,26,26,48,,,,,,,,,,,,,,495.5429375413805,,,,,,,,,,,,,,492.9319558441639,492.9319558441639,492.9319558441639,492.9319558441639,492.9319558441639,492.9319558441639,left,None,2.5655048973858356,,,,,,,,,,,,,,ST02_112822,2022-11-29_11h09.24.884,Hippopolis_Learning,2022.2.2,59.09473192939509,
Hippopolis,stimuli/subj_files/ST02_112822_cityA.csv,./stimuli/seattle.jpg,./stimuli/street_plate1.png,./stimuli/videos/hippopolis_part1.mp4,KOCKA UTCA,stimuli/scenes/053a.jpg,scene,1,stimuli/scenes/107a.jpg,stimuli/scenes/105b.jpg,stimuli/scenes/107b.jpg,stimuli/scenes/107a.jpg,stimuli/scenes/105a.jpg,dist2,lure,target,dist1,0,0,0,0,,,,,0,27,27,55,,,,,,,,,,,,,,498.8630209658295,,,,,,,,,,,,,,496.57407550141215,496.57407550141215,496.57407550141215,496.57407550141215,496.57407550141215,496.57407550141215,left,None,2.251060953363776,,,,,,,,,,,,,,ST02_112822,2022-11-29_11h09.24.884,Hippopolis_Learning,2022.2.2,59.09473192939509,
Hippopolis,stimuli/subj_files/ST02_112822_cityA.csv,./stimuli/seattle.jpg,./stimuli/street_plate1.png,./stimuli/videos/hippopolis_part1.mp4,SIVATAG UTCA,stimuli/scenes/061a.jpg,scene,0,stimuli/scenes/061a.jpg,stimuli/scenes/061b.jpg,stimuli/objects/087b.jpg,stimuli/objects/087a.jpg,stimuli/scenes/061a.jpg,lure,dist2,dist1,target,0,0,0,0,,,,,0,28,28,18,,,,,,,,,,,,,,501.7774643525481,,,,,,,,,,,,,,499.88900803774595,499.88900803774595,499.88900803774595,499.88900803774595,499.88900803774595,499.88900803774595,right,None,1.8482628911733627,,,,,,,,,,,,,,ST02_112822,2022-11-29_11h09.24.884,Hippopolis_Learning,2022.2.2,59.09473192939509,
Hippopolis,stimuli/subj_files/ST02_112822_cityA.csv,./stimuli/seattle.jpg,./stimuli/street_plate1.png,./stimuli/videos/hippopolis_part1.mp4,SZŐNYEG UTCA,stimuli/scenes/062a.jpg,scene,1,stimuli/scenes/111a.jpg,stimuli/scenes/111a.jpg,stimuli/scenes/044a.jpg,stimuli/scenes/111b.jpg,stimuli/scenes/044b.jpg,target,dist1,lure,dist2,0,0,0,0,,,,,0,29,29,53,,,,,,,,,,,,,,505.3226874805987,,,,,,,,,,,,,,502.802394002676,502.802394002676,502.802394002676,502.802394002676,502.802394002676,502.802394002676,left,None,2.470510795712471,,,,,,,,,,,,,,ST02_112822,2022-11-29_11h09.24.884,Hippopolis_Learning,2022.2.2,59.09473192939509,
Hippopolis,stimuli/subj_files/ST02_112822_cityA.csv,./stimuli/seattle.jpg,./stimuli/street_plate1.png,./stimuli/videos/hippopolis_part1.mp4,BANÁN UTCA,stimuli/scenes/048a.jpg,scene,0,stimuli/scenes/048a.jpg,stimuli/objects/041a.jpg,stimuli/scenes/048b.jpg,stimuli/scenes/048a.jpg,stimuli/objects/041b.jpg,dist1,lure,target,dist2,0,0,0,0,,,,,0,30,30,25,,,,,,,,,,,,,,509.2209921218455,,,,,,,,,,,,,,506.35031355544925,506.35031355544925,506.35031355544925,506.35031355544925,506.35031355544925,506.35031355544925,left,None,2.8430510461330414,,,,,,,,,,,,,,ST02_112822,2022-11-29_11h09.24.884,Hippopolis_Learning,2022.2.2,59.09473192939509,
Hippopolis,stimuli/subj_files/ST02_112822_cityA.csv,./stimuli/seattle.jpg,./stimuli/street_plate1.png,./stimuli/videos/hippopolis_part1.mp4,HARMONIKA UTCA,stimuli/objects/092a.jpg,object,1,stimuli/objects/057a.jpg,stimuli/objects/063a.jpg,stimuli/objects/057a.jpg,stimuli/objects/063b.jpg,stimuli/objects/057b.jpg,dist1,target,dist2,lure,0,0,0,0,,,,,0,31,31,58,,,,,,,,,,,,,,511.92434956133366,,,,,,,,,,,,,,510.24183825962245,510.24183825962245,510.24183825962245,510.24183825962245,510.24183825962245,510.24183825962245,left,None,1.6388041283935308,,,,,,,,,,,,,,ST02_112822,2022-11-29_11h09.24.884,Hippopolis_Learning,2022.2.2,59.09473192939509,
Hippopolis,stimuli/subj_files/ST02_112822_cityA.csv,./stimuli/seattle.jpg,./stimuli/street_plate1.png,./stimuli/videos/hippopolis_part1.mp4,FÜZET UTCA,stimuli/objects/071a.jpg,object,2,stimuli/scenes/009a.jpg,stimuli/scenes/009b.jpg,stimuli/scenes/074b.jpg,stimuli/scenes/009a.jpg,stimuli/scenes/074a.jpg,lure,dist2,target,dist1,0,0,0,0,,,,,0,32,32,64,,,,,,,,,,,,,,515.029336610809,,,,,,,,,,,,,,512.9554408695549,512.9554408695549,512.9554408695549,512.9554408695549,512.9554408695549,512.9554408695549,left,None,2.029436554759741,,,,,,,,,,,,,,ST02_112822,2022-11-29_11h09.24.884,Hippopolis_Learning,2022.2.2,59.09473192939509,
Hippopolis,stimuli/subj_files/ST02_112822_cityA.csv,./stimuli/seattle.jpg,./stimuli/street_plate1.png,./stimuli/videos/hippopolis_part1.mp4,KUTYA UTCA,stimuli/objects/007a.jpg,object,2,stimuli/scenes/096a.jpg,stimuli/scenes/119a.jpg,stimuli/scenes/096a.jpg,stimuli/scenes/119b.jpg,stimuli/scenes/096b.jpg,dist1,target,dist2,lure,0,0,0,0,,,,,0,33,33,28,,,,,,,,,,,,,,518.2554276827723,,,,,,,,,,,,,,516.0627666879445,516.0627666879445,516.0627666879445,516.0627666879445,516.0627666879445,516.0627666879445,left,None,2.154120571911335,,,,,,,,,,,,,,ST02_112822,2022-11-29_11h09.24.884,Hippopolis_Learning,2022.2.2,59.09473192939509,
Hippopolis,stimuli/subj_files/ST02_112822_cityA.csv,./stimuli/seattle.jpg,./stimuli/street_plate1.png,./stimuli/videos/hippopolis_part1.mp4,SIRÁLY UTCA,stimuli/objects/055a.jpg,object,0,stimuli/objects/055a.jpg,stimuli/objects/055b.jpg,stimuli/objects/085b.jpg,stimuli/objects/085a.jpg,stimuli/objects/055a.jpg,lure,dist2,dist1,target,0,0,0,0,,,,,0,34,34,19,,,,,,,,,,,,,,521.8831343725324,,,,,,,,,,,,,,519.2832919899374,519.2832919899374,519.2832919899374,519.2832919899374,519.2832919899374,519.2832919899374,right,None,2.565650448203087,,,,,,,,,,,,,,ST02_112822,2022-11-29_11h09.24.884,Hippopolis_Learning,2022.2.2,59.09473192939509,
Hippopolis,stimuli/subj_files/ST02_112822_cityA.csv,./stimuli/seattle.jpg,./stimuli/street_plate1.png,./stimuli/videos/hippopolis_part1.mp4,SZALVÉTA UTCA,stimuli/scenes/035a.jpg,scene,1,stimuli/scenes/099a.jpg,stimuli/objects/059b.jpg,stimuli/scenes/099a.jpg,stimuli/scenes/099b.jpg,stimuli/objects/059a.jpg,dist2,target,lure,dist1,0,0,0,0,,,,,0,35,35,56,,,,,,,,,,,,,,525.1455746274441,,,,,,,,,,,,,,522.910902576521,522.910902576521,522.910902576521,522.910902576521,522.910902576521,522.910902576521,left,None,2.201541271060705,,,,,,,,,,,,,,ST02_112822,2022-11-29_11h09.24.884,Hippopolis_Learning,2022.2.2,59.09473192939509,
Hippopolis,stimuli/subj_files/ST02_112822_cityA.csv,./stimuli/seattle.jpg,./stimuli/street_plate1.png,./stimuli/videos/hippopolis_part1.mp4,TÁSKA UTCA,stimuli/scenes/093a.jpg,scene,1,stimuli/scenes/071a.jpg,stimuli/scenes/071a.jpg,stimuli/scenes/071b.jpg,stimuli/scenes/107a.jpg,stimuli/scenes/107b.jpg,target,lure,dist1,dist2,0,0,0,0,,,,,0,36,36,41,,,,,,,,,,,,,,528.1427037268877,,,,,,,,,,,,,,526.1725115124136,526.1725115124136,526.1725115124136,526.1725115124136,526.1725115124136,526.1725115124136,left,None,1.9327328484505415,,,,,,,,,,,,,,ST02_112822,2022-11-29_11h09.24.884,Hippopolis_Learning,2022.2.2,59.09473192939509,
Hippopolis,stimuli/subj_files/ST02_112822_cityA.csv,./stimuli/seattle.jpg,./stimuli/street_plate1.png,./stimuli/videos/hippopolis_part1.mp4,TELEFON UTCA,stimuli/objects/050a.jpg,object,1,stimuli/objects/067a.jpg,stimuli/scenes/055b.jpg,stimuli/scenes/055a.jpg,stimuli/objects/067b.jpg,stimuli/objects/067a.jpg,dist2,dist1,lure,target,0,0,0,0,,,,,0,37,37,50,,,,,,,,,,,,,,531.5070150587708,,,,,,,,,,,,,,529.1747523136437,529.1747523136437,529.1747523136437,529.1747523136437,529.1747523136437,529.1747523136437,left,None,2.2904679495841265,,,,,,,,,,,,,,ST02_112822,2022-11-29_11h09.24.884,Hippopolis_Learning,2022.2.2,59.09473192939509,
Hippopolis,stimuli/subj_files/ST02_112822_cityA.csv,./stimuli/seattle.jpg,./stimuli/street_plate1.png,./stimuli/videos/hippopolis_part1.mp4,LEVÉL UTCA,stimuli/scenes/032a.jpg,scene,2,stimuli/objects/098a.jpg,stimuli/objects/098a.jpg,stimuli/objects/003b.jpg,stimuli/objects/003a.jpg,stimuli/objects/098b.jpg,target,dist2,dist1,lure,0,0,0,0,,,,,0,38,38,72,,,,,,,,,,,,,,533.9924341477454,,,,,,,,,,,,,,532.5279240198433,532.5279240198433,532.5279240198433,532.5279240198433,532.5279240198433,532.5279240198433,left,None,1.401451826095581,,,,,,,,,,,,,,ST02_112822,2022-11-29_11h09.24.884,Hippopolis_Learning,2022.2.2,59.09473192939509,
Hippopolis,stimuli/subj_files/ST02_112822_cityA.csv,./stimuli/seattle.jpg,./stimuli/street_plate1.png,./stimuli/videos/hippopolis_part1.mp4,KOKTÉL UTCA,stimuli/scenes/001a.jpg,scene,2,stimuli/objects/077a.jpg,stimuli/scenes/015a.jpg,stimuli/scenes/015b.jpg,stimuli/objects/077a.jpg,stimuli/objects/077b.jpg,dist1,dist2,target,lure,0,0,0,0,,,,,0,39,39,23,,,,,,,,,,,,,,536.3922938201576,,,,,,,,,,,,,,535.0228714086115,535.0228714086115,535.0228714086115,535.0228714086115,535.0228714086115,535.0228714086115,left,None,1.3383165951818228,,,,,,,,,,,,,,ST02_112822,2022-11-29_11h09.24.884,Hippopolis_Learning,2022.2.2,59.09473192939509,
Hippopolis,stimuli/subj_files/ST02_112822_cityA.csv,./stimuli/seattle.jpg,./stimuli/street_plate1.png,./stimuli/videos/hippopolis_part1.mp4,HAJÓ UTCA,stimuli/objects/021a.jpg,object,2,stimuli/scenes/015a.jpg,stimuli/scenes/015b.jpg,stimuli/scenes/090b.jpg,stimuli/scenes/015a.jpg,stimuli/scenes/090a.jpg,lure,dist2,target,dist1,0,0,0,0,,,,,0,40,40,57,,,,,,,,,,,,,,538.8853565119207,,,,,,,,,,,,,,537.4156276974827,537.4156276974827,537.4156276974827,537.4156276974827,537.4156276974827,537.4156276974827,left,None,1.4412569124251604,,,,,,,,,,,,,,ST02_112822,2022-11-29_11h09.24.884,Hippopolis_Learning,2022.2.2,59.09473192939509,
Hippopolis,stimuli/subj_files/ST02_112822_cityA.csv,./stimuli/seattle.jpg,./stimuli/street_plate1.png,./stimuli/videos/hippopolis_part1.mp4,FEJSZE UTCA,stimuli/scenes/106a.jpg,scene,2,stimuli/objects/008a.jpg,stimuli/scenes/009b.jpg,stimuli/objects/008b.jpg,stimuli/scenes/009a.jpg,stimuli/objects/008a.jpg,dist2,lure,dist1,target,0,0,0,0,,,,,0,41,41,27,,,,,,,,,,,,,,541.0720424521714,,,,,,,,,,,,,,539.9102563057095,539.9102563057095,539.9102563057095,539.9102563057095,539.9102563057095,539.9102563057095,left,None,1.1223400738090277,,,,,,,,,,,,,,ST02_112822,2022-11-29_11h09.24.884,Hippopolis_Learning,2022.2.2,59.09473192939509,
Hippopolis,stimuli/subj_files/ST02_112822_cityA.csv,./stimuli/seattle.jpg,./stimuli/street_plate1.png,./stimuli/videos/hippopolis_part1.mp4,TÉRKÉP UTCA,stimuli/scenes/051a.jpg,scene,2,stimuli/objects/106a.jpg,stimuli/objects/106a.jpg,stimuli/objects/064a.jpg,stimuli/objects/064b.jpg,stimuli/objects/106b.jpg,target,dist1,dist2,lure,0,0,0,0,,,,,0,42,42,77,,,,,,,,,,,,,,544.0676062572747,,,,,,,,,,,,,,542.1010357122868,542.1010357122868,542.1010357122868,542.1010357122868,542.1010357122868,542.1010357122868,left,None,1.9234300255775452,,,,,,,,,,,,,,ST02_112822,2022-11-29_11h09.24.884,Hippopolis_Learning,2022.2.2,59.09473192939509,
Hippopolis,stimuli/subj_files/ST02_112822_cityA.csv,./stimuli/seattle.jpg,./stimuli/street_plate1.png,./stimuli/videos/hippopolis_part1.mp4,ÁRNYÉK UTCA,stimuli/objects/035a.jpg,object,1,stimuli/objects/059a.jpg,stimuli/objects/059a.jpg,stimuli/scenes/078b.jpg,stimuli/objects/059b.jpg,stimuli/scenes/078a.jpg,target,dist2,lure,dist1,0,0,0,0,,,,,0,43,43,29,,,,,,,,,,,,,,547.271749921143,,,,,,,,,,,,,,545.0990645550191,545.0990645550191,545.0990645550191,545.0990645550191,545.0990645550191,545.0990645550191,left,None,2.126136837527156,,,,,,,,,,,,,,ST02_112822,2022-11-29_11h09.24.884,Hippopolis_Learning,2022.2.2,59.09473192939509,
Hippopolis,stimuli/subj_files/ST02_112822_cityA.csv,./stimuli/seattle.jpg,./stimuli/street_plate1.png,./stimuli/videos/hippopolis_part1.mp4,PAPRIKA UTCA,stimuli/scenes/025a.jpg,scene,0,stimuli/scenes/025a.jpg,stimuli/scenes/080b.jpg,stimuli/scenes/080a.jpg,stimuli/scenes/025a.jpg,stimuli/scenes/025b.jpg,dist2,dist1,target,lure,0,0,0,0,,,,,0,44,44,71,,,,,,,,,,,,,,549.9491688031703,,,,,,,,,,,,,,548.2992248479277,548.2992248479277,548.2992248479277,548.2992248479277,548.2992248479277,548.2992248479277,left,None,1.6131883971393108,,,,,,,,,,,,,,ST02_112822,2022-11-29_11h09.24.884,Hippopolis_Learning,2022.2.2,59.09473192939509,
Hippopolis,stimuli/subj_files/ST02_112822_cityA.csv,./stimuli/seattle.jpg,./stimuli/street_plate1.png,./stimuli/videos/hippopolis_part1.mp4,BÚJÓCSKA UTCA,stimuli/scenes/027a.jpg,scene,1,stimuli/scenes/003a.jpg,stimuli/scenes/003a.jpg,stimuli/objects/038a.jpg,stimuli/scenes/003b.jpg,stimuli/objects/038b.jpg,target,dist1,lure,dist2,0,0,0,0,,,,,0,45,45,33,,,,,,,,,,,,,,552.0425410084426,,,,,,,,,,,,,,550.9831935241818,550.9831935241818,550.9831935241818,550.9831935241818,550.9831935241818,550.9831935241818,left,None,1.0253570843487978,,,,,,,,,,,,,,ST02_112822,2022-11-29_11h09.24.884,Hippopolis_Learning,2022.2.2,59.09473192939509,
Hippopolis,stimuli/subj_files/ST02_112822_cityA.csv,./stimuli/seattle.jpg,./stimuli/street_plate1.png,./stimuli/videos/hippopolis_part1.mp4,ÁLOM UTCA,stimuli/scenes/018a.jpg,scene,2,stimuli/objects/011a.jpg,stimuli/objects/040a.jpg,stimuli/objects/040b.jpg,stimuli/objects/011b.jpg,stimuli/objects/011a.jpg,dist1,dist2,lure,target,0,0,0,0,,,,,0,46,46,54,,,,,,,,,,,,,,554.5378196202219,,,,,,,,,,,,,,553.0583519525826,553.0583519525826,553.0583519525826,553.0583519525826,553.0583519525826,553.0583519525826,left,None,1.4462093766778708,,,,,,,,,,,,,,ST02_112822,2022-11-29_11h09.24.884,Hippopolis_Learning,2022.2.2,59.09473192939509,
Hippopolis,stimuli/subj_files/ST02_112822_cityA.csv,./stimuli/seattle.jpg,./stimuli/street_plate1.png,./stimuli/videos/hippopolis_part1.mp4,TERÍTŐ UTCA,stimuli/scenes/038a.jpg,scene,2,stimuli/objects/040a.jpg,stimuli/objects/040a.jpg,stimuli/objects/106b.jpg,stimuli/objects/040b.jpg,stimuli/objects/106a.jpg,target,dist2,lure,dist1,0,0,0,0,,,,,0,47,47,6,,,,,,,,,,,,,,557.135465675965,,,,,,,,,,,,,,555.5724819060415,555.5724819060415,555.5724819060415,555.5724819060415,555.5724819060415,555.5724819060415,left,None,1.5240057595074177,,,,,,,,,,,,,,ST02_112822,2022-11-29_11h09.24.884,Hippopolis_Learning,2022.2.2,59.09473192939509,
Hippopolis,stimuli/subj_files/ST02_112822_cityA.csv,./stimuli/seattle.jpg,./stimuli/street_plate1.png,./stimuli/videos/hippopolis_part1.mp4,MUNKA UTCA,stimuli/objects/053a.jpg,object,2,stimuli/scenes/068a.jpg,stimuli/scenes/073b.jpg,stimuli/scenes/068a.jpg,stimuli/scenes/068b.jpg,stimuli/scenes/073a.jpg,dist2,target,lure,dist1,0,0,0,0,,,,,0,48,48,70,,,,,,,,,,,,,,560.2537333201617,,,,,,,,,,,,,,558.1694017592818,558.1694017592818,558.1694017592818,558.1694017592818,558.1694017592818,558.1694017592818,left,None,2.046940926462412,,,,,,,,,,,,,,ST02_112822,2022-11-29_11h09.24.884,Hippopolis_Learning,2022.2.2,59.09473192939509,
Hippopolis,stimuli/subj_files/ST02_112822_cityA.csv,./stimuli/seattle.jpg,./stimuli/street_plate1.png,./stimuli/videos/hippopolis_part1.mp4,KÓKUSZ UTCA,stimuli/scenes/113a.jpg,scene,2,stimuli/objects/046a.jpg,stimuli/objects/022a.jpg,stimuli/objects/046a.jpg,stimuli/objects/046b.jpg,stimuli/objects/022b.jpg,dist1,target,lure,dist2,0,0,0,0,,,,,0,49,49,31,,,,,,,,,,,,,,565.2868234664202,,,,,,,,,,,,,,561.2884394563735,561.2884394563735,561.2884394563735,561.2884394563735,561.2884394563735,561.2884394563735,None,None,,,,,,,,,,,,,,,ST02_112822,2022-11-29_11h09.24.884,Hippopolis_Learning,2022.2.2,59.09473192939509,
Hippopolis,stimuli/subj_files/ST02_112822_cityA.csv,./stimuli/seattle.jpg,./stimuli/street_plate1.png,./stimuli/videos/hippopolis_part1.mp4,KOSÁR UTCA,stimuli/scenes/088a.jpg,scene,2,stimuli/objects/003a.jpg,stimuli/objects/003b.jpg,stimuli/scenes/096b.jpg,stimuli/scenes/096a.jpg,stimuli/objects/003a.jpg,lure,dist2,dist1,target,0,0,0,0,,,,,0,50,50,68,,,,,,,,,,,,,,567.6973640341312,,,,,,,,,,,,,,566.3192312661558,566.3192312661558,566.3192312661558,566.3192312661558,566.3192312661558,566.3192312661558,left,None,1.337152186781168,,,,,,,,,,,,,,ST02_112822,2022-11-29_11h09.24.884,Hippopolis_Learning,2022.2.2,59.09473192939509,
Hippopolis,stimuli/subj_files/ST02_112822_cityA.csv,./stimuli/seattle.jpg,./stimuli/street_plate1.png,./stimuli/videos/hippopolis_part1.mp4,SZILVA UTCA,stimuli/scenes/016a.jpg,scene,1,stimuli/scenes/070a.jpg,stimuli/scenes/070b.jpg,stimuli/scenes/070a.jpg,stimuli/objects/067a.jpg,stimuli/objects/067b.jpg,lure,target,dist1,dist2,0,0,0,0,,,,,0,51,51,20,,,,,,,,,,,,,,571.0531873796135,,,,,,,,,,,,,,568.7219581082463,568.7219581082463,568.7219581082463,568.7219581082463,568.7219581082463,568.7219581082463,left,None,2.294087441638112,,,,,,,,,,,,,,ST02_112822,2022-11-29_11h09.24.884,Hippopolis_Learning,2022.2.2,59.09473192939509,
Hippopolis,stimuli/subj_files/ST02_112822_cityA.csv,./stimuli/seattle.jpg,./stimuli/street_plate1.png,./stimuli/videos/hippopolis_part1.mp4,SÜTŐ UTCA,stimuli/objects/051a.jpg,object,2,stimuli/scenes/117a.jpg,stimuli/scenes/117a.jpg,stimuli/scenes/117b.jpg,stimuli/scenes/004b.jpg,stimuli/scenes/004a.jpg,target,lure,dist2,dist1,0,0,0,0,,,,,0,52,52,67,,,,,,,,,,,,,,573.8889181576669,,,,,,,,,,,,,,572.0726977437735,572.0726977437735,572.0726977437735,572.0726977437735,572.0726977437735,572.0726977437735,left,None,1.7754842843860388,,,,,,,,,,,,,,ST02_112822,2022-11-29_11h09.24.884,Hippopolis_Learning,2022.2.2,59.09473192939509,
Hippopolis,stimuli/subj_files/ST02_112822_cityA.csv,./stimuli/seattle.jpg,./stimuli/street_plate1.png,./stimuli/videos/hippopolis_part1.mp4,HÁRFA UTCA,stimuli/scenes/037a.jpg,scene,0,stimuli/scenes/037a.jpg,stimuli/scenes/037a.jpg,stimuli/scenes/037b.jpg,stimuli/objects/072a.jpg,stimuli/objects/072b.jpg,target,lure,dist1,dist2,0,0,0,0,,,,,0,53,53,16,,,,,,,,,,,,,,576.2711848225445,,,,,,,,,,,,,,574.9168679900467,574.9168679900467,574.9168679900467,574.9168679900467,574.9168679900467,574.9168679900467,left,None,1.299999052658677,,,,,,,,,,,,,,ST02_112822,2022-11-29_11h09.24.884,Hippopolis_Learning,2022.2.2,59.09473192939509,
Hippopolis,stimuli/subj_files/ST02_112822_cityA.csv,./stimuli/seattle.jpg,./stimuli/street_plate1.png,./stimuli/videos/hippopolis_part1.mp4,OROSZLÁN UTCA,stimuli/objects/002a.jpg,object,1,stimuli/objects/103a.jpg,stimuli/objects/103a.jpg,stimuli/scenes/071b.jpg,stimuli/scenes/071a.jpg,stimuli/objects/103b.jpg,target,dist2,dist1,lure,0,0,0,0,,,,,0,54,54,38,,,,,,,,,,,,,,579.0720835067332,,,,,,,,,,,,,,577.3055815063417,577.3055815063417,577.3055815063417,577.3055815063417,577.3055815063417,577.3055815063417,left,None,1.7270083408802748,,,,,,,,,,,,,,ST02_112822,2022-11-29_11h09.24.884,Hippopolis_Learning,2022.2.2,59.09473192939509,
Hippopolis,stimuli/subj_files/ST02_112822_cityA.csv,./stimuli/seattle.jpg,./stimuli/street_plate1.png,./stimuli/videos/hippopolis_part1.mp4,FÓKA UTCA,stimuli/objects/041a.jpg,object,0,stimuli/objects/041a.jpg,stimuli/objects/061a.jpg,stimuli/objects/041b.jpg,stimuli/objects/061b.jpg,stimuli/objects/041a.jpg,dist1,lure,dist2,target,0,0,0,0,,,,,0,55,55,39,,,,,,,,,,,,,,581.9293838217854,,,,,,,,,,,,,,580.0952550377697,580.0952550377697,580.0952550377697,580.0952550377697,580.0952550377697,580.0952550377697,left,None,1.8007491994649172,,,,,,,,,,,,,,ST02_112822,2022-11-29_11h09.24.884,Hippopolis_Learning,2022.2.2,59.09473192939509,
Hippopolis,stimuli/subj_files/ST02_112822_cityA.csv,./stimuli/seattle.jpg,./stimuli/street_plate1.png,./stimuli/videos/hippopolis_part1.mp4,KOCSI UTCA,stimuli/objects/029a.jpg,object,2,stimuli/scenes/119a.jpg,stimuli/scenes/068b.jpg,stimuli/scenes/119b.jpg,stimuli/scenes/068a.jpg,stimuli/scenes/119a.jpg,dist2,lure,dist1,target,0,0,0,0,,,,,0,56,56,76,,,,,,,,,,,,,,584.0585541054606,,,,,,,,,,,,,,582.9570997785777,582.9570997785777,582.9570997785777,582.9570997785777,582.9570997785777,582.9570997785777,left,None,1.050975302234292,,,,,,,,,,,,,,ST02_112822,2022-11-29_11h09.24.884,Hippopolis_Learning,2022.2.2,59.09473192939509,
Hippopolis,stimuli/subj_files/ST02_112822_cityA.csv,./stimuli/seattle.jpg,./stimuli/street_plate1.png,./stimuli/videos/hippopolis_part1.mp4,RIBIZLI UTCA,stimuli/objects/118a.jpg,object,2,stimuli/scenes/023a.jpg,stimuli/scenes/023a.jpg,stimuli/objects/008b.jpg,stimuli/scenes/023b.jpg,stimuli/objects/008a.jpg,target,dist2,lure,dist1,0,0,0,0,,,,,0,57,57,79,,,,,,,,,,,,,,586.6767349801958,,,,,,,,,,,,,,585.0909671913832,585.0909671913832,585.0909671913832,585.0909671913832,585.0909671913832,585.0909671913832,left,None,1.5417533405125141,,,,,,,,,,,,,,ST02_112822,2022-11-29_11h09.24.884,Hippopolis_Learning,2022.2.2,59.09473192939509,
Hippopolis,stimuli/subj_files/ST02_112822_cityA.csv,./stimuli/seattle.jpg,./stimuli/street_plate1.png,./stimuli/videos/hippopolis_part1.mp4,PALACK UTCA,stimuli/objects/014a.jpg,object,2,stimuli/scenes/008a.jpg,stimuli/scenes/059a.jpg,stimuli/scenes/008b.jpg,stimuli/scenes/059b.jpg,stimuli/scenes/008a.jpg,dist1,lure,dist2,target,0,0,0,0,,,,,0,58,58,2,,,,,,,,,,,,,,589.0822730083019,,,,,,,,,,,,,,587.7009536698461,587.7009536698461,587.7009536698461,587.7009536698461,587.7009536698461,587.7009536698461,left,None,1.3471802789717913,,,,,,,,,,,,,,ST02_112822,2022-11-29_11h09.24.884,Hippopolis_Learning,2022.2.2,59.09473192939509,
Hippopolis,stimuli/subj_files/ST02_112822_cityA.csv,./stimuli/seattle.jpg,./stimuli/street_plate1.png,./stimuli/videos/hippopolis_part1.mp4,ZÁSZLÓ UTCA,stimuli/scenes/010a.jpg,scene,1,stimuli/scenes/084a.jpg,stimuli/objects/005a.jpg,stimuli/objects/005b.jpg,stimuli/scenes/084b.jpg,stimuli/scenes/084a.jpg,dist1,dist2,lure,target,0,0,0,0,,,,,0,59,59,3,,,,,,,,,,,,,,592.3807306028903,,,,,,593.3987161032856,,,,,,,,590.1118696201593,590.1118696201593,590.1118696201593,590.1118696201593,590.1118696201593,590.1118696201593,left,None,2.2321178652346134,,,,,,,,,,,,,,ST02_112822,2022-11-29_11h09.24.884,Hippopolis_Learning,2022.2.2,59.09473192939509,
Hippopolis,stimuli/subj_files/ST02_112822_cityA.csv,./stimuli/seattle.jpg,./stimuli/street_plate1.png,./stimuli/videos/hippopolis_part1.mp4,BAGOLY UTCA,stimuli/objects/013a.jpg,object,1,stimuli/objects/120a.jpg,stimuli/objects/068b.jpg,stimuli/objects/120a.jpg,stimuli/objects/068a.jpg,stimuli/objects/120b.jpg,dist2,target,dist1,lure,0,0,0,0,,,,,0,60,60,26,,,,,,,,,,,,,,594.6773694325238,,,,,,,,,,,,,,593.3987161032856,593.3987161032856,593.3987161032856,593.3987161032856,593.3987161032856,593.3987161032856,left,None,1.2492891494184732,,,,,,,,,,,,,,ST02_112822,2022-11-29_11h09.24.884,Hippopolis_Learning,2022.2.2,59.09473192939509,
Hippopolis,stimuli/subj_files/ST02_112822_cityA.csv,./stimuli/seattle.jpg,./stimuli/street_plate1.png,./stimuli/videos/hippopolis_part1.mp4,ZSEMLE UTCA,stimuli/scenes/024a.jpg,scene,2,stimuli/objects/116a.jpg,stimuli/scenes/117a.jpg,stimuli/objects/116b.jpg,stimuli/objects/116a.jpg,stimuli/scenes/117b.jpg,dist1,lure,target,dist2,0,0,0,0,,,,,0,61,61,42,,,,,,,,,,,,,,596.7822837065905,,,,,,,,,,,,,,595.7070985343307,595.7070985343307,595.7070985343307,595.7070985343307,595.7070985343307,595.7070985343307,left,None,1.0208577532321215,,,,,,,,,,,,,,ST02_112822,2022-11-29_11h09.24.884,Hippopolis_Learning,2022.2.2,59.09473192939509,
Hippopolis,stimuli/subj_files/ST02_112822_cityA.csv,./stimuli/seattle.jpg,./stimuli/street_plate1.png,./stimuli/videos/hippopolis_part1.mp4,HEGEDŰ UTCA,stimuli/objects/085a.jpg,object,0,stimuli/objects/085a.jpg,stimuli/scenes/021a.jpg,stimuli/objects/085a.jpg,stimuli/scenes/021b.jpg,stimuli/objects/085b.jpg,dist1,target,dist2,lure,0,0,0,0,,,,,0,62,62,46,,,,,,,,,,,,,,600.4728233274072,,,,,,,,,,,,,,597.8060253132135,597.8060253132135,597.8060253132135,597.8060253132135,597.8060253132135,597.8060253132135,left,None,2.6335627380758524,,,,,,,,,,,,,,ST02_112822,2022-11-29_11h09.24.884,Hippopolis_Learning,2022.2.2,59.09473192939509,
Hippopolis,stimuli/subj_files/ST02_112822_cityA.csv,./stimuli/seattle.jpg,./stimuli/street_plate1.png,./stimuli/videos/hippopolis_part1.mp4,LAKAT UTCA,stimuli/objects/087a.jpg,object,0,stimuli/objects/087a.jpg,stimuli/objects/087b.jpg,stimuli/objects/087a.jpg,stimuli/objects/117a.jpg,stimuli/objects/117b.jpg,lure,target,dist1,dist2,0,0,0,0,,,,,0,63,63,49,,,,,,,,,,,,,,602.8148849513382,,,,,,,,,,,,,,601.5019593406469,601.5019593406469,601.5019593406469,601.5019593406469,601.5019593406469,601.5019593406469,left,None,1.2738113813102245,,,,,,,,,,,,,,ST02_112822,2022-11-29_11h09.24.884,Hippopolis_Learning,2022.2.2,59.09473192939509,
Hippopolis,stimuli/subj_files/ST02_112822_cityA.csv,./stimuli/seattle.jpg,./stimuli/street_plate1.png,./stimuli/videos/hippopolis_part1.mp4,TÜKÖR UTCA,stimuli/scenes/080a.jpg,scene,0,stimuli/scenes/080a.jpg,stimuli/scenes/065a.jpg,stimuli/scenes/065b.jpg,stimuli/scenes/080b.jpg,stimuli/scenes/080a.jpg,dist1,dist2,lure,target,0,0,0,0,,,,,0,64,64,5,,,,,,,,,,,,,,607.8319893702865,,,,,,,,,,,,,,603.8478989023715,603.8478989023715,603.8478989023715,603.8478989023715,603.8478989023715,603.8478989023715,None,None,,,,,,,,,,,,,,,ST02_112822,2022-11-29_11h09.24.884,Hippopolis_Learning,2022.2.2,59.09473192939509,
Hippopolis,stimuli/subj_files/ST02_112822_cityA.csv,./stimuli/seattle.jpg,./stimuli/street_plate1.png,./stimuli/videos/hippopolis_part1.mp4,GYŰRŰ UTCA,stimuli/objects/019a.jpg,object,2,stimuli/scenes/074a.jpg,stimuli/scenes/074a.jpg,stimuli/objects/086b.jpg,stimuli/scenes/074b.jpg,stimuli/objects/086a.jpg,target,dist2,lure,dist1,0,0,0,0,,,,,0,65,65,78,,,,,,,,,,,,,,610.1463726703078,,,,,,,,,,,,,,608.8484083302319,608.8484083302319,608.8484083302319,608.8484083302319,608.8484083302319,608.8484083302319,left,None,1.255685618147254,,,,,,,,,,,,,,ST02_112822,2022-11-29_11h09.24.884,Hippopolis_Learning,2022.2.2,59.09473192939509,
Hippopolis,stimuli/subj_files/ST02_112822_cityA.csv,./stimuli/seattle.jpg,./stimuli/street_plate1.png,./stimuli/videos/hippopolis_part1.mp4,SAJTÓ UTCA,stimuli/objects/094a.jpg,object,1,stimuli/objects/063a.jpg,stimuli/objects/063b.jpg,stimuli/objects/082a.jpg,stimuli/objects/063a.jpg,stimuli/objects/082b.jpg,lure,dist1,target,dist2,0,0,0,0,,,,,0,66,66,44,,,,,,,,,,,,,,612.3633758239448,,,,,,,,,,,,,,611.1648750621825,611.1648750621825,611.1648750621825,611.1648750621825,611.1648750621825,611.1648750621825,left,None,1.146824361756444,,,,,,,,,,,,,,ST02_112822,2022-11-29_11h09.24.884,Hippopolis_Learning,2022.2.2,59.09473192939509,
Hippopolis,stimuli/subj_files/ST02_112822_cityA.csv,./stimuli/seattle.jpg,./stimuli/street_plate1.png,./stimuli/videos/hippopolis_part1.mp4,KÁRTYA UTCA,stimuli/objects/023a.jpg,object,0,stimuli/objects/023a.jpg,stimuli/objects/023b.jpg,stimuli/objects/023a.jpg,stimuli/scenes/100b.jpg,stimuli/scenes/100a.jpg,lure,target,dist2,dist1,0,0,0,0,,,,,0,67,67,37,,,,,,,,,,,,,,616.0553420316428,,,,,,,,,,,,,,613.3921827916056,613.3921827916056,613.3921827916056,613.3921827916056,613.3921827916056,613.3921827916056,left,None,2.6321109607815742,,,,,,,,,,,,,,ST02_112822,2022-11-29_11h09.24.884,Hippopolis_Learning,2022.2.2,59.09473192939509,
Hippopolis,stimuli/subj_files/ST02_112822_cityA.csv,./stimuli/seattle.jpg,./stimuli/street_plate1.png,./stimuli/videos/hippopolis_part1.mp4,FIÓK UTCA,stimuli/scenes/110a.jpg,scene,1,stimuli/scenes/078a.jpg,stimuli/objects/070b.jpg,stimuli/scenes/078b.jpg,stimuli/scenes/078a.jpg,stimuli/objects/070a.jpg,dist2,lure,target,dist1,0,0,0,0,,,,,0,68,68,47,,,,,,,,,,,,,,619.0059731882066,,,,,,,,,,,,,,617.0811185520142,617.0811185520142,617.0811185520142,617.0811185520142,617.0811185520142,617.0811185520142,left,None,1.8862314838916063,,,,,,,,,,,,,,ST02_112822,2022-11-29_11h09.24.884,Hippopolis_Learning,2022.2.2,59.09473192939509,
Hippopolis,stimuli/subj_files/ST02_112822_cityA.csv,./stimuli/seattle.jpg,./stimuli/street_plate1.png,./stimuli/videos/hippopolis_part1.mp4,LÉTRA UTCA,stimuli/objects/048a.jpg,object,1,stimuli/objects/005a.jpg,stimuli/scenes/039b.jpg,stimuli/objects/005b.jpg,stimuli/scenes/039a.jpg,stimuli/objects/005a.jpg,dist2,lure,dist1,target,0,0,0,0,,,,,0,69,69,7,,,,,,,,,,,,,,621.5505002848804,,,,,,,,,,,,,,620.0394897256047,620.0394897256047,620.0394897256047,620.0394897256047,620.0394897256047,620.0394897256047,left,None,1.4725105669349432,,,,,,,,,,,,,,ST02_112822,2022-11-29_11h09.24.884,Hippopolis_Learning,2022.2.2,59.09473192939509,
Hippopolis,stimuli/subj_files/ST02_112822_cityA.csv,./stimuli/seattle.jpg,./stimuli/street_plate1.png,./stimuli/videos/hippopolis_part1.mp4,ÜVEG UTCA,stimuli/scenes/006a.jpg,scene,2,stimuli/objects/042a.jpg,stimuli/objects/042b.jpg,stimuli/objects/116a.jpg,stimuli/objects/116b.jpg,stimuli/objects/042a.jpg,lure,dist1,dist2,target,0,0,0,0,,,,,0,70,70,52,,,,,,,,,,,,,,624.1857989504933,,,,,,,,,,,,,,622.5801693610847,622.5801693610847,622.5801693610847,622.5801693610847,622.5801693610847,622.5801693610847,left,None,1.5717950034886599,,,,,,,,,,,,,,ST02_112822,2022-11-29_11h09.24.884,Hippopolis_Learning,2022.2.2,59.09473192939509,
Hippopolis,stimuli/subj_files/ST02_112822_cityA.csv,./stimuli/seattle.jpg,./stimuli/street_plate1.png,./stimuli/videos/hippopolis_part1.mp4,LABDA UTCA,stimuli/scenes/058a.jpg,scene,1,stimuli/scenes/055a.jpg,stimuli/scenes/091b.jpg,stimuli/scenes/091a.jpg,stimuli/scenes/055b.jpg,stimuli/scenes/055a.jpg,dist2,dist1,lure,target,0,0,0,0,,,,,0,71,71,75,,,,,,,,,,,,,,626.4201724343002,,,,,,,,,,,,,,625.2058647722006,625.2058647722006,625.2058647722006,625.2058647722006,625.2058647722006,625.2058647722006,left,None,1.170056227594614,,,,,,,,,,,,,,ST02_112822,2022-11-29_11h09.24.884,Hippopolis_Learning,2022.2.2,59.09473192939509,
Hippopolis,stimuli/subj_files/ST02_112822_cityA.csv,./stimuli/seattle.jpg,./stimuli/street_plate1.png,./stimuli/videos/hippopolis_part1.mp4,ECSET UTCA,stimuli/objects/025a.jpg,object,0,stimuli/objects/025a.jpg,stimuli/objects/025b.jpg,stimuli/scenes/052b.jpg,stimuli/objects/025a.jpg,stimuli/scenes/052a.jpg,lure,dist2,target,dist1,0,0,0,0,,,,,0,72,72,8,,,,,,,,,,,,,,628.4034835193306,,,,,,,,,,,,,,627.4513554889709,627.4513554889709,627.4513554889709,627.4513554889709,627.4513554889709,627.4513554889709,left,None,0.9079285338521004,,,,,,,,,,,,,,ST02_112822,2022-11-29_11h09.24.884,Hippopolis_Learning,2022.2.2,59.09473192939509,
Hippopolis,stimuli/subj_files/ST02_112822_cityA.csv,./stimuli/seattle.jpg,./stimuli/street_plate1.png,./stimuli/videos/hippopolis_part1.mp4,KORONA UTCA,stimuli/scenes/115a.jpg,scene,1,stimuli/scenes/044a.jpg,stimuli/scenes/070b.jpg,stimuli/scenes/044b.jpg,stimuli/scenes/070a.jpg,stimuli/scenes/044a.jpg,dist2,lure,dist1,target,0,0,0,0,,,,,0,73,73,12,,,,,,,,,,,,,,630.4797861389816,,,,,,,,,,,,,,629.4221622534096,629.4221622534096,629.4221622534096,629.4221622534096,629.4221622534096,629.4221622534096,left,None,1.0173701271414757,,,,,,,,,,,,,,ST02_112822,2022-11-29_11h09.24.884,Hippopolis_Learning,2022.2.2,59.09473192939509,
Hippopolis,stimuli/subj_files/ST02_112822_cityA.csv,./stimuli/seattle.jpg,./stimuli/street_plate1.png,./stimuli/videos/hippopolis_part1.mp4,SZÖCSKE UTCA,stimuli/objects/081a.jpg,object,1,stimuli/objects/038a.jpg,stimuli/scenes/099a.jpg,stimuli/objects/038b.jpg,stimuli/objects/038a.jpg,stimuli/scenes/099b.jpg,dist1,lure,target,dist2,0,0,0,0,,,,,0,74,74,66,,,,,,,,,,,,,,632.5845993366092,,,,,,,,,,,,,,631.5085952822119,631.5085952822119,631.5085952822119,631.5085952822119,631.5085952822119,631.5085952822119,left,None,1.0273907538503408,,,,,,,,,,,,,,ST02_112822,2022-11-29_11h09.24.884,Hippopolis_Learning,2022.2.2,59.09473192939509,
Hippopolis,stimuli/subj_files/ST02_112822_cityA.csv,./stimuli/seattle.jpg,./stimuli/street_plate1.png,./stimuli/videos/hippopolis_part1.mp4,OLDAL UTCA,stimuli/scenes/087a.jpg,scene,2,stimuli/objects/086a.jpg,stimuli/objects/086b.jpg,stimuli/objects/046a.jpg,stimuli/objects/046b.jpg,stimuli/objects/086a.jpg,lure,dist1,dist2,target,0,0,0,0,,,,,0,75,75,61,,,,,,,,,,,,,,635.1085306555033,,,,,,,,,,,,,,633.614506021142,633.614506021142,633.614506021142,633.614506021142,633.614506021142,633.614506021142,right,None,1.448843289166689,,,,,,,,,,,,,,ST02_112822,2022-11-29_11h09.24.884,Hippopolis_Learning,2022.2.2,59.09473192939509,
Hippopolis,stimuli/subj_files/ST02_112822_cityA.csv,./stimuli/seattle.jpg,./stimuli/street_plate1.png,./stimuli/videos/hippopolis_part1.mp4,TÁNYÉR UTCA,stimuli/objects/105a.jpg,object,0,stimuli/objects/105a.jpg,stimuli/scenes/048b.jpg,stimuli/objects/105b.jpg,stimuli/scenes/048a.jpg,stimuli/objects/105a.jpg,dist2,lure,dist1,target,0,0,0,0,,,,,0,76,76,36,,,,,,,,,,,,,,638.1435658372939,,,,,,639.1655163578689,,,,,,,,636.1424312852323,636.1424312852323,636.1424312852323,636.1424312852323,636.1424312852323,636.1424312852323,left,None,1.9448568113148212,,,,,,,,,,,,,,ST02_112822,2022-11-29_11h09.24.884,Hippopolis_Learning,2022.2.2,59.09473192939509,
Hippopolis,stimuli/subj_files/ST02_112822_cityA.csv,./stimuli/seattle.jpg,./stimuli/street_plate1.png,./stimuli/videos/hippopolis_part1.mp4,MENTA UTCA,stimuli/objects/058a.jpg,object,2,stimuli/scenes/090a.jpg,stimuli/scenes/090a.jpg,stimuli/scenes/090b.jpg,stimuli/scenes/046a.jpg,stimuli/scenes/046b.jpg,target,lure,dist1,dist2,0,0,0,0,,,,,0,77,77,51,,,,,,,,,,,,,,640.8407613057643,,,,,,,,,,,,,,639.1655163578689,639.1655163578689,639.1655163578689,639.1655163578689,639.1655163578689,639.1655163578689,left,None,1.6423275209963322,,,,,,,,,,,,,,ST02_112822,2022-11-29_11h09.24.884,Hippopolis_Learning,2022.2.2,59.09473192939509,
Hippopolis,stimuli/subj_files/ST02_112822_cityA.csv,./stimuli/seattle.jpg,./stimuli/street_plate1.png,./stimuli/videos/hippopolis_part1.mp4,TULIPÁN UTCA,stimuli/scenes/094a.jpg,scene,0,stimuli/scenes/094a.jpg,stimuli/scenes/014a.jpg,stimuli/scenes/094b.jpg,stimuli/scenes/014b.jpg,stimuli/scenes/094a.jpg,dist1,lure,dist2,target,0,0,0,0,,,,,0,78,78,62,,,,,,,,,,,,,,643.422650532797,,,,,,,,,,,,,,641.8729961849749,641.8729961849749,641.8729961849749,641.8729961849749,641.8729961849749,641.8729961849749,right,None,1.511079402640462,,,,,,,,,,,,,,ST02_112822,2022-11-29_11h09.24.884,Hippopolis_Learning,2022.2.2,59.09473192939509,
Hippopolis,stimuli/subj_files/ST02_112822_cityA.csv,./stimuli/seattle.jpg,./stimuli/street_plate1.png,./stimuli/videos/hippopolis_part1.mp4,AJÁNDÉK UTCA,stimuli/scenes/042a.jpg,scene,2,stimuli/objects/022a.jpg,stimuli/objects/022b.jpg,stimuli/objects/011b.jpg,stimuli/objects/022a.jpg,stimuli/objects/011a.jpg,lure,dist2,target,dist1,0,0,0,0,,,,,0,79,79,45,,,,,,,,,,,,,,646.7638808358461,,,,,,,,,,,,,,644.4485209770501,644.4485209770501,644.4485209770501,644.4485209770501,644.4485209770501,644.4485209770501,left,None,2.279206097126007,,,,,,,,,,,,,,ST02_112822,2022-11-29_11h09.24.884,Hippopolis_Learning,2022.2.2,59.09473192939509,
Camponello,stimuli/subj_files/ST02_112822_cityB.csv,./stimuli/arnedillo.png,./stimuli/street_plate2.png,./stimuli/videos/camponello_part1.mp4,KESZTYŰ UTCA,stimuli/objects/033a.jpg,object,0,stimuli/objects/033a.jpg,stimuli/objects/033b.jpg,stimuli/objects/027b.jpg,stimuli/objects/033a.jpg,stimuli/objects/027a.jpg,lure,dist2,target,dist1,0,1,1,1,0,0,0,37,,,,,,,,,651.0226975567639,651.0226975567639,0.08485156297683716,654.162444235757,654.162444235757,space,654.9054882675409,654.9054882675409,657.8528622537851,660.8952368739992,661.9104441534728,661.9104441534728,661.9104441534728,661.9104441534728,None,,,,,,,,,,,,,,,,,,,,,,,,5,647.7790542170405,647.7790542170405,space,3.139949254691601,0.10140996426343918,,ST02_112822,2022-11-29_11h09.24.884,Hippopolis_Learning,2022.2.2,59.09473192939509,
