CityName,StimuliFile,CityImage,StreetSign,VideoFile,Cue,Image,Category,Novelty,UpdateImage,TestImage1,TestImage2,TestImage3,TestImage4,TestImage1Type,TestImage2Type,TestImage3Type,TestImage4Type,CityBlock.thisRepN,CityBlock.thisTrialN,CityBlock.thisN,CityBlock.thisIndex,LearningTrials.thisRepN,LearningTrials.thisTrialN,LearningTrials.thisN,LearningTrials.thisIndex,learning_instructions_text.started,intro_key.started,intro_key.keys,intro_key.rt,cityname_text.started,city_image.started,fx_cross.started,plate_updating.started,city_text_updating.started,street_text_updating.started,test_image1.started,test_image2.started,test_image3.started,test_image4.started,button_d.started,button_f.started,button_j.started,button_k.started,key_resp.started,key_resp.keys,key_resp.rt,test_resp,short_break_key.keys,fx_cross.stopped,clock0.started,short_break_text.started,short_break_key.started,short_break_key.rt,clock0.stopped,n_targets,n_lures,n_dist1s,n_dist2s,break_text.started,break_key_resp.started,break_key_resp.keys,break_key_resp.rt,end_text.started,end_text.stopped,participant,date,expName,psychopyVersion,frameRate,
,,,,,,,,,,,,,,,,,,,,,,,,,,18.789285706356168,18.789285706356168,space,4.496112706139684,,,,,,,,,,,,,,,,,,,,,,,,,,,,,,,,,,,,ST02_112822,2022-11-29_12h09.25.884,Hippopolis_4AFCT,2022.2.2,60.00097052832705,
Camponello,stimuli/subj_files/ST02_112822_cityB.csv,./stimuli/arnedillo.png,./stimuli/street_plate2.png,./stimuli/videos/camponello_part1.mp4,MARTINI UTCA,stimuli/objects/097a.jpg,object,1,stimuli/objects/052a.jpg,stimuli/objects/052b.jpg,stimuli/objects/052a.jpg,stimuli/objects/102a.jpg,stimuli/objects/102b.jpg,lure,target,dist1,dist2,0,0,0,1,0,0,0,56,,,,,23.397555427625775,23.397555427625775,26.35788220912218,27.410943631082773,27.410943631082773,27.410943631082773,27.410943631082773,27.410943631082773,27.410943631082773,27.410943631082773,27.410943631082773,27.410943631082773,27.410943631082773,27.410943631082773,27.410943631082773,j,3.009706174954772,dist1,None,,,,,,,,,,,,,,,,,ST02_112822,2022-11-29_12h09.25.884,Hippopolis_4AFCT,2022.2.2,60.00097052832705,
Camponello,stimuli/subj_files/ST02_112822_cityB.csv,./stimuli/arnedillo.png,./stimuli/street_plate2.png,./stimuli/videos/camponello_part1.mp4,DOMINÓ UTCA,stimuli/scenes/034a.jpg,scene,2,stimuli/objects/036a.jpg,stimuli/objects/036b.jpg,stimuli/objects/036a.jpg,stimuli/objects/080b.jpg,stimuli/objects/080a.jpg,lure,target,dist2,dist1,0,0,0,1,0,1,1,38,,,,,,,30.44798729196191,31.554216500371695,31.554216500371695,31.554216500371695,31.554216500371695,31.554216500371695,31.554216500371695,31.554216500371695,31.554216500371695,31.554216500371695,31.554216500371695,31.554216500371695,31.554216500371695,f,2.8500553965568542,target,None,,,,,,,,,,,,,,,,,ST02_112822,2022-11-29_12h09.25.884,Hippopolis_4AFCT,2022.2.2,60.00097052832705,
Camponello,stimuli/subj_files/ST02_112822_cityB.csv,./stimuli/arnedillo.png,./stimuli/street_plate2.png,./stimuli/videos/camponello_part1.mp4,TALICSKA UTCA,stimuli/scenes/026a.jpg,scene,0,stimuli/scenes/026a.jpg,stimuli/scenes/033b.jpg,stimuli/scenes/026b.jpg,stimuli/scenes/033a.jpg,stimuli/scenes/026a.jpg,dist2,lure,dist1,target,0,0,0,1,0,2,2,21,,,,,,,34.44097347557545,35.50745948962867,35.50745948962867,35.50745948962867,35.50745948962867,35.50745948962867,35.50745948962867,35.50745948962867,35.50745948962867,35.50745948962867,35.50745948962867,35.50745948962867,35.50745948962867,k,2.273638639599085,target,None,,,,,,,,,,,,,,,,,ST02_112822,2022-11-29_12h09.25.884,Hippopolis_4AFCT,2022.2.2,60.00097052832705,
Camponello,stimuli/subj_files/ST02_112822_cityB.csv,./stimuli/arnedillo.png,./stimuli/street_plate2.png,./stimuli/videos/camponello_part1.mp4,NARANCS UTCA,stimuli/objects/093a.jpg,object,2,stimuli/scenes/064a.jpg,stimuli/scenes/064a.jpg,stimuli/objects/043b.jpg,stimuli/objects/043a.jpg,stimuli/scenes/064b.jpg,target,dist2,dist1,lure,0,0,0,1,0,3,3,27,,,,,,,37.80937454290688,38.88425897248089,38.88425897248089,38.88425897248089,38.88425897248089,38.88425897248089,38.88425897248089,38.88425897248089,38.88425897248089,38.88425897248089,38.88425897248089,38.88425897248089,38.88425897248089,d,2.5126237254589796,target,None,,,,,,,,,,,,,,,,,ST02_112822,2022-11-29_12h09.25.884,Hippopolis_4AFCT,2022.2.2,60.00097052832705,
Camponello,stimuli/subj_files/ST02_112822_cityB.csv,./stimuli/arnedillo.png,./stimuli/street_plate2.png,./stimuli/videos/camponello_part1.mp4,PIZSAMA UTCA,stimuli/objects/004a.jpg,object,0,stimuli/objects/004a.jpg,stimuli/objects/004a.jpg,stimuli/scenes/104a.jpg,stimuli/objects/004b.jpg,stimuli/scenes/104b.jpg,target,dist1,lure,dist2,0,0,0,1,0,4,4,59,,,,,,,41.43175338022411,42.503882294520736,42.503882294520736,42.503882294520736,42.503882294520736,42.503882294520736,42.503882294520736,42.503882294520736,42.503882294520736,42.503882294520736,42.503882294520736,42.503882294520736,42.503882294520736,f,2.477255145087838,dist1,None,,,,,,,,,,,,,,,,,ST02_112822,2022-11-29_12h09.25.884,Hippopolis_4AFCT,2022.2.2,60.00097052832705,
Camponello,stimuli/subj_files/ST02_112822_cityB.csv,./stimuli/arnedillo.png,./stimuli/street_plate2.png,./stimuli/videos/camponello_part1.mp4,SÜTEMÉNY UTCA,stimuli/scenes/102a.jpg,scene,0,stimuli/scenes/102a.jpg,stimuli/scenes/102a.jpg,stimuli/scenes/102b.jpg,stimuli/scenes/089b.jpg,stimuli/scenes/089a.jpg,target,lure,dist2,dist1,0,0,0,1,0,5,5,62,,,,,,,45.00778604671359,46.05376865155995,46.05376865155995,46.05376865155995,46.05376865155995,46.05376865155995,46.05376865155995,46.05376865155995,46.05376865155995,46.05376865155995,46.05376865155995,46.05376865155995,46.05376865155995,d,2.0626326203346252,target,None,,,,,,,,,,,,,,,,,ST02_112822,2022-11-29_12h09.25.884,Hippopolis_4AFCT,2022.2.2,60.00097052832705,
Camponello,stimuli/subj_files/ST02_112822_cityB.csv,./stimuli/arnedillo.png,./stimuli/street_plate2.png,./stimuli/videos/camponello_part1.mp4,PÁFRÁNY UTCA,stimuli/scenes/013a.jpg,scene,0,stimuli/scenes/013a.jpg,stimuli/scenes/026b.jpg,stimuli/scenes/026a.jpg,stimuli/scenes/013b.jpg,stimuli/scenes/013a.jpg,dist2,dist1,lure,target,0,0,0,1,0,6,6,28,,,,,,,48.13437839783728,49.20029806904495,49.20029806904495,49.20029806904495,49.20029806904495,49.20029806904495,49.20029806904495,49.20029806904495,49.20029806904495,49.20029806904495,49.20029806904495,49.20029806904495,49.20029806904495,k,2.5800356045365334,target,None,,,,,,,,,,,,,,,,,ST02_112822,2022-11-29_12h09.25.884,Hippopolis_4AFCT,2022.2.2,60.00097052832705,
Camponello,stimuli/subj_files/ST02_112822_cityB.csv,./stimuli/arnedillo.png,./stimuli/street_plate2.png,./stimuli/videos/camponello_part1.mp4,SZŐLŐ UTCA,stimuli/objects/031a.jpg,object,0,stimuli/objects/031a.jpg,stimuli/scenes/097a.jpg,stimuli/scenes/097b.jpg,stimuli/objects/031b.jpg,stimuli/objects/031a.jpg,dist1,dist2,lure,target,0,0,0,1,0,7,7,46,,,,,,,51.79772051051259,52.83618609234691,52.83618609234691,52.83618609234691,52.83618609234691,52.83618609234691,52.83618609234691,52.83618609234691,52.83618609234691,52.83618609234691,52.83618609234691,52.83618609234691,52.83618609234691,j,2.8324636314064264,lure,None,,,,,,,,,,,,,,,,,ST02_112822,2022-11-29_12h09.25.884,Hippopolis_4AFCT,2022.2.2,60.00097052832705,
Camponello,stimuli/subj_files/ST02_112822_cityB.csv,./stimuli/arnedillo.png,./stimuli/street_plate2.png,./stimuli/videos/camponello_part1.mp4,TORONY UTCA,stimuli/scenes/066a.jpg,scene,0,stimuli/scenes/066a.jpg,stimuli/scenes/056b.jpg,stimuli/scenes/056a.jpg,stimuli/scenes/066b.jpg,stimuli/scenes/066a.jpg,dist2,dist1,lure,target,0,0,0,1,0,8,8,76,,,,,,,55.69879684224725,56.77368407137692,56.77368407137692,56.77368407137692,56.77368407137692,56.77368407137692,56.77368407137692,56.77368407137692,56.77368407137692,56.77368407137692,56.77368407137692,56.77368407137692,56.77368407137692,f,2.862858597189188,dist1,None,,,,,,,,,,,,,,,,,ST02_112822,2022-11-29_12h09.25.884,Hippopolis_4AFCT,2022.2.2,60.00097052832705,
Camponello,stimuli/subj_files/ST02_112822_cityB.csv,./stimuli/arnedillo.png,./stimuli/street_plate2.png,./stimuli/videos/camponello_part1.mp4,ZEBRA UTCA,stimuli/scenes/031a.jpg,scene,2,stimuli/objects/110a.jpg,stimuli/scenes/005a.jpg,stimuli/scenes/005b.jpg,stimuli/objects/110b.jpg,stimuli/objects/110a.jpg,dist1,dist2,lure,target,0,0,0,1,0,9,9,58,,,,,,,59.67305110953748,60.754762440919876,60.754762440919876,60.754762440919876,60.754762440919876,60.754762440919876,60.754762440919876,60.754762440919876,60.754762440919876,60.754762440919876,60.754762440919876,60.754762440919876,60.754762440919876,j,3.073972223326564,lure,None,60.754762440919876,,,,,,,,,,,,,,,,ST02_112822,2022-11-29_12h09.25.884,Hippopolis_4AFCT,2022.2.2,60.00097052832705,
Camponello,stimuli/subj_files/ST02_112822_cityB.csv,./stimuli/arnedillo.png,./stimuli/street_plate2.png,./stimuli/videos/camponello_part1.mp4,FOGAS UTCA,stimuli/scenes/060a.jpg,scene,0,stimuli/scenes/060a.jpg,stimuli/scenes/060a.jpg,stimuli/objects/045a.jpg,stimuli/objects/045b.jpg,stimuli/scenes/060b.jpg,target,dist1,dist2,lure,0,0,0,1,0,10,10,61,,,,,,,63.84741466678679,64.91813099011779,64.91813099011779,64.91813099011779,64.91813099011779,64.91813099011779,64.91813099011779,64.91813099011779,64.91813099011779,64.91813099011779,64.91813099011779,64.91813099011779,64.91813099011779,None,,invalid,None,,68.34854424186051,,,,,,,,,,,,,,,ST02_112822,2022-11-29_12h09.25.884,Hippopolis_4AFCT,2022.2.2,60.00097052832705,
Camponello,stimuli/subj_files/ST02_112822_cityB.csv,./stimuli/arnedillo.png,./stimuli/street_plate2.png,./stimuli/videos/camponello_part1.mp4,REPÜLŐ UTCA,stimuli/objects/119a.jpg,object,2,stimuli/scenes/101a.jpg,stimuli/objects/084a.jpg,stimuli/scenes/101a.jpg,stimuli/objects/084b.jpg,stimuli/scenes/101b.jpg,dist1,target,dist2,lure,0,0,0,1,0,11,11,4,,,,,,,69.84898307174444,70.90988061204553,70.90988061204553,70.90988061204553,70.90988061204553,70.90988061204553,70.90988061204553,70.90988061204553,70.90988061204553,70.90988061204553,70.90988061204553,70.90988061204553,70.90988061204553,f,2.5182765778154135,target,None,,,,,,,,,,,,,,,,,ST02_112822,2022-11-29_12h09.25.884,Hippopolis_4AFCT,2022.2.2,60.00097052832705,
Camponello,stimuli/subj_files/ST02_112822_cityB.csv,./stimuli/arnedillo.png,./stimuli/street_plate2.png,./stimuli/videos/camponello_part1.mp4,FOLYÓ UTCA,stimuli/scenes/098a.jpg,scene,0,stimuli/scenes/098a.jpg,stimuli/scenes/098a.jpg,stimuli/scenes/030a.jpg,stimuli/scenes/098b.jpg,stimuli/scenes/030b.jpg,target,dist1,lure,dist2,0,0,0,1,0,12,12,70,,,,,,,73.44755934737623,74.5244143139571,74.5244143139571,74.5244143139571,74.5244143139571,74.5244143139571,74.5244143139571,74.5244143139571,74.5244143139571,74.5244143139571,74.5244143139571,74.5244143139571,74.5244143139571,d,3.368522334843874,target,None,,,,,,,,,,,,,,,,,ST02_112822,2022-11-29_12h09.25.884,Hippopolis_4AFCT,2022.2.2,60.00097052832705,
Camponello,stimuli/subj_files/ST02_112822_cityB.csv,./stimuli/arnedillo.png,./stimuli/street_plate2.png,./stimuli/videos/camponello_part1.mp4,KERET UTCA,stimuli/objects/009a.jpg,object,0,stimuli/objects/009a.jpg,stimuli/objects/066a.jpg,stimuli/objects/009b.jpg,stimuli/objects/066b.jpg,stimuli/objects/009a.jpg,dist1,lure,dist2,target,0,0,0,1,0,13,13,41,,,,,,,77.9129888098687,79.00067332945764,79.00067332945764,79.00067332945764,79.00067332945764,79.00067332945764,79.00067332945764,79.00067332945764,79.00067332945764,79.00067332945764,79.00067332945764,79.00067332945764,79.00067332945764,f,2.98734481446445,lure,None,,,,,,,,,,,,,,,,,ST02_112822,2022-11-29_12h09.25.884,Hippopolis_4AFCT,2022.2.2,60.00097052832705,
Camponello,stimuli/subj_files/ST02_112822_cityB.csv,./stimuli/arnedillo.png,./stimuli/street_plate2.png,./stimuli/videos/camponello_part1.mp4,ASZTAL UTCA,stimuli/objects/049a.jpg,object,0,stimuli/objects/049a.jpg,stimuli/objects/090b.jpg,stimuli/objects/049b.jpg,stimuli/objects/049a.jpg,stimuli/objects/090a.jpg,dist2,lure,target,dist1,0,0,0,1,0,14,14,15,,,,,,,82.01719274558127,83.12539435736835,83.12539435736835,83.12539435736835,83.12539435736835,83.12539435736835,83.12539435736835,83.12539435736835,83.12539435736835,83.12539435736835,83.12539435736835,83.12539435736835,83.12539435736835,j,3.3109018709510565,target,None,,,,,,,,,,,,,,,,,ST02_112822,2022-11-29_12h09.25.884,Hippopolis_4AFCT,2022.2.2,60.00097052832705,
Camponello,stimuli/subj_files/ST02_112822_cityB.csv,./stimuli/arnedillo.png,./stimuli/street_plate2.png,./stimuli/videos/camponello_part1.mp4,MOCSÁR UTCA,stimuli/objects/037a.jpg,object,0,stimuli/objects/037a.jpg,stimuli/scenes/109b.jpg,stimuli/scenes/109a.jpg,stimuli/objects/037b.jpg,stimuli/objects/037a.jpg,dist2,dist1,lure,target,0,0,0,1,0,15,15,14,,,,,,,86.47729529067874,87.56134290248156,87.56134290248156,87.56134290248156,87.56134290248156,87.56134290248156,87.56134290248156,87.56134290248156,87.56134290248156,87.56134290248156,87.56134290248156,87.56134290248156,87.56134290248156,k,3.963238086551428,target,None,,90.98777900449932,,,,,,,,,,,,,,,ST02_112822,2022-11-29_12h09.25.884,Hippopolis_4AFCT,2022.2.2,60.00097052832705,
Camponello,stimuli/subj_files/ST02_112822_cityB.csv,./stimuli/arnedillo.png,./stimuli/street_plate2.png,./stimuli/videos/camponello_part1.mp4,KÍGYÓ UTCA,stimuli/scenes/030a.jpg,scene,0,stimuli/scenes/030a.jpg,stimuli/scenes/030a.jpg,stimuli/scenes/057a.jpg,stimuli/scenes/057b.jpg,stimuli/scenes/030b.jpg,target,dist1,dist2,lure,0,0,0,1,0,16,16,64,,,,,,,91.54915922693908,92.60455008596182,92.60455008596182,92.60455008596182,92.60455008596182,92.60455008596182,92.60455008596182,92.60455008596182,92.60455008596182,92.60455008596182,92.60455008596182,92.60455008596182,92.60455008596182,d,2.823116023093462,target,None,,,,,,,,,,,,,,,,,ST02_112822,2022-11-29_12h09.25.884,Hippopolis_4AFCT,2022.2.2,60.00097052832705,
Camponello,stimuli/subj_files/ST02_112822_cityB.csv,./stimuli/arnedillo.png,./stimuli/street_plate2.png,./stimuli/videos/camponello_part1.mp4,MAJOM UTCA,stimuli/objects/010a.jpg,object,1,stimuli/objects/102a.jpg,stimuli/scenes/086b.jpg,stimuli/objects/102a.jpg,stimuli/objects/102b.jpg,stimuli/scenes/086a.jpg,dist2,target,lure,dist1,0,0,0,1,0,17,17,55,,,,,,,95.45214824564755,96.52087723836303,96.52087723836303,96.52087723836303,96.52087723836303,96.52087723836303,96.52087723836303,96.52087723836303,96.52087723836303,96.52087723836303,96.52087723836303,96.52087723836303,96.52087723836303,k,4.171075884252787,dist1,None,,99.9465911835432,,,,,,,,,,,,,,,ST02_112822,2022-11-29_12h09.25.884,Hippopolis_4AFCT,2022.2.2,60.00097052832705,
Camponello,stimuli/subj_files/ST02_112822_cityB.csv,./stimuli/arnedillo.png,./stimuli/street_plate2.png,./stimuli/videos/camponello_part1.mp4,TELEP UTCA,stimuli/scenes/033a.jpg,scene,0,stimuli/scenes/033a.jpg,stimuli/scenes/033b.jpg,stimuli/objects/018a.jpg,stimuli/objects/018b.jpg,stimuli/scenes/033a.jpg,lure,dist1,dist2,target,0,0,0,1,0,18,18,67,,,,,,,100.73038140684366,101.78812689706683,101.78812689706683,101.78812689706683,101.78812689706683,101.78812689706683,101.78812689706683,101.78812689706683,101.78812689706683,101.78812689706683,101.78812689706683,101.78812689706683,101.78812689706683,k,4.72816670499742,target,None,,105.22409814409912,,,,,,,,,,,,,,,ST02_112822,2022-11-29_12h09.25.884,Hippopolis_4AFCT,2022.2.2,60.00097052832705,
Camponello,stimuli/subj_files/ST02_112822_cityB.csv,./stimuli/arnedillo.png,./stimuli/street_plate2.png,./stimuli/videos/camponello_part1.mp4,MOGYORÓ UTCA,stimuli/objects/088a.jpg,object,1,stimuli/objects/056a.jpg,stimuli/objects/056a.jpg,stimuli/objects/052b.jpg,stimuli/objects/052a.jpg,stimuli/objects/056b.jpg,target,dist2,dist1,lure,0,0,0,1,0,19,19,53,,,,,,,106.54936573468149,107.61741393245757,107.61741393245757,107.61741393245757,107.61741393245757,107.61741393245757,107.61741393245757,107.61741393245757,107.61741393245757,107.61741393245757,107.61741393245757,107.61741393245757,107.61741393245757,d,3.5388359650969505,target,None,107.61741393245757,111.0403726734221,,,,,,,,,,,,,,,ST02_112822,2022-11-29_12h09.25.884,Hippopolis_4AFCT,2022.2.2,60.00097052832705,
Camponello,stimuli/subj_files/ST02_112822_cityB.csv,./stimuli/arnedillo.png,./stimuli/street_plate2.png,./stimuli/videos/camponello_part1.mp4,KECSKE UTCA,stimuli/objects/016a.jpg,object,0,stimuli/objects/016a.jpg,stimuli/objects/016a.jpg,stimuli/objects/114b.jpg,stimuli/objects/114a.jpg,stimuli/objects/016b.jpg,target,dist2,dist1,lure,0,0,0,1,0,20,20,33,,,,,,,111.18060701154172,112.27340416423976,112.27340416423976,112.27340416423976,112.27340416423976,112.27340416423976,112.27340416423976,112.27340416423976,112.27340416423976,112.27340416423976,112.27340416423976,112.27340416423976,112.27340416423976,d,2.4670109059661627,target,None,,,,,,,,,,,,,,,,,ST02_112822,2022-11-29_12h09.25.884,Hippopolis_4AFCT,2022.2.2,60.00097052832705,
Camponello,stimuli/subj_files/ST02_112822_cityB.csv,./stimuli/arnedillo.png,./stimuli/street_plate2.png,./stimuli/videos/camponello_part1.mp4,HORDÓ UTCA,stimuli/scenes/076a.jpg,scene,0,stimuli/scenes/076a.jpg,stimuli/objects/016a.jpg,stimuli/scenes/076b.jpg,stimuli/scenes/076a.jpg,stimuli/objects/016b.jpg,dist1,lure,target,dist2,0,0,0,1,0,21,21,72,,,,,,,114.76388363726437,115.82480543479323,115.82480543479323,115.82480543479323,115.82480543479323,115.82480543479323,115.82480543479323,115.82480543479323,115.82480543479323,115.82480543479323,115.82480543479323,115.82480543479323,115.82480543479323,j,3.730611216276884,target,None,,119.26479270868003,,,,,,,,,,,,,,,ST02_112822,2022-11-29_12h09.25.884,Hippopolis_4AFCT,2022.2.2,60.00097052832705,
Camponello,stimuli/subj_files/ST02_112822_cityB.csv,./stimuli/arnedillo.png,./stimuli/street_plate2.png,./stimuli/videos/camponello_part1.mp4,VÖDÖR UTCA,stimuli/objects/027a.jpg,object,0,stimuli/objects/027a.jpg,stimuli/scenes/020a.jpg,stimuli/scenes/020b.jpg,stimuli/objects/027a.jpg,stimuli/objects/027b.jpg,dist1,dist2,target,lure,0,0,0,1,0,22,22,60,,,,,,,119.58317150734365,120.65177889540792,120.65177889540792,120.65177889540792,120.65177889540792,120.65177889540792,120.65177889540792,120.65177889540792,120.65177889540792,120.65177889540792,120.65177889540792,120.65177889540792,120.65177889540792,d,3.799789300188422,dist1,None,,124.08097300305963,,,,,,,,,,,,,,,ST02_112822,2022-11-29_12h09.25.884,Hippopolis_4AFCT,2022.2.2,60.00097052832705,
Camponello,stimuli/subj_files/ST02_112822_cityB.csv,./stimuli/arnedillo.png,./stimuli/street_plate2.png,./stimuli/videos/camponello_part1.mp4,SZIKLA UTCA,stimuli/scenes/012a.jpg,scene,1,stimuli/scenes/116a.jpg,stimuli/objects/056a.jpg,stimuli/scenes/116b.jpg,stimuli/objects/056b.jpg,stimuli/scenes/116a.jpg,dist1,lure,dist2,target,0,0,0,1,0,23,23,34,,,,,,,124.47178736701608,125.56773905828595,125.56773905828595,125.56773905828595,125.56773905828595,125.56773905828595,125.56773905828595,125.56773905828595,125.56773905828595,125.56773905828595,125.56773905828595,125.56773905828595,125.56773905828595,k,3.65210947021842,target,None,,128.96434094011784,,,,,,,,,,,,,,,ST02_112822,2022-11-29_12h09.25.884,Hippopolis_4AFCT,2022.2.2,60.00097052832705,
Camponello,stimuli/subj_files/ST02_112822_cityB.csv,./stimuli/arnedillo.png,./stimuli/street_plate2.png,./stimuli/videos/camponello_part1.mp4,SZOBOR UTCA,stimuli/objects/114a.jpg,object,0,stimuli/objects/114a.jpg,stimuli/objects/113a.jpg,stimuli/objects/113b.jpg,stimuli/objects/114b.jpg,stimuli/objects/114a.jpg,dist1,dist2,lure,target,0,0,0,1,0,24,24,18,,,,,,,129.2496805973351,130.3198427055031,130.3198427055031,130.3198427055031,130.3198427055031,130.3198427055031,130.3198427055031,130.3198427055031,130.3198427055031,130.3198427055031,130.3198427055031,130.3198427055031,130.3198427055031,d,3.5394110176712275,dist1,None,130.3198427055031,133.75860430300236,,,,,,,,,,,,,,,ST02_112822,2022-11-29_12h09.25.884,Hippopolis_4AFCT,2022.2.2,60.00097052832705,
Camponello,stimuli/subj_files/ST02_112822_cityB.csv,./stimuli/arnedillo.png,./stimuli/street_plate2.png,./stimuli/videos/camponello_part1.mp4,KORONG UTCA,stimuli/objects/112a.jpg,object,0,stimuli/objects/112a.jpg,stimuli/scenes/054b.jpg,stimuli/objects/112a.jpg,stimuli/scenes/054a.jpg,stimuli/objects/112b.jpg,dist2,target,dist1,lure,0,0,0,1,0,25,25,25,,,,,,,133.88803023658693,134.96334883011878,134.96334883011878,134.96334883011878,134.96334883011878,134.96334883011878,134.96334883011878,134.96334883011878,134.96334883011878,134.96334883011878,134.96334883011878,134.96334883011878,134.96334883011878,d,2.912778854370117,dist2,None,,,,,,,,,,,,,,,,,ST02_112822,2022-11-29_12h09.25.884,Hippopolis_4AFCT,2022.2.2,60.00097052832705,
Camponello,stimuli/subj_files/ST02_112822_cityB.csv,./stimuli/arnedillo.png,./stimuli/street_plate2.png,./stimuli/videos/camponello_part1.mp4,POGÁCSA UTCA,stimuli/scenes/019a.jpg,scene,1,stimuli/scenes/040a.jpg,stimuli/scenes/040b.jpg,stimuli/scenes/040a.jpg,stimuli/scenes/075b.jpg,stimuli/scenes/075a.jpg,lure,target,dist2,dist1,0,0,0,1,0,26,26,3,,,,,,,137.8966525774449,138.9462329056114,138.9462329056114,138.9462329056114,138.9462329056114,138.9462329056114,138.9462329056114,138.9462329056114,138.9462329056114,138.9462329056114,138.9462329056114,138.9462329056114,138.9462329056114,f,2.5614486187696457,target,None,,,,,,,,,,,,,,,,,ST02_112822,2022-11-29_12h09.25.884,Hippopolis_4AFCT,2022.2.2,60.00097052832705,
Camponello,stimuli/subj_files/ST02_112822_cityB.csv,./stimuli/arnedillo.png,./stimuli/street_plate2.png,./stimuli/videos/camponello_part1.mp4,VIHAR UTCA,stimuli/objects/054a.jpg,object,0,stimuli/objects/054a.jpg,stimuli/objects/054b.jpg,stimuli/scenes/060a.jpg,stimuli/objects/054a.jpg,stimuli/scenes/060b.jpg,lure,dist1,target,dist2,0,0,0,1,0,27,27,69,,,,,,,141.53179480694234,142.61665569990873,142.61665569990873,142.61665569990873,142.61665569990873,142.61665569990873,142.61665569990873,142.61665569990873,142.61665569990873,142.61665569990873,142.61665569990873,142.61665569990873,142.61665569990873,j,2.923232400789857,target,None,,,,,,,,,,,,,,,,,ST02_112822,2022-11-29_12h09.25.884,Hippopolis_4AFCT,2022.2.2,60.00097052832705,
Camponello,stimuli/subj_files/ST02_112822_cityB.csv,./stimuli/arnedillo.png,./stimuli/street_plate2.png,./stimuli/videos/camponello_part1.mp4,KANÁL UTCA,stimuli/objects/066a.jpg,object,0,stimuli/objects/066a.jpg,stimuli/objects/066a.jpg,stimuli/scenes/079b.jpg,stimuli/objects/066b.jpg,stimuli/scenes/079a.jpg,target,dist2,lure,dist1,0,0,0,1,0,28,28,30,,,,,,,145.56318779103458,146.60767725668848,146.60767725668848,146.60767725668848,146.60767725668848,146.60767725668848,146.60767725668848,146.60767725668848,146.60767725668848,146.60767725668848,146.60767725668848,146.60767725668848,146.60767725668848,k,3.219509219750762,dist1,None,,,,,,,,,,,,,,,,,ST02_112822,2022-11-29_12h09.25.884,Hippopolis_4AFCT,2022.2.2,60.00097052832705,
Camponello,stimuli/subj_files/ST02_112822_cityB.csv,./stimuli/arnedillo.png,./stimuli/street_plate2.png,./stimuli/videos/camponello_part1.mp4,LEMEZ UTCA,stimuli/scenes/041a.jpg,scene,0,stimuli/scenes/041a.jpg,stimuli/objects/030b.jpg,stimuli/objects/030a.jpg,stimuli/scenes/041a.jpg,stimuli/scenes/041b.jpg,dist2,dist1,target,lure,0,0,0,1,0,29,29,51,,,,,,,149.85127736628056,150.8989163916558,150.8989163916558,150.8989163916558,150.8989163916558,150.8989163916558,150.8989163916558,150.8989163916558,150.8989163916558,150.8989163916558,150.8989163916558,150.8989163916558,150.8989163916558,j,3.808929465711117,target,None,,154.3634196780622,,,,,,,,,,,,,,,ST02_112822,2022-11-29_12h09.25.884,Hippopolis_4AFCT,2022.2.2,60.00097052832705,
Camponello,stimuli/subj_files/ST02_112822_cityB.csv,./stimuli/arnedillo.png,./stimuli/street_plate2.png,./stimuli/videos/camponello_part1.mp4,AKÁC UTCA,stimuli/scenes/057a.jpg,scene,0,stimuli/scenes/057a.jpg,stimuli/objects/015a.jpg,stimuli/scenes/057b.jpg,stimuli/objects/015b.jpg,stimuli/scenes/057a.jpg,dist1,lure,dist2,target,0,0,0,1,0,30,30,8,,,,,,,154.73321094363928,155.80390891619027,155.80390891619027,155.80390891619027,155.80390891619027,155.80390891619027,155.80390891619027,155.80390891619027,155.80390891619027,155.80390891619027,155.80390891619027,155.80390891619027,155.80390891619027,None,,invalid,None,,159.23069427907467,,,,,,,,,,,,,,,ST02_112822,2022-11-29_12h09.25.884,Hippopolis_4AFCT,2022.2.2,60.00097052832705,
Camponello,stimuli/subj_files/ST02_112822_cityB.csv,./stimuli/arnedillo.png,./stimuli/street_plate2.png,./stimuli/videos/camponello_part1.mp4,CSAVAR UTCA,stimuli/scenes/020a.jpg,scene,0,stimuli/scenes/020a.jpg,stimuli/objects/065a.jpg,stimuli/objects/065b.jpg,stimuli/scenes/020b.jpg,stimuli/scenes/020a.jpg,dist1,dist2,lure,target,0,0,0,1,0,31,31,10,,,,,,,160.74337121099234,161.80988303758204,161.80988303758204,161.80988303758204,161.80988303758204,161.80988303758204,161.80988303758204,161.80988303758204,161.80988303758204,161.80988303758204,161.80988303758204,161.80988303758204,161.80988303758204,k,2.7218909077346325,target,None,,,,,,,,,,,,,,,,,ST02_112822,2022-11-29_12h09.25.884,Hippopolis_4AFCT,2022.2.2,60.00097052832705,
Camponello,stimuli/subj_files/ST02_112822_cityB.csv,./stimuli/arnedillo.png,./stimuli/street_plate2.png,./stimuli/videos/camponello_part1.mp4,MANDARIN UTCA,stimuli/scenes/092a.jpg,scene,0,stimuli/scenes/092a.jpg,stimuli/scenes/092b.jpg,stimuli/scenes/092a.jpg,stimuli/scenes/002a.jpg,stimuli/scenes/002b.jpg,lure,target,dist1,dist2,0,0,0,1,0,32,32,79,,,,,,,164.5484992712736,165.63970469497144,165.63970469497144,165.63970469497144,165.63970469497144,165.63970469497144,165.63970469497144,165.63970469497144,165.63970469497144,165.63970469497144,165.63970469497144,165.63970469497144,165.63970469497144,f,2.8119555599987507,target,None,,,,,,,,,,,,,,,,,ST02_112822,2022-11-29_12h09.25.884,Hippopolis_4AFCT,2022.2.2,60.00097052832705,
Camponello,stimuli/subj_files/ST02_112822_cityB.csv,./stimuli/arnedillo.png,./stimuli/street_plate2.png,./stimuli/videos/camponello_part1.mp4,TOBOZ UTCA,stimuli/scenes/036a.jpg,scene,0,stimuli/scenes/036a.jpg,stimuli/objects/074b.jpg,stimuli/objects/074a.jpg,stimuli/scenes/036b.jpg,stimuli/scenes/036a.jpg,dist2,dist1,lure,target,0,0,0,1,0,33,33,11,,,,,,,168.48142545484006,169.5430320892483,169.5430320892483,169.5430320892483,169.5430320892483,169.5430320892483,169.5430320892483,169.5430320892483,169.5430320892483,169.5430320892483,169.5430320892483,169.5430320892483,169.5430320892483,k,3.6757857631891966,target,None,,172.99221955426037,,,,,,,,,,,,,,,ST02_112822,2022-11-29_12h09.25.884,Hippopolis_4AFCT,2022.2.2,60.00097052832705,
Camponello,stimuli/subj_files/ST02_112822_cityB.csv,./stimuli/arnedillo.png,./stimuli/street_plate2.png,./stimuli/videos/camponello_part1.mp4,MOSODA UTCA,stimuli/objects/045a.jpg,object,0,stimuli/objects/045a.jpg,stimuli/objects/045b.jpg,stimuli/scenes/050a.jpg,stimuli/objects/045a.jpg,stimuli/scenes/050b.jpg,lure,dist1,target,dist2,0,0,0,1,0,34,34,1,,,,,,,173.24734462797642,174.29974111914635,174.29974111914635,174.29974111914635,174.29974111914635,174.29974111914635,174.29974111914635,174.29974111914635,174.29974111914635,174.29974111914635,174.29974111914635,174.29974111914635,174.29974111914635,j,2.439488084986806,target,None,174.29974111914635,,,,,,,,,,,,,,,,ST02_112822,2022-11-29_12h09.25.884,Hippopolis_4AFCT,2022.2.2,60.00097052832705,
Camponello,stimuli/subj_files/ST02_112822_cityB.csv,./stimuli/arnedillo.png,./stimuli/street_plate2.png,./stimuli/videos/camponello_part1.mp4,SALÁTA UTCA,stimuli/scenes/049a.jpg,scene,1,stimuli/scenes/086a.jpg,stimuli/scenes/086b.jpg,stimuli/scenes/085a.jpg,stimuli/scenes/086a.jpg,stimuli/scenes/085b.jpg,lure,dist1,target,dist2,0,0,0,1,0,35,35,20,,,,,,,176.76789219863713,177.8169313762337,177.8169313762337,177.8169313762337,177.8169313762337,177.8169313762337,177.8169313762337,177.8169313762337,177.8169313762337,177.8169313762337,177.8169313762337,177.8169313762337,177.8169313762337,k,3.3386750519275665,dist2,None,,,,,,,,,,,,,,,,,ST02_112822,2022-11-29_12h09.25.884,Hippopolis_4AFCT,2022.2.2,60.00097052832705,
Camponello,stimuli/subj_files/ST02_112822_cityB.csv,./stimuli/arnedillo.png,./stimuli/street_plate2.png,./stimuli/videos/camponello_part1.mp4,KÖTÉNY UTCA,stimuli/scenes/082a.jpg,scene,1,stimuli/scenes/085a.jpg,stimuli/scenes/085a.jpg,stimuli/objects/012b.jpg,stimuli/objects/012a.jpg,stimuli/scenes/085b.jpg,target,dist2,dist1,lure,0,0,0,1,0,36,36,35,,,,,,,181.18176084384322,182.25877660140395,182.25877660140395,182.25877660140395,182.25877660140395,182.25877660140395,182.25877660140395,182.25877660140395,182.25877660140395,182.25877660140395,182.25877660140395,182.25877660140395,182.25877660140395,j,4.160168267786503,dist1,None,,185.68308355472982,,,,,,,,,,,,,,,ST02_112822,2022-11-29_12h09.25.884,Hippopolis_4AFCT,2022.2.2,60.00097052832705,
Camponello,stimuli/subj_files/ST02_112822_cityB.csv,./stimuli/arnedillo.png,./stimuli/street_plate2.png,./stimuli/videos/camponello_part1.mp4,EGÉR UTCA,stimuli/scenes/069a.jpg,scene,1,stimuli/scenes/075a.jpg,stimuli/scenes/116a.jpg,stimuli/scenes/075a.jpg,stimuli/scenes/116b.jpg,stimuli/scenes/075b.jpg,dist1,target,dist2,lure,0,0,0,1,0,37,37,52,,,,,,,186.44906212948263,187.5029753986746,187.5029753986746,187.5029753986746,187.5029753986746,187.5029753986746,187.5029753986746,187.5029753986746,187.5029753986746,187.5029753986746,187.5029753986746,187.5029753986746,187.5029753986746,f,3.7156673576682806,target,None,,190.94407296553254,,,,,,,,,,,,,,,ST02_112822,2022-11-29_12h09.25.884,Hippopolis_4AFCT,2022.2.2,60.00097052832705,
Camponello,stimuli/subj_files/ST02_112822_cityB.csv,./stimuli/arnedillo.png,./stimuli/street_plate2.png,./stimuli/videos/camponello_part1.mp4,HEGESZTŐ UTCA,stimuli/scenes/056a.jpg,scene,0,stimuli/scenes/056a.jpg,stimuli/scenes/013b.jpg,stimuli/scenes/056b.jpg,stimuli/scenes/013a.jpg,stimuli/scenes/056a.jpg,dist2,lure,dist1,target,0,0,0,1,0,38,38,78,,,,,,,191.246658237651,192.28798196837306,192.28798196837306,192.28798196837306,192.28798196837306,192.28798196837306,192.28798196837306,192.28798196837306,192.28798196837306,192.28798196837306,192.28798196837306,192.28798196837306,192.28798196837306,k,2.6274671889841557,target,None,192.28798196837306,,,,,,,,,,,,,,,,ST02_112822,2022-11-29_12h09.25.884,Hippopolis_4AFCT,2022.2.2,60.00097052832705,
Camponello,stimuli/subj_files/ST02_112822_cityB.csv,./stimuli/arnedillo.png,./stimuli/street_plate2.png,./stimuli/videos/camponello_part1.mp4,PADLÓ UTCA,stimuli/scenes/043a.jpg,scene,2,stimuli/objects/043a.jpg,stimuli/scenes/120a.jpg,stimuli/objects/043a.jpg,stimuli/scenes/120b.jpg,stimuli/objects/043b.jpg,dist1,target,dist2,lure,0,0,0,1,0,39,39,29,,,,,,,194.94303638115525,196.02335191518068,196.02335191518068,196.02335191518068,196.02335191518068,196.02335191518068,196.02335191518068,196.02335191518068,196.02335191518068,196.02335191518068,196.02335191518068,196.02335191518068,196.02335191518068,d,3.307818863540888,dist1,None,,,,,,,,,,,,,,,,,ST02_112822,2022-11-29_12h09.25.884,Hippopolis_4AFCT,2022.2.2,60.00097052832705,
Camponello,stimuli/subj_files/ST02_112822_cityB.csv,./stimuli/arnedillo.png,./stimuli/street_plate2.png,./stimuli/videos/camponello_part1.mp4,RÁDIÓ UTCA,stimuli/scenes/079a.jpg,scene,0,stimuli/scenes/079a.jpg,stimuli/scenes/076b.jpg,stimuli/scenes/079a.jpg,stimuli/scenes/079b.jpg,stimuli/scenes/076a.jpg,dist2,target,lure,dist1,0,0,0,1,0,40,40,40,,,,,,,199.37318030185997,200.42095834761858,200.42095834761858,200.42095834761858,200.42095834761858,200.42095834761858,200.42095834761858,200.42095834761858,200.42095834761858,200.42095834761858,200.42095834761858,200.42095834761858,200.42095834761858,f,2.8616640213876963,target,None,,,,,,,,,,,,,,,,,ST02_112822,2022-11-29_12h09.25.884,Hippopolis_4AFCT,2022.2.2,60.00097052832705,
Camponello,stimuli/subj_files/ST02_112822_cityB.csv,./stimuli/arnedillo.png,./stimuli/street_plate2.png,./stimuli/videos/camponello_part1.mp4,TISZTÁS UTCA,stimuli/objects/101a.jpg,object,0,stimuli/objects/101a.jpg,stimuli/objects/101a.jpg,stimuli/objects/060a.jpg,stimuli/objects/060b.jpg,stimuli/objects/101b.jpg,target,dist1,dist2,lure,0,0,0,1,0,41,41,77,,,,,,,203.31376875191927,204.382712027058,204.382712027058,204.382712027058,204.382712027058,204.382712027058,204.382712027058,204.382712027058,204.382712027058,204.382712027058,204.382712027058,204.382712027058,204.382712027058,d,2.660539297387004,target,None,,,,,,,,,,,,,,,,,ST02_112822,2022-11-29_12h09.25.884,Hippopolis_4AFCT,2022.2.2,60.00097052832705,
Camponello,stimuli/subj_files/ST02_112822_cityB.csv,./stimuli/arnedillo.png,./stimuli/street_plate2.png,./stimuli/videos/camponello_part1.mp4,TOLMÁCS UTCA,stimuli/objects/069a.jpg,object,0,stimuli/objects/069a.jpg,stimuli/objects/069b.jpg,stimuli/objects/054b.jpg,stimuli/objects/054a.jpg,stimuli/objects/069a.jpg,lure,dist2,dist1,target,0,0,0,1,0,42,42,66,,,,,,,207.07050452753901,208.12126481346786,208.12126481346786,208.12126481346786,208.12126481346786,208.12126481346786,208.12126481346786,208.12126481346786,208.12126481346786,208.12126481346786,208.12126481346786,208.12126481346786,208.12126481346786,k,4.169990783557296,target,None,,211.57344695925713,,,,,,,,,,,,,,,ST02_112822,2022-11-29_12h09.25.884,Hippopolis_4AFCT,2022.2.2,60.00097052832705,
Camponello,stimuli/subj_files/ST02_112822_cityB.csv,./stimuli/arnedillo.png,./stimuli/street_plate2.png,./stimuli/videos/camponello_part1.mp4,KERÉK UTCA,stimuli/objects/060a.jpg,object,0,stimuli/objects/060a.jpg,stimuli/objects/060b.jpg,stimuli/objects/009a.jpg,stimuli/objects/009b.jpg,stimuli/objects/060a.jpg,lure,dist1,dist2,target,0,0,0,1,0,43,43,36,,,,,,,212.31262766942382,213.35568432696164,213.35568432696164,213.35568432696164,213.35568432696164,213.35568432696164,213.35568432696164,213.35568432696164,213.35568432696164,213.35568432696164,213.35568432696164,213.35568432696164,213.35568432696164,k,4.85528652369976,target,None,,216.81383001990616,,,,,,,,,,,,,,,ST02_112822,2022-11-29_12h09.25.884,Hippopolis_4AFCT,2022.2.2,60.00097052832705,
Camponello,stimuli/subj_files/ST02_112822_cityB.csv,./stimuli/arnedillo.png,./stimuli/street_plate2.png,./stimuli/videos/camponello_part1.mp4,POLIP UTCA,stimuli/scenes/050a.jpg,scene,0,stimuli/scenes/050a.jpg,stimuli/scenes/050a.jpg,stimuli/objects/004b.jpg,stimuli/scenes/050b.jpg,stimuli/objects/004a.jpg,target,dist2,lure,dist1,0,0,0,1,0,44,44,44,,,,,,,218.2310192808509,219.2772220801562,219.2772220801562,219.2772220801562,219.2772220801562,219.2772220801562,219.2772220801562,219.2772220801562,219.2772220801562,219.2772220801562,219.2772220801562,219.2772220801562,219.2772220801562,d,3.04533164575696,target,space,,,222.36060320399702,222.36060320399702,2.8417711202055216,,,,,,,,,,,,ST02_112822,2022-11-29_12h09.25.884,Hippopolis_4AFCT,2022.2.2,60.00097052832705,
Camponello,stimuli/subj_files/ST02_112822_cityB.csv,./stimuli/arnedillo.png,./stimuli/street_plate2.png,./stimuli/videos/camponello_part1.mp4,LEGELŐ UTCA,stimuli/objects/083a.jpg,object,1,stimuli/objects/012a.jpg,stimuli/scenes/072b.jpg,stimuli/scenes/072a.jpg,stimuli/objects/012b.jpg,stimuli/objects/012a.jpg,dist2,dist1,lure,target,0,0,0,1,0,45,45,31,,,,,,,225.22557666897774,226.31563012488186,226.31563012488186,226.31563012488186,226.31563012488186,226.31563012488186,226.31563012488186,226.31563012488186,226.31563012488186,226.31563012488186,226.31563012488186,226.31563012488186,226.31563012488186,f,3.4627852607518435,dist1,None,,229.73260821215808,,,,,,,,,,,,,,,ST02_112822,2022-11-29_12h09.25.884,Hippopolis_4AFCT,2022.2.2,60.00097052832705,
Camponello,stimuli/subj_files/ST02_112822_cityB.csv,./stimuli/arnedillo.png,./stimuli/street_plate2.png,./stimuli/videos/camponello_part1.mp4,PULÓVER UTCA,stimuli/objects/062a.jpg,object,0,stimuli/objects/062a.jpg,stimuli/objects/076a.jpg,stimuli/objects/076b.jpg,stimuli/objects/062a.jpg,stimuli/objects/062b.jpg,dist1,dist2,target,lure,0,0,0,1,0,46,46,12,,,,,,,229.81667044200003,230.85755845159292,230.85755845159292,230.85755845159292,230.85755845159292,230.85755845159292,230.85755845159292,230.85755845159292,230.85755845159292,230.85755845159292,230.85755845159292,230.85755845159292,230.85755845159292,j,3.0007899310439825,target,None,,,,,,,,,,,,,,,,,ST02_112822,2022-11-29_12h09.25.884,Hippopolis_4AFCT,2022.2.2,60.00097052832705,
Camponello,stimuli/subj_files/ST02_112822_cityB.csv,./stimuli/arnedillo.png,./stimuli/street_plate2.png,./stimuli/videos/camponello_part1.mp4,TENISZ UTCA,stimuli/objects/065a.jpg,object,0,stimuli/objects/065a.jpg,stimuli/objects/065a.jpg,stimuli/objects/065b.jpg,stimuli/objects/069a.jpg,stimuli/objects/069b.jpg,target,lure,dist1,dist2,0,0,0,1,0,47,47,45,,,,,,,233.8778460212052,234.93055756017566,234.93055756017566,234.93055756017566,234.93055756017566,234.93055756017566,234.93055756017566,234.93055756017566,234.93055756017566,234.93055756017566,234.93055756017566,234.93055756017566,234.93055756017566,d,2.255844408646226,target,None,,,,,,,,,,,,,,,,,ST02_112822,2022-11-29_12h09.25.884,Hippopolis_4AFCT,2022.2.2,60.00097052832705,
Camponello,stimuli/subj_files/ST02_112822_cityB.csv,./stimuli/arnedillo.png,./stimuli/street_plate2.png,./stimuli/videos/camponello_part1.mp4,KÖMÉNYMAG UTCA,stimuli/objects/111a.jpg,object,2,stimuli/scenes/005a.jpg,stimuli/scenes/005b.jpg,stimuli/scenes/064a.jpg,stimuli/scenes/064b.jpg,stimuli/scenes/005a.jpg,lure,dist1,dist2,target,0,0,0,1,0,48,48,5,,,,,,,237.21253772638738,238.25561211071908,238.25561211071908,238.25561211071908,238.25561211071908,238.25561211071908,238.25561211071908,238.25561211071908,238.25561211071908,238.25561211071908,238.25561211071908,238.25561211071908,238.25561211071908,k,3.8262117821723223,target,None,,241.71899981610477,,,,,,,,,,,,,,,ST02_112822,2022-11-29_12h09.25.884,Hippopolis_4AFCT,2022.2.2,60.00097052832705,
Camponello,stimuli/subj_files/ST02_112822_cityB.csv,./stimuli/arnedillo.png,./stimuli/street_plate2.png,./stimuli/videos/camponello_part1.mp4,ORVOS UTCA,stimuli/scenes/097a.jpg,scene,0,stimuli/scenes/097a.jpg,stimuli/objects/044a.jpg,stimuli/scenes/097a.jpg,stimuli/scenes/097b.jpg,stimuli/objects/044b.jpg,dist1,target,lure,dist2,0,0,0,1,0,49,49,57,,,,,,,242.15893670730293,243.2489649709314,243.2489649709314,243.2489649709314,243.2489649709314,243.2489649709314,243.2489649709314,243.2489649709314,243.2489649709314,243.2489649709314,243.2489649709314,243.2489649709314,243.2489649709314,f,1.2329997438937426,target,None,,,,,,,,,,,,,,,,,ST02_112822,2022-11-29_12h09.25.884,Hippopolis_4AFCT,2022.2.2,60.00097052832705,
Camponello,stimuli/subj_files/ST02_112822_cityB.csv,./stimuli/arnedillo.png,./stimuli/street_plate2.png,./stimuli/videos/camponello_part1.mp4,MUSTÁR UTCA,stimuli/objects/030a.jpg,object,0,stimuli/objects/030a.jpg,stimuli/scenes/098a.jpg,stimuli/scenes/098b.jpg,stimuli/objects/030b.jpg,stimuli/objects/030a.jpg,dist1,dist2,lure,target,0,0,0,1,0,50,50,43,,,,,,,244.5119242966175,245.550213849172,245.550213849172,245.550213849172,245.550213849172,245.550213849172,245.550213849172,245.550213849172,245.550213849172,245.550213849172,245.550213849172,245.550213849172,245.550213849172,k,2.531617507338524,target,None,,,,,,,,,,,,,,,,,ST02_112822,2022-11-29_12h09.25.884,Hippopolis_4AFCT,2022.2.2,60.00097052832705,
Camponello,stimuli/subj_files/ST02_112822_cityB.csv,./stimuli/arnedillo.png,./stimuli/street_plate2.png,./stimuli/videos/camponello_part1.mp4,FÉSŰ UTCA,stimuli/scenes/109a.jpg,scene,0,stimuli/scenes/109a.jpg,stimuli/scenes/109a.jpg,stimuli/scenes/081a.jpg,stimuli/scenes/109b.jpg,stimuli/scenes/081b.jpg,target,dist1,lure,dist2,0,0,0,1,0,51,51,71,,,,,,,248.10460171289742,249.15422838181257,249.15422838181257,249.15422838181257,249.15422838181257,249.15422838181257,249.15422838181257,249.15422838181257,249.15422838181257,249.15422838181257,249.15422838181257,249.15422838181257,249.15422838181257,d,3.263909736648202,target,None,,,,,,,,,,,,,,,,,ST02_112822,2022-11-29_12h09.25.884,Hippopolis_4AFCT,2022.2.2,60.00097052832705,
Camponello,stimuli/subj_files/ST02_112822_cityB.csv,./stimuli/arnedillo.png,./stimuli/street_plate2.png,./stimuli/videos/camponello_part1.mp4,BÖGRE UTCA,stimuli/objects/113a.jpg,object,0,stimuli/objects/113a.jpg,stimuli/objects/113b.jpg,stimuli/objects/001b.jpg,stimuli/objects/001a.jpg,stimuli/objects/113a.jpg,lure,dist2,dist1,target,0,0,0,1,0,52,52,48,,,,,,,252.44542397744954,253.52546613663435,253.52546613663435,253.52546613663435,253.52546613663435,253.52546613663435,253.52546613663435,253.52546613663435,253.52546613663435,253.52546613663435,253.52546613663435,253.52546613663435,253.52546613663435,k,2.8290434945374727,target,None,,,,,,,,,,,,,,,,,ST02_112822,2022-11-29_12h09.25.884,Hippopolis_4AFCT,2022.2.2,60.00097052832705,
Camponello,stimuli/subj_files/ST02_112822_cityB.csv,./stimuli/arnedillo.png,./stimuli/street_plate2.png,./stimuli/videos/camponello_part1.mp4,KESELYŰ UTCA,stimuli/scenes/112a.jpg,scene,2,stimuli/objects/084a.jpg,stimuli/scenes/095a.jpg,stimuli/objects/084b.jpg,stimuli/scenes/095b.jpg,stimuli/objects/084a.jpg,dist1,lure,dist2,target,0,0,0,1,0,53,53,26,,,,,,,256.3770716153085,257.449669836089,257.449669836089,257.449669836089,257.449669836089,257.449669836089,257.449669836089,257.449669836089,257.449669836089,257.449669836089,257.449669836089,257.449669836089,257.449669836089,d,2.4402245488017797,dist1,None,,,,,,,,,,,,,,,,,ST02_112822,2022-11-29_12h09.25.884,Hippopolis_4AFCT,2022.2.2,60.00097052832705,
Camponello,stimuli/subj_files/ST02_112822_cityB.csv,./stimuli/arnedillo.png,./stimuli/street_plate2.png,./stimuli/videos/camponello_part1.mp4,BOHÓC UTCA,stimuli/objects/044a.jpg,object,0,stimuli/objects/044a.jpg,stimuli/objects/112b.jpg,stimuli/objects/044a.jpg,stimuli/objects/112a.jpg,stimuli/objects/044b.jpg,dist2,target,dist1,lure,0,0,0,1,0,54,54,49,,,,,,,259.9222191683948,260.98180115036666,260.98180115036666,260.98180115036666,260.98180115036666,260.98180115036666,260.98180115036666,260.98180115036666,260.98180115036666,260.98180115036666,260.98180115036666,260.98180115036666,260.98180115036666,j,2.7644222751259804,dist1,None,,,,,,,,,,,,,,,,,ST02_112822,2022-11-29_12h09.25.884,Hippopolis_4AFCT,2022.2.2,60.00097052832705,
Camponello,stimuli/subj_files/ST02_112822_cityB.csv,./stimuli/arnedillo.png,./stimuli/street_plate2.png,./stimuli/videos/camponello_part1.mp4,CUKOR UTCA,stimuli/scenes/081a.jpg,scene,0,stimuli/scenes/081a.jpg,stimuli/scenes/081b.jpg,stimuli/scenes/081a.jpg,stimuli/scenes/007b.jpg,stimuli/scenes/007a.jpg,lure,target,dist2,dist1,0,0,0,1,0,55,55,23,,,,,,,263.7784141674638,264.84113918058574,264.84113918058574,264.84113918058574,264.84113918058574,264.84113918058574,264.84113918058574,264.84113918058574,264.84113918058574,264.84113918058574,264.84113918058574,264.84113918058574,264.84113918058574,f,2.1848217453807592,target,None,,,,,,,,,,,,,,,,,ST02_112822,2022-11-29_12h09.25.884,Hippopolis_4AFCT,2022.2.2,60.00097052832705,
Camponello,stimuli/subj_files/ST02_112822_cityB.csv,./stimuli/arnedillo.png,./stimuli/street_plate2.png,./stimuli/videos/camponello_part1.mp4,ÁLLOMÁS UTCA,stimuli/objects/090a.jpg,object,0,stimuli/objects/090a.jpg,stimuli/objects/090b.jpg,stimuli/scenes/092b.jpg,stimuli/objects/090a.jpg,stimuli/scenes/092a.jpg,lure,dist2,target,dist1,0,0,0,1,0,56,56,22,,,,,,,267.04527662321925,268.10019630752504,268.10019630752504,268.10019630752504,268.10019630752504,268.10019630752504,268.10019630752504,268.10019630752504,268.10019630752504,268.10019630752504,268.10019630752504,268.10019630752504,268.10019630752504,j,2.89334624260664,target,None,,,,,,,,,,,,,,,,,ST02_112822,2022-11-29_12h09.25.884,Hippopolis_4AFCT,2022.2.2,60.00097052832705,
Camponello,stimuli/subj_files/ST02_112822_cityB.csv,./stimuli/arnedillo.png,./stimuli/street_plate2.png,./stimuli/videos/camponello_part1.mp4,HENTES UTCA,stimuli/objects/001a.jpg,object,0,stimuli/objects/001a.jpg,stimuli/objects/001b.jpg,stimuli/scenes/045a.jpg,stimuli/objects/001a.jpg,stimuli/scenes/045b.jpg,lure,dist1,target,dist2,0,0,0,1,0,57,57,9,,,,,,,271.0122430790216,272.09920793026686,272.09920793026686,272.09920793026686,272.09920793026686,272.09920793026686,272.09920793026686,272.09920793026686,272.09920793026686,272.09920793026686,272.09920793026686,272.09920793026686,272.09920793026686,f,3.135039882734418,dist1,None,272.09920793026686,,,,,,,,,,,,,,,,ST02_112822,2022-11-29_12h09.25.884,Hippopolis_4AFCT,2022.2.2,60.00097052832705,
Camponello,stimuli/subj_files/ST02_112822_cityB.csv,./stimuli/arnedillo.png,./stimuli/street_plate2.png,./stimuli/videos/camponello_part1.mp4,VÁSÁR UTCA,stimuli/scenes/067a.jpg,scene,2,stimuli/objects/080a.jpg,stimuli/objects/080a.jpg,stimuli/scenes/017b.jpg,stimuli/objects/080b.jpg,stimuli/scenes/017a.jpg,target,dist2,lure,dist1,0,0,0,1,0,58,58,19,,,,,,,275.2743754386902,276.33091546595097,276.33091546595097,276.33091546595097,276.33091546595097,276.33091546595097,276.33091546595097,276.33091546595097,276.33091546595097,276.33091546595097,276.33091546595097,276.33091546595097,276.33091546595097,k,2.9670252110809088,dist1,None,,,,,,,,,,,,,,,,,ST02_112822,2022-11-29_12h09.25.884,Hippopolis_4AFCT,2022.2.2,60.00097052832705,
Camponello,stimuli/subj_files/ST02_112822_cityB.csv,./stimuli/arnedillo.png,./stimuli/street_plate2.png,./stimuli/videos/camponello_part1.mp4,LOVAGLÁS UTCA,stimuli/scenes/029a.jpg,scene,0,stimuli/scenes/029a.jpg,stimuli/scenes/029b.jpg,stimuli/scenes/083a.jpg,stimuli/scenes/083b.jpg,stimuli/scenes/029a.jpg,lure,dist1,dist2,target,0,0,0,1,0,59,59,42,,,,,,,279.3303077612072,280.35580468550324,280.35580468550324,280.35580468550324,280.35580468550324,280.35580468550324,280.35580468550324,280.35580468550324,280.35580468550324,280.35580468550324,280.35580468550324,280.35580468550324,280.35580468550324,k,2.222297703847289,target,None,,,,,,,,,,,,,,,,,ST02_112822,2022-11-29_12h09.25.884,Hippopolis_4AFCT,2022.2.2,60.00097052832705,
Camponello,stimuli/subj_files/ST02_112822_cityB.csv,./stimuli/arnedillo.png,./stimuli/street_plate2.png,./stimuli/videos/camponello_part1.mp4,LÉPCSŐ UTCA,stimuli/objects/018a.jpg,object,0,stimuli/objects/018a.jpg,stimuli/objects/101b.jpg,stimuli/objects/101a.jpg,stimuli/objects/018a.jpg,stimuli/objects/018b.jpg,dist2,dist1,target,lure,0,0,0,1,0,60,60,75,,,,,,,282.5951197501272,283.6491975430399,283.6491975430399,283.6491975430399,283.6491975430399,283.6491975430399,283.6491975430399,283.6491975430399,283.6491975430399,283.6491975430399,283.6491975430399,283.6491975430399,283.6491975430399,j,3.952773965895176,target,None,,287.09448187611997,,,,,,,,,,,,,,,ST02_112822,2022-11-29_12h09.25.884,Hippopolis_4AFCT,2022.2.2,60.00097052832705,
Camponello,stimuli/subj_files/ST02_112822_cityB.csv,./stimuli/arnedillo.png,./stimuli/street_plate2.png,./stimuli/videos/camponello_part1.mp4,CSILLAG UTCA,stimuli/scenes/114a.jpg,scene,2,stimuli/objects/107a.jpg,stimuli/objects/110a.jpg,stimuli/objects/110b.jpg,stimuli/objects/107b.jpg,stimuli/objects/107a.jpg,dist1,dist2,lure,target,0,0,0,1,0,61,61,39,,,,,,,287.62853427790105,288.7008441966027,288.7008441966027,288.7008441966027,288.7008441966027,288.7008441966027,288.7008441966027,288.7008441966027,288.7008441966027,288.7008441966027,288.7008441966027,288.7008441966027,288.7008441966027,None,,invalid,None,,292.1121775191277,,,,293.6131559442729,,,,,,,,,,,ST02_112822,2022-11-29_12h09.25.884,Hippopolis_4AFCT,2022.2.2,60.00097052832705,
Camponello,stimuli/subj_files/ST02_112822_cityB.csv,./stimuli/arnedillo.png,./stimuli/street_plate2.png,./stimuli/videos/camponello_part1.mp4,KAKAS UTCA,stimuli/objects/100a.jpg,object,0,stimuli/objects/100a.jpg,stimuli/objects/049a.jpg,stimuli/objects/100b.jpg,stimuli/objects/049b.jpg,stimuli/objects/100a.jpg,dist1,lure,dist2,target,0,0,0,1,0,62,62,65,,,,,,,293.62862633541226,294.70717970840633,294.70717970840633,294.70717970840633,294.70717970840633,294.70717970840633,294.70717970840633,294.70717970840633,294.70717970840633,294.70717970840633,294.70717970840633,294.70717970840633,294.70717970840633,k,1.8863302506506443,target,None,,,,,,,,,,,,,,,,,ST02_112822,2022-11-29_12h09.25.884,Hippopolis_4AFCT,2022.2.2,60.00097052832705,
Camponello,stimuli/subj_files/ST02_112822_cityB.csv,./stimuli/arnedillo.png,./stimuli/street_plate2.png,./stimuli/videos/camponello_part1.mp4,SZAPPAN UTCA,stimuli/scenes/108a.jpg,scene,1,stimuli/scenes/072a.jpg,stimuli/scenes/072b.jpg,stimuli/scenes/040a.jpg,stimuli/scenes/072a.jpg,stimuli/scenes/040b.jpg,lure,dist1,target,dist2,0,0,0,1,0,63,63,2,,,,,,,296.62517789565027,297.6615942567587,297.6615942567587,297.6615942567587,297.6615942567587,297.6615942567587,297.6615942567587,297.6615942567587,297.6615942567587,297.6615942567587,297.6615942567587,297.6615942567587,297.6615942567587,j,2.7403497584164143,target,None,,,,,,,,,,,,,,,,,ST02_112822,2022-11-29_12h09.25.884,Hippopolis_4AFCT,2022.2.2,60.00097052832705,
Camponello,stimuli/subj_files/ST02_112822_cityB.csv,./stimuli/arnedillo.png,./stimuli/street_plate2.png,./stimuli/videos/camponello_part1.mp4,KESZTYŰ UTCA,stimuli/objects/033a.jpg,object,0,stimuli/objects/033a.jpg,stimuli/objects/033b.jpg,stimuli/objects/027b.jpg,stimuli/objects/033a.jpg,stimuli/objects/027a.jpg,lure,dist2,target,dist1,0,0,0,1,0,64,64,37,,,,,,,300.43621010147035,301.5317808110267,301.5317808110267,301.5317808110267,301.5317808110267,301.5317808110267,301.5317808110267,301.5317808110267,301.5317808110267,301.5317808110267,301.5317808110267,301.5317808110267,301.5317808110267,j,2.853866158053279,target,None,,,,,,,,,,,,,,,,,ST02_112822,2022-11-29_12h09.25.884,Hippopolis_4AFCT,2022.2.2,60.00097052832705,
Camponello,stimuli/subj_files/ST02_112822_cityB.csv,./stimuli/arnedillo.png,./stimuli/street_plate2.png,./stimuli/videos/camponello_part1.mp4,ZONGORA UTCA,stimuli/objects/076a.jpg,object,0,stimuli/objects/076a.jpg,stimuli/objects/076a.jpg,stimuli/objects/076b.jpg,stimuli/scenes/036a.jpg,stimuli/scenes/036b.jpg,target,lure,dist1,dist2,0,0,0,1,0,65,65,0,,,,,,,304.41151246242225,305.4552685730159,305.4552685730159,305.4552685730159,305.4552685730159,305.4552685730159,305.4552685730159,305.4552685730159,305.4552685730159,305.4552685730159,305.4552685730159,305.4552685730159,305.4552685730159,d,3.442242044955492,target,None,,308.90447749756277,,,,,,,,,,,,,,,ST02_112822,2022-11-29_12h09.25.884,Hippopolis_4AFCT,2022.2.2,60.00097052832705,
Camponello,stimuli/subj_files/ST02_112822_cityB.csv,./stimuli/arnedillo.png,./stimuli/street_plate2.png,./stimuli/videos/camponello_part1.mp4,SZOMSZÉD UTCA,stimuli/objects/034a.jpg,object,2,stimuli/scenes/017a.jpg,stimuli/objects/036a.jpg,stimuli/scenes/017a.jpg,stimuli/scenes/017b.jpg,stimuli/objects/036b.jpg,dist1,target,lure,dist2,0,0,0,1,0,66,66,7,,,,,,,308.9208921045065,309.9805876035243,309.9805876035243,309.9805876035243,309.9805876035243,309.9805876035243,309.9805876035243,309.9805876035243,309.9805876035243,309.9805876035243,309.9805876035243,309.9805876035243,309.9805876035243,f,4.357085386291146,target,None,,313.41195346973836,,,,,,,,,,,,,,,ST02_112822,2022-11-29_12h09.25.884,Hippopolis_4AFCT,2022.2.2,60.00097052832705,
Camponello,stimuli/subj_files/ST02_112822_cityB.csv,./stimuli/arnedillo.png,./stimuli/street_plate2.png,./stimuli/videos/camponello_part1.mp4,BOLYGÓ UTCA,stimuli/objects/015a.jpg,object,0,stimuli/objects/015a.jpg,stimuli/scenes/066a.jpg,stimuli/objects/015a.jpg,stimuli/scenes/066b.jpg,stimuli/objects/015b.jpg,dist1,target,dist2,lure,0,0,0,1,0,67,67,13,,,,,,,314.365093825385,315.40683523751795,315.40683523751795,315.40683523751795,315.40683523751795,315.40683523751795,315.40683523751795,315.40683523751795,315.40683523751795,315.40683523751795,315.40683523751795,315.40683523751795,315.40683523751795,d,3.2505010068416595,dist1,None,,,,,,,,,,,,,,,,,ST02_112822,2022-11-29_12h09.25.884,Hippopolis_4AFCT,2022.2.2,60.00097052832705,
Camponello,stimuli/subj_files/ST02_112822_cityB.csv,./stimuli/arnedillo.png,./stimuli/street_plate2.png,./stimuli/videos/camponello_part1.mp4,PÉKSÉG UTCA,stimuli/scenes/104a.jpg,scene,0,stimuli/scenes/104a.jpg,stimuli/scenes/104a.jpg,stimuli/objects/037b.jpg,stimuli/scenes/104b.jpg,stimuli/objects/037a.jpg,target,dist2,lure,dist1,0,0,0,1,0,68,68,50,,,,,,,318.6875471174717,319.7380903214216,319.7380903214216,319.7380903214216,319.7380903214216,319.7380903214216,319.7380903214216,319.7380903214216,319.7380903214216,319.7380903214216,319.7380903214216,319.7380903214216,319.7380903214216,d,2.679290806874633,target,None,,,,,,,,,,,,,,,,,ST02_112822,2022-11-29_12h09.25.884,Hippopolis_4AFCT,2022.2.2,60.00097052832705,
Camponello,stimuli/subj_files/ST02_112822_cityB.csv,./stimuli/arnedillo.png,./stimuli/street_plate2.png,./stimuli/videos/camponello_part1.mp4,SUGÁR UTCA,stimuli/scenes/089a.jpg,scene,0,stimuli/scenes/089a.jpg,stimuli/scenes/041b.jpg,stimuli/scenes/089b.jpg,stimuli/scenes/089a.jpg,stimuli/scenes/041a.jpg,dist2,lure,target,dist1,0,0,0,1,0,69,69,6,,,,,,,322.4444209821522,323.47509554214776,323.47509554214776,323.47509554214776,323.47509554214776,323.47509554214776,323.47509554214776,323.47509554214776,323.47509554214776,323.47509554214776,323.47509554214776,323.47509554214776,323.47509554214776,j,2.91053525544703,target,None,,,,,,,,,,,,,,,,,ST02_112822,2022-11-29_12h09.25.884,Hippopolis_4AFCT,2022.2.2,60.00097052832705,
Camponello,stimuli/subj_files/ST02_112822_cityB.csv,./stimuli/arnedillo.png,./stimuli/street_plate2.png,./stimuli/videos/camponello_part1.mp4,VITORLA UTCA,stimuli/scenes/002a.jpg,scene,0,stimuli/scenes/002a.jpg,stimuli/scenes/002a.jpg,stimuli/scenes/029b.jpg,stimuli/scenes/029a.jpg,stimuli/scenes/002b.jpg,target,dist2,dist1,lure,0,0,0,1,0,70,70,74,,,,,,,326.41103848814964,327.4441541377455,327.4441541377455,327.4441541377455,327.4441541377455,327.4441541377455,327.4441541377455,327.4441541377455,327.4441541377455,327.4441541377455,327.4441541377455,327.4441541377455,327.4441541377455,d,2.845406472682953,target,None,327.4441541377455,,,,,,,,,,,,,,,,ST02_112822,2022-11-29_12h09.25.884,Hippopolis_4AFCT,2022.2.2,60.00097052832705,
Camponello,stimuli/subj_files/ST02_112822_cityB.csv,./stimuli/arnedillo.png,./stimuli/street_plate2.png,./stimuli/videos/camponello_part1.mp4,TIGRIS UTCA,stimuli/scenes/045a.jpg,scene,0,stimuli/scenes/045a.jpg,stimuli/scenes/045a.jpg,stimuli/scenes/045b.jpg,stimuli/scenes/102b.jpg,stimuli/scenes/102a.jpg,target,lure,dist2,dist1,0,0,0,1,0,71,71,17,,,,,,,330.32310516387224,331.35380056127906,331.35380056127906,331.35380056127906,331.35380056127906,331.35380056127906,331.35380056127906,331.35380056127906,331.35380056127906,331.35380056127906,331.35380056127906,331.35380056127906,331.35380056127906,f,4.519326534122229,lure,None,,334.822289083153,,,,,,,,,,,,,,,ST02_112822,2022-11-29_12h09.25.884,Hippopolis_4AFCT,2022.2.2,60.00097052832705,
Camponello,stimuli/subj_files/ST02_112822_cityB.csv,./stimuli/arnedillo.png,./stimuli/street_plate2.png,./stimuli/videos/camponello_part1.mp4,HORGONY UTCA,stimuli/scenes/054a.jpg,scene,0,stimuli/scenes/054a.jpg,stimuli/scenes/054b.jpg,stimuli/scenes/054a.jpg,stimuli/objects/062a.jpg,stimuli/objects/062b.jpg,lure,target,dist1,dist2,0,0,0,1,0,72,72,54,,,,,,,335.90158233977854,336.9631843082607,336.9631843082607,336.9631843082607,336.9631843082607,336.9631843082607,336.9631843082607,336.9631843082607,336.9631843082607,336.9631843082607,336.9631843082607,336.9631843082607,336.9631843082607,k,3.2938817348331213,dist2,None,,,,,,,,,,,,,,,,,ST02_112822,2022-11-29_12h09.25.884,Hippopolis_4AFCT,2022.2.2,60.00097052832705,
Camponello,stimuli/subj_files/ST02_112822_cityB.csv,./stimuli/arnedillo.png,./stimuli/street_plate2.png,./stimuli/videos/camponello_part1.mp4,PAPAGÁJ UTCA,stimuli/objects/078a.jpg,object,2,stimuli/scenes/120a.jpg,stimuli/objects/107b.jpg,stimuli/objects/107a.jpg,stimuli/scenes/120a.jpg,stimuli/scenes/120b.jpg,dist2,dist1,target,lure,0,0,0,1,0,73,73,32,,,,,,,340.2766321003437,341.3313539866358,341.3313539866358,341.3313539866358,341.3313539866358,341.3313539866358,341.3313539866358,341.3313539866358,341.3313539866358,341.3313539866358,341.3313539866358,341.3313539866358,341.3313539866358,j,4.797838667407632,target,None,,344.78785818628967,,,,,,,,,,,,,,,ST02_112822,2022-11-29_12h09.25.884,Hippopolis_4AFCT,2022.2.2,60.00097052832705,
Camponello,stimuli/subj_files/ST02_112822_cityB.csv,./stimuli/arnedillo.png,./stimuli/street_plate2.png,./stimuli/videos/camponello_part1.mp4,RÓZSA UTCA,stimuli/scenes/083a.jpg,scene,0,stimuli/scenes/083a.jpg,stimuli/objects/033b.jpg,stimuli/objects/033a.jpg,stimuli/scenes/083b.jpg,stimuli/scenes/083a.jpg,dist2,dist1,lure,target,0,0,0,1,0,74,74,24,,,,,,,346.1587034519762,347.2132956478745,347.2132956478745,347.2132956478745,347.2132956478745,347.2132956478745,347.2132956478745,347.2132956478745,347.2132956478745,347.2132956478745,347.2132956478745,347.2132956478745,347.2132956478745,k,3.507287787273526,target,None,,350.6496708933264,,,,,,,,,,,,,,,ST02_112822,2022-11-29_12h09.25.884,Hippopolis_4AFCT,2022.2.2,60.00097052832705,
Camponello,stimuli/subj_files/ST02_112822_cityB.csv,./stimuli/arnedillo.png,./stimuli/street_plate2.png,./stimuli/videos/camponello_part1.mp4,FÜGE UTCA,stimuli/scenes/007a.jpg,scene,0,stimuli/scenes/007a.jpg,stimuli/objects/100a.jpg,stimuli/scenes/007a.jpg,stimuli/objects/100b.jpg,stimuli/scenes/007b.jpg,dist1,target,dist2,lure,0,0,0,1,0,75,75,63,,,,,,,350.7602038104087,351.8046307619661,351.8046307619661,351.8046307619661,351.8046307619661,351.8046307619661,351.8046307619661,351.8046307619661,351.8046307619661,351.8046307619661,351.8046307619661,351.8046307619661,351.8046307619661,f,2.196217641234398,target,None,,,,,,,,,,,,,,,,,ST02_112822,2022-11-29_12h09.25.884,Hippopolis_4AFCT,2022.2.2,60.00097052832705,
Camponello,stimuli/subj_files/ST02_112822_cityB.csv,./stimuli/arnedillo.png,./stimuli/street_plate2.png,./stimuli/videos/camponello_part1.mp4,PÁRNA UTCA,stimuli/objects/032a.jpg,object,2,stimuli/scenes/095a.jpg,stimuli/scenes/095b.jpg,stimuli/scenes/095a.jpg,stimuli/scenes/101b.jpg,stimuli/scenes/101a.jpg,lure,target,dist2,dist1,0,0,0,1,0,76,76,47,,,,,,,354.02426005527377,355.08185657300055,355.08185657300055,355.08185657300055,355.08185657300055,355.08185657300055,355.08185657300055,355.08185657300055,355.08185657300055,355.08185657300055,355.08185657300055,355.08185657300055,355.08185657300055,k,2.9834584798663855,dist1,None,,,,,,,,,,,,,,,,,ST02_112822,2022-11-29_12h09.25.884,Hippopolis_4AFCT,2022.2.2,60.00097052832705,
Camponello,stimuli/subj_files/ST02_112822_cityB.csv,./stimuli/arnedillo.png,./stimuli/street_plate2.png,./stimuli/videos/camponello_part1.mp4,VASALÓ UTCA,stimuli/objects/096a.jpg,object,1,stimuli/objects/089a.jpg,stimuli/objects/095a.jpg,stimuli/objects/089a.jpg,stimuli/objects/095b.jpg,stimuli/objects/089b.jpg,dist1,target,dist2,lure,0,0,0,1,0,77,77,16,,,,,,,358.1064789481461,359.17888310179114,359.17888310179114,359.17888310179114,359.17888310179114,359.17888310179114,359.17888310179114,359.17888310179114,359.17888310179114,359.17888310179114,359.17888310179114,359.17888310179114,359.17888310179114,f,2.790426142513752,target,None,,,,,,,,,,,,,,,,,ST02_112822,2022-11-29_12h09.25.884,Hippopolis_4AFCT,2022.2.2,60.00097052832705,
Camponello,stimuli/subj_files/ST02_112822_cityB.csv,./stimuli/arnedillo.png,./stimuli/street_plate2.png,./stimuli/videos/camponello_part1.mp4,KAKAÓ UTCA,stimuli/objects/017a.jpg,object,1,stimuli/objects/095a.jpg,stimuli/objects/095b.jpg,stimuli/objects/089b.jpg,stimuli/objects/089a.jpg,stimuli/objects/095a.jpg,lure,dist2,dist1,target,0,0,0,1,0,78,78,73,,,,,,,362.0080650188029,363.0626625008881,363.0626625008881,363.0626625008881,363.0626625008881,363.0626625008881,363.0626625008881,363.0626625008881,363.0626625008881,363.0626625008881,363.0626625008881,363.0626625008881,363.0626625008881,j,3.4984070025384426,dist1,None,,366.51212520711124,,,,,,,,,,,,,,,ST02_112822,2022-11-29_12h09.25.884,Hippopolis_4AFCT,2022.2.2,60.00097052832705,
Camponello,stimuli/subj_files/ST02_112822_cityB.csv,./stimuli/arnedillo.png,./stimuli/street_plate2.png,./stimuli/videos/camponello_part1.mp4,KULLANCS UTCA,stimuli/objects/074a.jpg,object,0,stimuli/objects/074a.jpg,stimuli/objects/031a.jpg,stimuli/objects/074b.jpg,stimuli/objects/074a.jpg,stimuli/objects/031b.jpg,dist1,lure,target,dist2,0,0,0,1,0,79,79,68,,,,,,,366.59021642431617,367.65634571388364,367.65634571388364,367.65634571388364,367.65634571388364,367.65634571388364,367.65634571388364,367.65634571388364,367.65634571388364,367.65634571388364,367.65634571388364,367.65634571388364,367.65634571388364,j,2.409030605107546,target,None,,,,,,,,,,,,,,,,,ST02_112822,2022-11-29_12h09.25.884,Hippopolis_4AFCT,2022.2.2,60.00097052832705,
Hippopolis,stimuli/subj_files/ST02_112822_cityA.csv,./stimuli/seattle.jpg,./stimuli/street_plate1.png,./stimuli/videos/hippopolis_part1.mp4,FÉNYKÉP UTCA,stimuli/objects/072a.jpg,object,0,stimuli/objects/072a.jpg,stimuli/objects/072b.jpg,stimuli/scenes/061b.jpg,stimuli/scenes/061a.jpg,stimuli/objects/072a.jpg,lure,dist2,dist1,target,0,1,1,0,0,0,0,22,,,,,373.4209459088743,373.4209459088743,376.4033115338534,377.4302860517055,377.4302860517055,377.4302860517055,377.4302860517055,377.4302860517055,377.4302860517055,377.4302860517055,377.4302860517055,377.4302860517055,377.4302860517055,377.4302860517055,377.4302860517055,k,3.0662269201129675,target,None,,,,,,,53,4,17,3,370.1087446305901,370.1087446305901,space,3.2200516164302826,,,ST02_112822,2022-11-29_12h09.25.884,Hippopolis_4AFCT,2022.2.2,60.00097052832705,
Hippopolis,stimuli/subj_files/ST02_112822_cityA.csv,./stimuli/seattle.jpg,./stimuli/street_plate1.png,./stimuli/videos/hippopolis_part1.mp4,LAKAT UTCA,stimuli/objects/087a.jpg,object,0,stimuli/objects/087a.jpg,stimuli/objects/087b.jpg,stimuli/objects/087a.jpg,stimuli/objects/117a.jpg,stimuli/objects/117b.jpg,lure,target,dist1,dist2,0,1,1,0,0,1,1,49,,,,,,,380.53594083338976,381.61692689731717,381.61692689731717,381.61692689731717,381.61692689731717,381.61692689731717,381.61692689731717,381.61692689731717,381.61692689731717,381.61692689731717,381.61692689731717,381.61692689731717,381.61692689731717,f,2.9438179153949022,target,None,381.61692689731717,,,,,,,,,,,,,,,,ST02_112822,2022-11-29_12h09.25.884,Hippopolis_4AFCT,2022.2.2,60.00097052832705,
Hippopolis,stimuli/subj_files/ST02_112822_cityA.csv,./stimuli/seattle.jpg,./stimuli/street_plate1.png,./stimuli/videos/hippopolis_part1.mp4,KÓKUSZ UTCA,stimuli/scenes/113a.jpg,scene,2,stimuli/objects/046a.jpg,stimuli/objects/022a.jpg,stimuli/objects/046a.jpg,stimuli/objects/046b.jpg,stimuli/objects/022b.jpg,dist1,target,lure,dist2,0,1,1,0,0,2,2,31,,,,,,,384.58085886389017,385.66536925174296,385.66536925174296,385.66536925174296,385.66536925174296,385.66536925174296,385.66536925174296,385.66536925174296,385.66536925174296,385.66536925174296,385.66536925174296,385.66536925174296,385.66536925174296,d,4.52782416343689,dist1,None,,389.07792109809816,,,,,,,,,,,,,,,ST02_112822,2022-11-29_12h09.25.884,Hippopolis_4AFCT,2022.2.2,60.00097052832705,
Hippopolis,stimuli/subj_files/ST02_112822_cityA.csv,./stimuli/seattle.jpg,./stimuli/street_plate1.png,./stimuli/videos/hippopolis_part1.mp4,KIRAKÓ UTCA,stimuli/objects/104a.jpg,object,2,stimuli/scenes/059a.jpg,stimuli/objects/108b.jpg,stimuli/scenes/059b.jpg,stimuli/objects/108a.jpg,stimuli/scenes/059a.jpg,dist2,lure,dist1,target,0,1,1,0,0,3,3,4,,,,,,,390.2193126883358,391.2655565403402,391.2655565403402,391.2655565403402,391.2655565403402,391.2655565403402,391.2655565403402,391.2655565403402,391.2655565403402,391.2655565403402,391.2655565403402,391.2655565403402,391.2655565403402,d,4.543374482542276,dist2,None,,394.7220884207636,,,,,,,,,,,,,,,ST02_112822,2022-11-29_12h09.25.884,Hippopolis_4AFCT,2022.2.2,60.00097052832705,
Hippopolis,stimuli/subj_files/ST02_112822_cityA.csv,./stimuli/seattle.jpg,./stimuli/street_plate1.png,./stimuli/videos/hippopolis_part1.mp4,KALAPÁCS UTCA,stimuli/objects/091a.jpg,object,1,stimuli/objects/070a.jpg,stimuli/scenes/077a.jpg,stimuli/objects/070b.jpg,stimuli/objects/070a.jpg,stimuli/scenes/077b.jpg,dist1,lure,target,dist2,0,1,1,0,0,4,4,63,,,,,,,395.8269896339625,396.86502540297806,396.86502540297806,396.86502540297806,396.86502540297806,396.86502540297806,396.86502540297806,396.86502540297806,396.86502540297806,396.86502540297806,396.86502540297806,396.86502540297806,396.86502540297806,d,3.998979564756155,dist1,None,396.86502540297806,400.3179542757571,,,,,,,,,,,,,,,ST02_112822,2022-11-29_12h09.25.884,Hippopolis_4AFCT,2022.2.2,60.00097052832705,
Hippopolis,stimuli/subj_files/ST02_112822_cityA.csv,./stimuli/seattle.jpg,./stimuli/street_plate1.png,./stimuli/videos/hippopolis_part1.mp4,TELEFON UTCA,stimuli/objects/050a.jpg,object,1,stimuli/objects/067a.jpg,stimuli/scenes/055b.jpg,stimuli/scenes/055a.jpg,stimuli/objects/067b.jpg,stimuli/objects/067a.jpg,dist2,dist1,lure,target,0,1,1,0,0,5,5,50,,,,,,,400.8878237269819,401.9788571652025,401.9788571652025,401.9788571652025,401.9788571652025,401.9788571652025,401.9788571652025,401.9788571652025,401.9788571652025,401.9788571652025,401.9788571652025,401.9788571652025,401.9788571652025,k,2.26140302605927,target,None,,,,,,,,,,,,,,,,,ST02_112822,2022-11-29_12h09.25.884,Hippopolis_4AFCT,2022.2.2,60.00097052832705,
Hippopolis,stimuli/subj_files/ST02_112822_cityA.csv,./stimuli/seattle.jpg,./stimuli/street_plate1.png,./stimuli/videos/hippopolis_part1.mp4,KRÉTA UTCA,stimuli/objects/079a.jpg,object,0,stimuli/objects/079a.jpg,stimuli/objects/105a.jpg,stimuli/objects/079b.jpg,stimuli/objects/079a.jpg,stimuli/objects/105b.jpg,dist1,lure,target,dist2,0,1,1,0,0,6,6,65,,,,,,,404.2591874413192,405.3333425614983,405.3333425614983,405.3333425614983,405.3333425614983,405.3333425614983,405.3333425614983,405.3333425614983,405.3333425614983,405.3333425614983,405.3333425614983,405.3333425614983,405.3333425614983,k,3.0993002746254206,dist2,None,,,,,,,,,,,,,,,,,ST02_112822,2022-11-29_12h09.25.884,Hippopolis_4AFCT,2022.2.2,60.00097052832705,
Hippopolis,stimuli/subj_files/ST02_112822_cityA.csv,./stimuli/seattle.jpg,./stimuli/street_plate1.png,./stimuli/videos/hippopolis_part1.mp4,GYŰRŰ UTCA,stimuli/objects/019a.jpg,object,2,stimuli/scenes/074a.jpg,stimuli/scenes/074a.jpg,stimuli/objects/086b.jpg,stimuli/scenes/074b.jpg,stimuli/objects/086a.jpg,target,dist2,lure,dist1,0,1,1,0,0,7,7,78,,,,,,,408.4752134140581,409.5493545383215,409.5493545383215,409.5493545383215,409.5493545383215,409.5493545383215,409.5493545383215,409.5493545383215,409.5493545383215,409.5493545383215,409.5493545383215,409.5493545383215,409.5493545383215,d,2.962956003844738,target,None,,,,,,,,,,,,,,,,,ST02_112822,2022-11-29_12h09.25.884,Hippopolis_4AFCT,2022.2.2,60.00097052832705,
Hippopolis,stimuli/subj_files/ST02_112822_cityA.csv,./stimuli/seattle.jpg,./stimuli/street_plate1.png,./stimuli/videos/hippopolis_part1.mp4,SAJTÓ UTCA,stimuli/objects/094a.jpg,object,1,stimuli/objects/063a.jpg,stimuli/objects/063b.jpg,stimuli/objects/082a.jpg,stimuli/objects/063a.jpg,stimuli/objects/082b.jpg,lure,dist1,target,dist2,0,1,1,0,0,8,8,44,,,,,,,412.5359178185463,413.6334674600512,413.6334674600512,413.6334674600512,413.6334674600512,413.6334674600512,413.6334674600512,413.6334674600512,413.6334674600512,413.6334674600512,413.6334674600512,413.6334674600512,413.6334674600512,None,,invalid,None,,417.0435213018209,,,,,,,,,,,,,,,ST02_112822,2022-11-29_12h09.25.884,Hippopolis_4AFCT,2022.2.2,60.00097052832705,
Hippopolis,stimuli/subj_files/ST02_112822_cityA.csv,./stimuli/seattle.jpg,./stimuli/street_plate1.png,./stimuli/videos/hippopolis_part1.mp4,SIRÁLY UTCA,stimuli/objects/055a.jpg,object,0,stimuli/objects/055a.jpg,stimuli/objects/055b.jpg,stimuli/objects/085b.jpg,stimuli/objects/085a.jpg,stimuli/objects/055a.jpg,lure,dist2,dist1,target,0,1,1,0,0,9,9,19,,,,,,,418.544665183872,419.61580540798604,419.61580540798604,419.61580540798604,419.61580540798604,419.61580540798604,419.61580540798604,419.61580540798604,419.61580540798604,419.61580540798604,419.61580540798604,419.61580540798604,419.61580540798604,k,1.9360253401100636,target,None,419.61580540798604,,,,,,,,,,,,,,,,ST02_112822,2022-11-29_12h09.25.884,Hippopolis_4AFCT,2022.2.2,60.00097052832705,
Hippopolis,stimuli/subj_files/ST02_112822_cityA.csv,./stimuli/seattle.jpg,./stimuli/street_plate1.png,./stimuli/videos/hippopolis_part1.mp4,SZILVA UTCA,stimuli/scenes/016a.jpg,scene,1,stimuli/scenes/070a.jpg,stimuli/scenes/070b.jpg,stimuli/scenes/070a.jpg,stimuli/objects/067a.jpg,stimuli/objects/067b.jpg,lure,target,dist1,dist2,0,1,1,0,0,10,10,20,,,,,,,421.5848857741803,422.6374763324857,422.6374763324857,422.6374763324857,422.6374763324857,422.6374763324857,422.6374763324857,422.6374763324857,422.6374763324857,422.6374763324857,422.6374763324857,422.6374763324857,422.6374763324857,f,2.4667487256228924,target,None,,,,,,,,,,,,,,,,,ST02_112822,2022-11-29_12h09.25.884,Hippopolis_4AFCT,2022.2.2,60.00097052832705,
Hippopolis,stimuli/subj_files/ST02_112822_cityA.csv,./stimuli/seattle.jpg,./stimuli/street_plate1.png,./stimuli/videos/hippopolis_part1.mp4,KÖTÉL UTCA,stimuli/scenes/118a.jpg,scene,0,stimuli/scenes/118a.jpg,stimuli/scenes/118b.jpg,stimuli/scenes/037a.jpg,stimuli/scenes/037b.jpg,stimuli/scenes/118a.jpg,lure,dist1,dist2,target,0,1,1,0,0,11,11,32,,,,,,,425.1467713806778,426.2177585903555,426.2177585903555,426.2177585903555,426.2177585903555,426.2177585903555,426.2177585903555,426.2177585903555,426.2177585903555,426.2177585903555,426.2177585903555,426.2177585903555,426.2177585903555,k,2.7583965249359608,target,None,,,,,,,,,,,,,,,,,ST02_112822,2022-11-29_12h09.25.884,Hippopolis_4AFCT,2022.2.2,60.00097052832705,
Hippopolis,stimuli/subj_files/ST02_112822_cityA.csv,./stimuli/seattle.jpg,./stimuli/street_plate1.png,./stimuli/videos/hippopolis_part1.mp4,KORONA UTCA,stimuli/scenes/115a.jpg,scene,1,stimuli/scenes/044a.jpg,stimuli/scenes/070b.jpg,stimuli/scenes/044b.jpg,stimuli/scenes/070a.jpg,stimuli/scenes/044a.jpg,dist2,lure,dist1,target,0,1,1,0,0,12,12,12,,,,,,,428.99607758782804,430.05578304082155,430.05578304082155,430.05578304082155,430.05578304082155,430.05578304082155,430.05578304082155,430.05578304082155,430.05578304082155,430.05578304082155,430.05578304082155,430.05578304082155,430.05578304082155,None,,invalid,None,,433.48897015862167,,,,435.0020660161972,,,,,,,,,,,ST02_112822,2022-11-29_12h09.25.884,Hippopolis_4AFCT,2022.2.2,60.00097052832705,
Hippopolis,stimuli/subj_files/ST02_112822_cityA.csv,./stimuli/seattle.jpg,./stimuli/street_plate1.png,./stimuli/videos/hippopolis_part1.mp4,HAJÓ UTCA,stimuli/objects/021a.jpg,object,2,stimuli/scenes/015a.jpg,stimuli/scenes/015b.jpg,stimuli/scenes/090b.jpg,stimuli/scenes/015a.jpg,stimuli/scenes/090a.jpg,lure,dist2,target,dist1,0,1,1,0,0,13,13,57,,,,,,,435.0195703897625,436.05684326030314,436.05684326030314,436.05684326030314,436.05684326030314,436.05684326030314,436.05684326030314,436.05684326030314,436.05684326030314,436.05684326030314,436.05684326030314,436.05684326030314,436.05684326030314,j,3.590826904401183,target,None,,439.5103754848242,,,,,,,,,,,,,,,ST02_112822,2022-11-29_12h09.25.884,Hippopolis_4AFCT,2022.2.2,60.00097052832705,
Hippopolis,stimuli/subj_files/ST02_112822_cityA.csv,./stimuli/seattle.jpg,./stimuli/street_plate1.png,./stimuli/videos/hippopolis_part1.mp4,TOLLTARTÓ UTCA,stimuli/scenes/052a.jpg,scene,0,stimuli/scenes/052a.jpg,stimuli/scenes/052a.jpg,stimuli/objects/079b.jpg,stimuli/scenes/052b.jpg,stimuli/objects/079a.jpg,target,dist2,lure,dist1,0,1,1,0,0,14,14,43,,,,,,,439.6765266060829,440.7499449532479,440.7499449532479,440.7499449532479,440.7499449532479,440.7499449532479,440.7499449532479,440.7499449532479,440.7499449532479,440.7499449532479,440.7499449532479,440.7499449532479,440.7499449532479,d,2.082239083945751,target,None,,,,,,,,,,,,,,,,,ST02_112822,2022-11-29_12h09.25.884,Hippopolis_4AFCT,2022.2.2,60.00097052832705,
Hippopolis,stimuli/subj_files/ST02_112822_cityA.csv,./stimuli/seattle.jpg,./stimuli/street_plate1.png,./stimuli/videos/hippopolis_part1.mp4,AJÁNDÉK UTCA,stimuli/scenes/042a.jpg,scene,2,stimuli/objects/022a.jpg,stimuli/objects/022b.jpg,stimuli/objects/011b.jpg,stimuli/objects/022a.jpg,stimuli/objects/011a.jpg,lure,dist2,target,dist1,0,1,1,0,0,15,15,45,,,,,,,442.86727988906205,443.95034472085536,443.95034472085536,443.95034472085536,443.95034472085536,443.95034472085536,443.95034472085536,443.95034472085536,443.95034472085536,443.95034472085536,443.95034472085536,443.95034472085536,443.95034472085536,k,3.1861192621290684,dist1,None,,,,,,,,,,,,,,,,,ST02_112822,2022-11-29_12h09.25.884,Hippopolis_4AFCT,2022.2.2,60.00097052832705,
Hippopolis,stimuli/subj_files/ST02_112822_cityA.csv,./stimuli/seattle.jpg,./stimuli/street_plate1.png,./stimuli/videos/hippopolis_part1.mp4,KATONA UTCA,stimuli/scenes/028a.jpg,scene,1,stimuli/scenes/091a.jpg,stimuli/scenes/003b.jpg,stimuli/scenes/091a.jpg,stimuli/scenes/091b.jpg,stimuli/scenes/003a.jpg,dist2,target,lure,dist1,0,1,1,0,0,16,16,73,,,,,,,447.1571571286768,448.21661968529224,448.21661968529224,448.21661968529224,448.21661968529224,448.21661968529224,448.21661968529224,448.21661968529224,448.21661968529224,448.21661968529224,448.21661968529224,448.21661968529224,448.21661968529224,d,2.951531495898962,dist2,None,,,,,,,,,,,,,,,,,ST02_112822,2022-11-29_12h09.25.884,Hippopolis_4AFCT,2022.2.2,60.00097052832705,
Hippopolis,stimuli/subj_files/ST02_112822_cityA.csv,./stimuli/seattle.jpg,./stimuli/street_plate1.png,./stimuli/videos/hippopolis_part1.mp4,LÉTRA UTCA,stimuli/objects/048a.jpg,object,1,stimuli/objects/005a.jpg,stimuli/scenes/039b.jpg,stimuli/objects/005b.jpg,stimuli/scenes/039a.jpg,stimuli/objects/005a.jpg,dist2,lure,dist1,target,0,1,1,0,0,17,17,7,,,,,,,451.20852232165635,452.3792209792882,452.3792209792882,452.3792209792882,452.3792209792882,452.3792209792882,452.3792209792882,452.3792209792882,452.3792209792882,452.3792209792882,452.3792209792882,452.3792209792882,452.3792209792882,f,2.5483101531863213,lure,None,,,,,,,,,,,,,,,,,ST02_112822,2022-11-29_12h09.25.884,Hippopolis_4AFCT,2022.2.2,60.00097052832705,
Hippopolis,stimuli/subj_files/ST02_112822_cityA.csv,./stimuli/seattle.jpg,./stimuli/street_plate1.png,./stimuli/videos/hippopolis_part1.mp4,KUTYA UTCA,stimuli/objects/007a.jpg,object,2,stimuli/scenes/096a.jpg,stimuli/scenes/119a.jpg,stimuli/scenes/096a.jpg,stimuli/scenes/119b.jpg,stimuli/scenes/096b.jpg,dist1,target,dist2,lure,0,1,1,0,0,18,18,28,,,,,,,454.9595004376024,456.01384476199746,456.01384476199746,456.01384476199746,456.01384476199746,456.01384476199746,456.01384476199746,456.01384476199746,456.01384476199746,456.01384476199746,456.01384476199746,456.01384476199746,456.01384476199746,f,2.3057708851993084,target,None,456.01384476199746,,,,,,,,,,,,,,,,ST02_112822,2022-11-29_12h09.25.884,Hippopolis_4AFCT,2022.2.2,60.00097052832705,
Hippopolis,stimuli/subj_files/ST02_112822_cityA.csv,./stimuli/seattle.jpg,./stimuli/street_plate1.png,./stimuli/videos/hippopolis_part1.mp4,BETON UTCA,stimuli/scenes/022a.jpg,scene,1,stimuli/scenes/077a.jpg,stimuli/scenes/084b.jpg,stimuli/scenes/077b.jpg,stimuli/scenes/084a.jpg,stimuli/scenes/077a.jpg,dist2,lure,dist1,target,0,1,1,0,0,19,19,0,,,,,,,458.3501555658877,459.40294983424246,459.40294983424246,459.40294983424246,459.40294983424246,459.40294983424246,459.40294983424246,459.40294983424246,459.40294983424246,459.40294983424246,459.40294983424246,459.40294983424246,459.40294983424246,None,,invalid,None,,462.84336816333234,,,,,,,,,,,,,,,ST02_112822,2022-11-29_12h09.25.884,Hippopolis_4AFCT,2022.2.2,60.00097052832705,
Hippopolis,stimuli/subj_files/ST02_112822_cityA.csv,./stimuli/seattle.jpg,./stimuli/street_plate1.png,./stimuli/videos/hippopolis_part1.mp4,KÖNYVTÁR UTCA,stimuli/scenes/065a.jpg,scene,0,stimuli/scenes/065a.jpg,stimuli/scenes/065b.jpg,stimuli/scenes/118b.jpg,stimuli/scenes/065a.jpg,stimuli/scenes/118a.jpg,lure,dist2,target,dist1,0,1,1,0,0,20,20,34,,,,,,,464.3577204849571,465.430551962927,465.430551962927,465.430551962927,465.430551962927,465.430551962927,465.430551962927,465.430551962927,465.430551962927,465.430551962927,465.430551962927,465.430551962927,465.430551962927,j,2.4890771210193634,target,None,,,,,,,,,,,,,,,,,ST02_112822,2022-11-29_12h09.25.884,Hippopolis_4AFCT,2022.2.2,60.00097052832705,
Hippopolis,stimuli/subj_files/ST02_112822_cityA.csv,./stimuli/seattle.jpg,./stimuli/street_plate1.png,./stimuli/videos/hippopolis_part1.mp4,HARCSA UTCA,stimuli/objects/047a.jpg,object,2,stimuli/scenes/073a.jpg,stimuli/scenes/023b.jpg,stimuli/scenes/023a.jpg,stimuli/scenes/073b.jpg,stimuli/scenes/073a.jpg,dist2,dist1,lure,target,0,1,1,0,0,21,21,69,,,,,,,467.95105816982687,468.9812251664698,468.9812251664698,468.9812251664698,468.9812251664698,468.9812251664698,468.9812251664698,468.9812251664698,468.9812251664698,468.9812251664698,468.9812251664698,468.9812251664698,468.9812251664698,f,3.3862201534211636,dist1,None,,,,,,,,,,,,,,,,,ST02_112822,2022-11-29_12h09.25.884,Hippopolis_4AFCT,2022.2.2,60.00097052832705,
Hippopolis,stimuli/subj_files/ST02_112822_cityA.csv,./stimuli/seattle.jpg,./stimuli/street_plate1.png,./stimuli/videos/hippopolis_part1.mp4,FÜZET UTCA,stimuli/objects/071a.jpg,object,2,stimuli/scenes/009a.jpg,stimuli/scenes/009b.jpg,stimuli/scenes/074b.jpg,stimuli/scenes/009a.jpg,stimuli/scenes/074a.jpg,lure,dist2,target,dist1,0,1,1,0,0,22,22,64,,,,,,,472.3927606437355,473.4463921394199,473.4463921394199,473.4463921394199,473.4463921394199,473.4463921394199,473.4463921394199,473.4463921394199,473.4463921394199,473.4463921394199,473.4463921394199,473.4463921394199,473.4463921394199,j,2.4246605429798365,target,None,,,,,,,,,,,,,,,,,ST02_112822,2022-11-29_12h09.25.884,Hippopolis_4AFCT,2022.2.2,60.00097052832705,
Hippopolis,stimuli/subj_files/ST02_112822_cityA.csv,./stimuli/seattle.jpg,./stimuli/street_plate1.png,./stimuli/videos/hippopolis_part1.mp4,TRIATLON UTCA,stimuli/objects/026a.jpg,object,1,stimuli/objects/068a.jpg,stimuli/scenes/111b.jpg,stimuli/objects/068a.jpg,stimuli/scenes/111a.jpg,stimuli/objects/068b.jpg,dist2,target,dist1,lure,0,1,1,0,0,23,23,35,,,,,,,475.8930222000927,476.9476722422987,476.9476722422987,476.9476722422987,476.9476722422987,476.9476722422987,476.9476722422987,476.9476722422987,476.9476722422987,476.9476722422987,476.9476722422987,476.9476722422987,476.9476722422987,f,3.868074795231223,target,None,476.9476722422987,480.3830102812499,,,,,,,,,,,,,,,ST02_112822,2022-11-29_12h09.25.884,Hippopolis_4AFCT,2022.2.2,60.00097052832705,
Hippopolis,stimuli/subj_files/ST02_112822_cityA.csv,./stimuli/seattle.jpg,./stimuli/street_plate1.png,./stimuli/videos/hippopolis_part1.mp4,PETÁRDA UTCA,stimuli/objects/117a.jpg,object,0,stimuli/objects/117a.jpg,stimuli/objects/117a.jpg,stimuli/objects/055b.jpg,stimuli/objects/055a.jpg,stimuli/objects/117b.jpg,target,dist2,dist1,lure,0,1,1,0,0,24,24,74,,,,,,,480.8527310099453,481.9023424386978,481.9023424386978,481.9023424386978,481.9023424386978,481.9023424386978,481.9023424386978,481.9023424386978,481.9023424386978,481.9023424386978,481.9023424386978,481.9023424386978,481.9023424386978,d,2.1606649458408356,target,None,,,,,,,,,,,,,,,,,ST02_112822,2022-11-29_12h09.25.884,Hippopolis_4AFCT,2022.2.2,60.00097052832705,
Hippopolis,stimuli/subj_files/ST02_112822_cityA.csv,./stimuli/seattle.jpg,./stimuli/street_plate1.png,./stimuli/videos/hippopolis_part1.mp4,LEVÉL UTCA,stimuli/scenes/032a.jpg,scene,2,stimuli/objects/098a.jpg,stimuli/objects/098a.jpg,stimuli/objects/003b.jpg,stimuli/objects/003a.jpg,stimuli/objects/098b.jpg,target,dist2,dist1,lure,0,1,1,0,0,25,25,72,,,,,,,484.0910284612328,485.16164619475603,485.16164619475603,485.16164619475603,485.16164619475603,485.16164619475603,485.16164619475603,485.16164619475603,485.16164619475603,485.16164619475603,485.16164619475603,485.16164619475603,485.16164619475603,d,3.2534166909754276,target,None,,,,,,,,,,,,,,,,,ST02_112822,2022-11-29_12h09.25.884,Hippopolis_4AFCT,2022.2.2,60.00097052832705,
Hippopolis,stimuli/subj_files/ST02_112822_cityA.csv,./stimuli/seattle.jpg,./stimuli/street_plate1.png,./stimuli/videos/hippopolis_part1.mp4,ÁLOM UTCA,stimuli/scenes/018a.jpg,scene,2,stimuli/objects/011a.jpg,stimuli/objects/040a.jpg,stimuli/objects/040b.jpg,stimuli/objects/011b.jpg,stimuli/objects/011a.jpg,dist1,dist2,lure,target,0,1,1,0,0,26,26,54,,,,,,,488.44452050328255,489.5221688468009,489.5221688468009,489.5221688468009,489.5221688468009,489.5221688468009,489.5221688468009,489.5221688468009,489.5221688468009,489.5221688468009,489.5221688468009,489.5221688468009,489.5221688468009,f,3.581486450508237,dist2,None,,492.94593589380383,,,,,,,,,,,,,,,ST02_112822,2022-11-29_12h09.25.884,Hippopolis_4AFCT,2022.2.2,60.00097052832705,
Hippopolis,stimuli/subj_files/ST02_112822_cityA.csv,./stimuli/seattle.jpg,./stimuli/street_plate1.png,./stimuli/videos/hippopolis_part1.mp4,LABDA UTCA,stimuli/scenes/058a.jpg,scene,1,stimuli/scenes/055a.jpg,stimuli/scenes/091b.jpg,stimuli/scenes/091a.jpg,stimuli/scenes/055b.jpg,stimuli/scenes/055a.jpg,dist2,dist1,lure,target,0,1,1,0,0,27,27,75,,,,,,,493.13375794142485,494.18928719870746,494.18928719870746,494.18928719870746,494.18928719870746,494.18928719870746,494.18928719870746,494.18928719870746,494.18928719870746,494.18928719870746,494.18928719870746,494.18928719870746,494.18928719870746,d,3.2340139374136925,dist2,None,,,,,,,,,,,,,,,,,ST02_112822,2022-11-29_12h09.25.884,Hippopolis_4AFCT,2022.2.2,60.00097052832705,
Hippopolis,stimuli/subj_files/ST02_112822_cityA.csv,./stimuli/seattle.jpg,./stimuli/street_plate1.png,./stimuli/videos/hippopolis_part1.mp4,MOTOR UTCA,stimuli/objects/024a.jpg,object,2,stimuli/scenes/004a.jpg,stimuli/scenes/004b.jpg,stimuli/scenes/004a.jpg,stimuli/objects/077b.jpg,stimuli/objects/077a.jpg,lure,target,dist2,dist1,0,1,1,0,0,28,28,48,,,,,,,497.4514954444021,498.5206645093858,498.5206645093858,498.5206645093858,498.5206645093858,498.5206645093858,498.5206645093858,498.5206645093858,498.5206645093858,498.5206645093858,498.5206645093858,498.5206645093858,498.5206645093858,None,,invalid,None,,501.93789637833834,,,,,,,,,,,,,,,ST02_112822,2022-11-29_12h09.25.884,Hippopolis_4AFCT,2022.2.2,60.00097052832705,
Hippopolis,stimuli/subj_files/ST02_112822_cityA.csv,./stimuli/seattle.jpg,./stimuli/street_plate1.png,./stimuli/videos/hippopolis_part1.mp4,LIGET UTCA,stimuli/scenes/063a.jpg,scene,2,stimuli/objects/108a.jpg,stimuli/scenes/008a.jpg,stimuli/objects/108b.jpg,stimuli/objects/108a.jpg,stimuli/scenes/008b.jpg,dist1,lure,target,dist2,0,1,1,0,0,29,29,21,,,,,,,503.44598378799856,504.4872652217746,504.4872652217746,504.4872652217746,504.4872652217746,504.4872652217746,504.4872652217746,504.4872652217746,504.4872652217746,504.4872652217746,504.4872652217746,504.4872652217746,504.4872652217746,d,2.248503101989627,dist1,None,504.4872652217746,,,,,,,,,,,,,,,,ST02_112822,2022-11-29_12h09.25.884,Hippopolis_4AFCT,2022.2.2,60.00097052832705,
Hippopolis,stimuli/subj_files/ST02_112822_cityA.csv,./stimuli/seattle.jpg,./stimuli/street_plate1.png,./stimuli/videos/hippopolis_part1.mp4,TERASZ UTCA,stimuli/scenes/021a.jpg,scene,0,stimuli/scenes/021a.jpg,stimuli/scenes/021a.jpg,stimuli/scenes/025b.jpg,stimuli/scenes/021b.jpg,stimuli/scenes/025a.jpg,target,dist2,lure,dist1,0,1,1,0,0,30,30,60,,,,,,,506.76237992197275,507.8083475995809,507.8083475995809,507.8083475995809,507.8083475995809,507.8083475995809,507.8083475995809,507.8083475995809,507.8083475995809,507.8083475995809,507.8083475995809,507.8083475995809,507.8083475995809,d,3.678798794746399,target,None,,511.2595777530223,,,,,,,,,,,,,,,ST02_112822,2022-11-29_12h09.25.884,Hippopolis_4AFCT,2022.2.2,60.00097052832705,
Hippopolis,stimuli/subj_files/ST02_112822_cityA.csv,./stimuli/seattle.jpg,./stimuli/street_plate1.png,./stimuli/videos/hippopolis_part1.mp4,ÜVEG UTCA,stimuli/scenes/006a.jpg,scene,2,stimuli/objects/042a.jpg,stimuli/objects/042b.jpg,stimuli/objects/116a.jpg,stimuli/objects/116b.jpg,stimuli/objects/042a.jpg,lure,dist1,dist2,target,0,1,1,0,0,31,31,52,,,,,,,511.51681767217815,512.5560477059335,512.5560477059335,512.5560477059335,512.5560477059335,512.5560477059335,512.5560477059335,512.5560477059335,512.5560477059335,512.5560477059335,512.5560477059335,512.5560477059335,512.5560477059335,j,3.475474013015628,dist2,None,,516.0126918610185,,,,,,,,,,,,,,,ST02_112822,2022-11-29_12h09.25.884,Hippopolis_4AFCT,2022.2.2,60.00097052832705,
Hippopolis,stimuli/subj_files/ST02_112822_cityA.csv,./stimuli/seattle.jpg,./stimuli/street_plate1.png,./stimuli/videos/hippopolis_part1.mp4,FIÓK UTCA,stimuli/scenes/110a.jpg,scene,1,stimuli/scenes/078a.jpg,stimuli/objects/070b.jpg,stimuli/scenes/078b.jpg,stimuli/scenes/078a.jpg,stimuli/objects/070a.jpg,dist2,lure,target,dist1,0,1,1,0,0,32,32,47,,,,,,,516.0612256526947,517.1002218108624,517.1002218108624,517.1002218108624,517.1002218108624,517.1002218108624,517.1002218108624,517.1002218108624,517.1002218108624,517.1002218108624,517.1002218108624,517.1002218108624,517.1002218108624,j,4.38668262027204,target,None,,520.565255984664,,,,,,,,,,,,,,,ST02_112822,2022-11-29_12h09.25.884,Hippopolis_4AFCT,2022.2.2,60.00097052832705,
Hippopolis,stimuli/subj_files/ST02_112822_cityA.csv,./stimuli/seattle.jpg,./stimuli/street_plate1.png,./stimuli/videos/hippopolis_part1.mp4,KOKTÉL UTCA,stimuli/scenes/001a.jpg,scene,2,stimuli/objects/077a.jpg,stimuli/scenes/015a.jpg,stimuli/scenes/015b.jpg,stimuli/objects/077a.jpg,stimuli/objects/077b.jpg,dist1,dist2,target,lure,0,1,1,0,0,33,33,23,,,,,,,521.5105331651866,522.5332204587758,522.5332204587758,522.5332204587758,522.5332204587758,522.5332204587758,522.5332204587758,522.5332204587758,522.5332204587758,522.5332204587758,522.5332204587758,522.5332204587758,522.5332204587758,j,4.1539916805922985,target,None,522.5332204587758,526.0151121132076,,,,,,,,,,,,,,,ST02_112822,2022-11-29_12h09.25.884,Hippopolis_4AFCT,2022.2.2,60.00097052832705,
Hippopolis,stimuli/subj_files/ST02_112822_cityA.csv,./stimuli/seattle.jpg,./stimuli/street_plate1.png,./stimuli/videos/hippopolis_part1.mp4,FÉSZEK UTCA,stimuli/scenes/014a.jpg,scene,0,stimuli/scenes/014a.jpg,stimuli/scenes/014b.jpg,stimuli/objects/023b.jpg,stimuli/objects/023a.jpg,stimuli/scenes/014a.jpg,lure,dist2,dist1,target,0,1,1,0,0,34,34,17,,,,,,,526.7276694308966,527.7979882862419,527.7979882862419,527.7979882862419,527.7979882862419,527.7979882862419,527.7979882862419,527.7979882862419,527.7979882862419,527.7979882862419,527.7979882862419,527.7979882862419,527.7979882862419,k,1.752473410218954,target,None,,,,,,,,,,,,,,,,,ST02_112822,2022-11-29_12h09.25.884,Hippopolis_4AFCT,2022.2.2,60.00097052832705,
Hippopolis,stimuli/subj_files/ST02_112822_cityA.csv,./stimuli/seattle.jpg,./stimuli/street_plate1.png,./stimuli/videos/hippopolis_part1.mp4,BAGOLY UTCA,stimuli/objects/013a.jpg,object,1,stimuli/objects/120a.jpg,stimuli/objects/068b.jpg,stimuli/objects/120a.jpg,stimuli/objects/068a.jpg,stimuli/objects/120b.jpg,dist2,target,dist1,lure,0,1,1,0,0,35,35,26,,,,,,,529.5803136695176,530.6537139769644,530.6537139769644,530.6537139769644,530.6537139769644,530.6537139769644,530.6537139769644,530.6537139769644,530.6537139769644,530.6537139769644,530.6537139769644,530.6537139769644,530.6537139769644,f,2.3691309727728367,target,None,,,,,,,,,,,,,,,,,ST02_112822,2022-11-29_12h09.25.884,Hippopolis_4AFCT,2022.2.2,60.00097052832705,
Hippopolis,stimuli/subj_files/ST02_112822_cityA.csv,./stimuli/seattle.jpg,./stimuli/street_plate1.png,./stimuli/videos/hippopolis_part1.mp4,SZAXOFON UTCA,stimuli/objects/061a.jpg,object,0,stimuli/objects/061a.jpg,stimuli/objects/061a.jpg,stimuli/objects/020b.jpg,stimuli/objects/020a.jpg,stimuli/objects/061b.jpg,target,dist2,dist1,lure,0,1,1,0,0,36,36,10,,,,,,,533.0590862389654,534.1162339746952,534.1162339746952,534.1162339746952,534.1162339746952,534.1162339746952,534.1162339746952,534.1162339746952,534.1162339746952,534.1162339746952,534.1162339746952,534.1162339746952,534.1162339746952,d,3.1622044257819653,target,None,534.1162339746952,,,,,,,,,,,,,,,,ST02_112822,2022-11-29_12h09.25.884,Hippopolis_4AFCT,2022.2.2,60.00097052832705,
Hippopolis,stimuli/subj_files/ST02_112822_cityA.csv,./stimuli/seattle.jpg,./stimuli/street_plate1.png,./stimuli/videos/hippopolis_part1.mp4,MÁRVÁNY UTCA,stimuli/scenes/100a.jpg,scene,0,stimuli/scenes/100a.jpg,stimuli/objects/025a.jpg,stimuli/scenes/100a.jpg,stimuli/scenes/100b.jpg,stimuli/objects/025b.jpg,dist1,target,lure,dist2,0,1,1,0,0,37,37,24,,,,,,,537.308588007465,538.349513027817,538.349513027817,538.349513027817,538.349513027817,538.349513027817,538.349513027817,538.349513027817,538.349513027817,538.349513027817,538.349513027817,538.349513027817,538.349513027817,f,4.369142793118954,target,None,,541.8118296265602,,,,,,,,,,,,,,,ST02_112822,2022-11-29_12h09.25.884,Hippopolis_4AFCT,2022.2.2,60.00097052832705,
Hippopolis,stimuli/subj_files/ST02_112822_cityA.csv,./stimuli/seattle.jpg,./stimuli/street_plate1.png,./stimuli/videos/hippopolis_part1.mp4,SZÖCSKE UTCA,stimuli/objects/081a.jpg,object,1,stimuli/objects/038a.jpg,stimuli/scenes/099a.jpg,stimuli/objects/038b.jpg,stimuli/objects/038a.jpg,stimuli/scenes/099b.jpg,dist1,lure,target,dist2,0,1,1,0,0,38,38,66,,,,,,,542.7435991782695,543.8001858592033,543.8001858592033,543.8001858592033,543.8001858592033,543.8001858592033,543.8001858592033,543.8001858592033,543.8001858592033,543.8001858592033,543.8001858592033,543.8001858592033,543.8001858592033,f,3.366761727258563,lure,None,,,,,,,,,,,,,,,,,ST02_112822,2022-11-29_12h09.25.884,Hippopolis_4AFCT,2022.2.2,60.00097052832705,
Hippopolis,stimuli/subj_files/ST02_112822_cityA.csv,./stimuli/seattle.jpg,./stimuli/street_plate1.png,./stimuli/videos/hippopolis_part1.mp4,ECSET UTCA,stimuli/objects/025a.jpg,object,0,stimuli/objects/025a.jpg,stimuli/objects/025b.jpg,stimuli/scenes/052b.jpg,stimuli/objects/025a.jpg,stimuli/scenes/052a.jpg,lure,dist2,target,dist1,0,1,1,0,0,39,39,8,,,,,,,547.1966882180423,548.2549002170563,548.2549002170563,548.2549002170563,548.2549002170563,548.2549002170563,548.2549002170563,548.2549002170563,548.2549002170563,548.2549002170563,548.2549002170563,548.2549002170563,548.2549002170563,d,2.7842800337821245,lure,None,,,,,,,,,,,,,,,,,ST02_112822,2022-11-29_12h09.25.884,Hippopolis_4AFCT,2022.2.2,60.00097052832705,
Hippopolis,stimuli/subj_files/ST02_112822_cityA.csv,./stimuli/seattle.jpg,./stimuli/street_plate1.png,./stimuli/videos/hippopolis_part1.mp4,BONBON UTCA,stimuli/objects/020a.jpg,object,0,stimuli/objects/020a.jpg,stimuli/scenes/094a.jpg,stimuli/scenes/094b.jpg,stimuli/objects/020b.jpg,stimuli/objects/020a.jpg,dist1,dist2,lure,target,0,1,1,0,0,40,40,59,,,,,,,551.0633840374649,552.1111639477313,552.1111639477313,552.1111639477313,552.1111639477313,552.1111639477313,552.1111639477313,552.1111639477313,552.1111639477313,552.1111639477313,552.1111639477313,552.1111639477313,552.1111639477313,k,1.8392799589782953,target,None,,,,,,,,,,,,,,,,,ST02_112822,2022-11-29_12h09.25.884,Hippopolis_4AFCT,2022.2.2,60.00097052832705,
Hippopolis,stimuli/subj_files/ST02_112822_cityA.csv,./stimuli/seattle.jpg,./stimuli/street_plate1.png,./stimuli/videos/hippopolis_part1.mp4,MENTA UTCA,stimuli/objects/058a.jpg,object,2,stimuli/scenes/090a.jpg,stimuli/scenes/090a.jpg,stimuli/scenes/090b.jpg,stimuli/scenes/046a.jpg,stimuli/scenes/046b.jpg,target,lure,dist1,dist2,0,1,1,0,0,41,41,51,,,,,,,553.9934648238122,555.0553793534636,555.0553793534636,555.0553793534636,555.0553793534636,555.0553793534636,555.0553793534636,555.0553793534636,555.0553793534636,555.0553793534636,555.0553793534636,555.0553793534636,555.0553793534636,j,2.0790438037365675,dist1,None,,,,,,,,,,,,,,,,,ST02_112822,2022-11-29_12h09.25.884,Hippopolis_4AFCT,2022.2.2,60.00097052832705,
Hippopolis,stimuli/subj_files/ST02_112822_cityA.csv,./stimuli/seattle.jpg,./stimuli/street_plate1.png,./stimuli/videos/hippopolis_part1.mp4,ÁRNYÉK UTCA,stimuli/objects/035a.jpg,object,1,stimuli/objects/059a.jpg,stimuli/objects/059a.jpg,stimuli/scenes/078b.jpg,stimuli/objects/059b.jpg,stimuli/scenes/078a.jpg,target,dist2,lure,dist1,0,1,1,0,0,42,42,29,,,,,,,557.1734815426171,558.2287803459913,558.2287803459913,558.2287803459913,558.2287803459913,558.2287803459913,558.2287803459913,558.2287803459913,558.2287803459913,558.2287803459913,558.2287803459913,558.2287803459913,558.2287803459913,j,2.857314597815275,lure,None,,,,,,,,,,,,,,,,,ST02_112822,2022-11-29_12h09.25.884,Hippopolis_4AFCT,2022.2.2,60.00097052832705,
Hippopolis,stimuli/subj_files/ST02_112822_cityA.csv,./stimuli/seattle.jpg,./stimuli/street_plate1.png,./stimuli/videos/hippopolis_part1.mp4,CITROM UTCA,stimuli/scenes/103a.jpg,scene,1,stimuli/scenes/105a.jpg,stimuli/objects/120a.jpg,stimuli/scenes/105a.jpg,stimuli/scenes/105b.jpg,stimuli/objects/120b.jpg,dist1,target,lure,dist2,0,1,1,0,0,43,43,40,,,,,,,561.1108607165515,562.1631324943155,562.1631324943155,562.1631324943155,562.1631324943155,562.1631324943155,562.1631324943155,562.1631324943155,562.1631324943155,562.1631324943155,562.1631324943155,562.1631324943155,562.1631324943155,f,1.9949171990156174,target,None,562.1631324943155,,,,,,,,,,,,,,,,ST02_112822,2022-11-29_12h09.25.884,Hippopolis_4AFCT,2022.2.2,60.00097052832705,
Hippopolis,stimuli/subj_files/ST02_112822_cityA.csv,./stimuli/seattle.jpg,./stimuli/street_plate1.png,./stimuli/videos/hippopolis_part1.mp4,PAPUCS UTCA,stimuli/objects/099a.jpg,object,1,stimuli/objects/115a.jpg,stimuli/objects/115b.jpg,stimuli/objects/103b.jpg,stimuli/objects/103a.jpg,stimuli/objects/115a.jpg,lure,dist2,dist1,target,0,1,1,0,0,44,44,30,,,,,,,564.1964462548494,565.2782048601657,565.2782048601657,565.2782048601657,565.2782048601657,565.2782048601657,565.2782048601657,565.2782048601657,565.2782048601657,565.2782048601657,565.2782048601657,565.2782048601657,565.2782048601657,k,3.904218714684248,target,space,,568.6961871869862,569.2174021769315,569.2174021769315,1.7735630646348,,,,,,,,,,,,ST02_112822,2022-11-29_12h09.25.884,Hippopolis_4AFCT,2022.2.2,60.00097052832705,
Hippopolis,stimuli/subj_files/ST02_112822_cityA.csv,./stimuli/seattle.jpg,./stimuli/street_plate1.png,./stimuli/videos/hippopolis_part1.mp4,OLDAL UTCA,stimuli/scenes/087a.jpg,scene,2,stimuli/objects/086a.jpg,stimuli/objects/086b.jpg,stimuli/objects/046a.jpg,stimuli/objects/046b.jpg,stimuli/objects/086a.jpg,lure,dist1,dist2,target,0,1,1,0,0,45,45,61,,,,,,,571.0184694267809,572.0769871454686,572.0769871454686,572.0769871454686,572.0769871454686,572.0769871454686,572.0769871454686,572.0769871454686,572.0769871454686,572.0769871454686,572.0769871454686,572.0769871454686,572.0769871454686,None,,invalid,None,,575.519885128364,,,,,,,,,,,,,,,ST02_112822,2022-11-29_12h09.25.884,Hippopolis_4AFCT,2022.2.2,60.00097052832705,
Hippopolis,stimuli/subj_files/ST02_112822_cityA.csv,./stimuli/seattle.jpg,./stimuli/street_plate1.png,./stimuli/videos/hippopolis_part1.mp4,KARTON UTCA,stimuli/objects/073a.jpg,object,1,stimuli/objects/075a.jpg,stimuli/objects/057a.jpg,stimuli/objects/075b.jpg,stimuli/objects/075a.jpg,stimuli/objects/057b.jpg,dist1,lure,target,dist2,0,1,1,0,0,46,46,1,,,,,,,577.0264156404883,578.1003850884736,578.1003850884736,578.1003850884736,578.1003850884736,578.1003850884736,578.1003850884736,578.1003850884736,578.1003850884736,578.1003850884736,578.1003850884736,578.1003850884736,578.1003850884736,f,2.8898915834724903,lure,None,,,,,,,,,,,,,,,,,ST02_112822,2022-11-29_12h09.25.884,Hippopolis_4AFCT,2022.2.2,60.00097052832705,
Hippopolis,stimuli/subj_files/ST02_112822_cityA.csv,./stimuli/seattle.jpg,./stimuli/street_plate1.png,./stimuli/videos/hippopolis_part1.mp4,TÁNYÉR UTCA,stimuli/objects/105a.jpg,object,0,stimuli/objects/105a.jpg,stimuli/scenes/048b.jpg,stimuli/objects/105b.jpg,stimuli/scenes/048a.jpg,stimuli/objects/105a.jpg,dist2,lure,dist1,target,0,1,1,0,0,47,47,36,,,,,,,581.0085368156433,582.0594883710146,582.0594883710146,582.0594883710146,582.0594883710146,582.0594883710146,582.0594883710146,582.0594883710146,582.0594883710146,582.0594883710146,582.0594883710146,582.0594883710146,582.0594883710146,j,4.898775480687618,dist1,None,,585.4993994478136,,,,,,,,,,,,,,,ST02_112822,2022-11-29_12h09.25.884,Hippopolis_4AFCT,2022.2.2,60.00097052832705,
Hippopolis,stimuli/subj_files/ST02_112822_cityA.csv,./stimuli/seattle.jpg,./stimuli/street_plate1.png,./stimuli/videos/hippopolis_part1.mp4,RIBIZLI UTCA,stimuli/objects/118a.jpg,object,2,stimuli/scenes/023a.jpg,stimuli/scenes/023a.jpg,stimuli/objects/008b.jpg,stimuli/scenes/023b.jpg,stimuli/objects/008a.jpg,target,dist2,lure,dist1,0,1,1,0,0,48,48,79,,,,,,,586.9917035941035,588.0501189921051,588.0501189921051,588.0501189921051,588.0501189921051,588.0501189921051,588.0501189921051,588.0501189921051,588.0501189921051,588.0501189921051,588.0501189921051,588.0501189921051,588.0501189921051,d,3.2600485924631357,target,None,,,,,,,,,,,,,,,,,ST02_112822,2022-11-29_12h09.25.884,Hippopolis_4AFCT,2022.2.2,60.00097052832705,
Hippopolis,stimuli/subj_files/ST02_112822_cityA.csv,./stimuli/seattle.jpg,./stimuli/street_plate1.png,./stimuli/videos/hippopolis_part1.mp4,SZALVÉTA UTCA,stimuli/scenes/035a.jpg,scene,1,stimuli/scenes/099a.jpg,stimuli/objects/059b.jpg,stimuli/scenes/099a.jpg,stimuli/scenes/099b.jpg,stimuli/objects/059a.jpg,dist2,target,lure,dist1,0,1,1,0,0,49,49,56,,,,,,,591.3484453428537,592.3854930456728,592.3854930456728,592.3854930456728,592.3854930456728,592.3854930456728,592.3854930456728,592.3854930456728,592.3854930456728,592.3854930456728,592.3854930456728,592.3854930456728,592.3854930456728,f,2.172463594004512,target,None,,,,,,,,,,,,,,,,,ST02_112822,2022-11-29_12h09.25.884,Hippopolis_4AFCT,2022.2.2,60.00097052832705,
Hippopolis,stimuli/subj_files/ST02_112822_cityA.csv,./stimuli/seattle.jpg,./stimuli/street_plate1.png,./stimuli/videos/hippopolis_part1.mp4,KOSÁR UTCA,stimuli/scenes/088a.jpg,scene,2,stimuli/objects/003a.jpg,stimuli/objects/003b.jpg,stimuli/scenes/096b.jpg,stimuli/scenes/096a.jpg,stimuli/objects/003a.jpg,lure,dist2,dist1,target,0,1,1,0,0,50,50,68,,,,,,,594.5909681264311,595.6322887465358,595.6322887465358,595.6322887465358,595.6322887465358,595.6322887465358,595.6322887465358,595.6322887465358,595.6322887465358,595.6322887465358,595.6322887465358,595.6322887465358,595.6322887465358,d,2.9419960398226976,lure,None,,,,,,,,,,,,,,,,,ST02_112822,2022-11-29_12h09.25.884,Hippopolis_4AFCT,2022.2.2,60.00097052832705,
Hippopolis,stimuli/subj_files/ST02_112822_cityA.csv,./stimuli/seattle.jpg,./stimuli/street_plate1.png,./stimuli/videos/hippopolis_part1.mp4,KÁRTYA UTCA,stimuli/objects/023a.jpg,object,0,stimuli/objects/023a.jpg,stimuli/objects/023b.jpg,stimuli/objects/023a.jpg,stimuli/scenes/100b.jpg,stimuli/scenes/100a.jpg,lure,target,dist2,dist1,0,1,1,0,0,51,51,37,,,,,,,598.5926432069391,599.6401251740754,599.6401251740754,599.6401251740754,599.6401251740754,599.6401251740754,599.6401251740754,599.6401251740754,599.6401251740754,599.6401251740754,599.6401251740754,599.6401251740754,599.6401251740754,d,4.518343131989241,lure,None,,603.0936695281416,,,,,,,,,,,,,,,ST02_112822,2022-11-29_12h09.25.884,Hippopolis_4AFCT,2022.2.2,60.00097052832705,
Hippopolis,stimuli/subj_files/ST02_112822_cityA.csv,./stimuli/seattle.jpg,./stimuli/street_plate1.png,./stimuli/videos/hippopolis_part1.mp4,KOCSI UTCA,stimuli/objects/029a.jpg,object,2,stimuli/scenes/119a.jpg,stimuli/scenes/068b.jpg,stimuli/scenes/119b.jpg,stimuli/scenes/068a.jpg,stimuli/scenes/119a.jpg,dist2,lure,dist1,target,0,1,1,0,0,52,52,76,,,,,,,604.1861395034939,605.2426782883704,605.2426782883704,605.2426782883704,605.2426782883704,605.2426782883704,605.2426782883704,605.2426782883704,605.2426782883704,605.2426782883704,605.2426782883704,605.2426782883704,605.2426782883704,k,3.6669662445783615,target,None,,608.691384004429,,,,,,,,,,,,,,,ST02_112822,2022-11-29_12h09.25.884,Hippopolis_4AFCT,2022.2.2,60.00097052832705,
Hippopolis,stimuli/subj_files/ST02_112822_cityA.csv,./stimuli/seattle.jpg,./stimuli/street_plate1.png,./stimuli/videos/hippopolis_part1.mp4,TULIPÁN UTCA,stimuli/scenes/094a.jpg,scene,0,stimuli/scenes/094a.jpg,stimuli/scenes/014a.jpg,stimuli/scenes/094b.jpg,stimuli/scenes/014b.jpg,stimuli/scenes/094a.jpg,dist1,lure,dist2,target,0,1,1,0,0,53,53,62,,,,,,,608.9343857392669,609.9675754066557,609.9675754066557,609.9675754066557,609.9675754066557,609.9675754066557,609.9675754066557,609.9675754066557,609.9675754066557,609.9675754066557,609.9675754066557,609.9675754066557,609.9675754066557,f,2.9740751050412655,lure,None,,,,,,,,,,,,,,,,,ST02_112822,2022-11-29_12h09.25.884,Hippopolis_4AFCT,2022.2.2,60.00097052832705,
