CityName,StimuliFile,CityImage,StreetSign,LearningVideoFile,UpdatingVideoFile,Cue,Image,Category,CorrectResponse,Novelty,UpdateImage,TestImage1,TestImage2,TestImage3,TestImage4,TestImage1Type,TestImage2Type,TestImage3Type,TestImage4Type,CityBlock.thisRepN,CityBlock.thisTrialN,CityBlock.thisN,CityBlock.thisIndex,LearningTrials.thisRepN,LearningTrials.thisTrialN,LearningTrials.thisN,LearningTrials.thisIndex,trials.thisRepN,trials.thisTrialN,trials.thisN,trials.thisIndex,learning_instructions_text.started,intro_key.started,intro_key.keys,intro_key.rt,cityname_text_intro.started,city_image.started,load_video.started,movie.started,end_vid_key.started,end_vid_key.keys,text_countdown.started,cityname_text_start.started,fx_cross.started,plate.started,city_text.started,street_text.started,learning_image.started,key_resp_2.started,key_resp_2.keys,short_break_key.keys,fx_cross.stopped,short_break_text.started,short_break_key.started,short_break_key.rt,test_text.started,key_resp.started,key_resp.keys,key_resp.rt,plate_test.started,city_text_test.started,street_text_test.started,test_question.started,test_key_resp.started,button_image.started,test_key_resp.keys,test_key_resp.corr,text_response_test.text,written_text_mouse.x,written_text_mouse.y,written_text_mouse.leftButton,written_text_mouse.midButton,written_text_mouse.rightButton,written_text_mouse.time,test_key_resp.rt,plate_verbal.started,street_text_verbal.started,city_text_verbal.started,question_verbal.started,text_response_test.started,written_text_mouse.started,break_text.started,break_key_resp.started,break_key_resp.keys,break_key_resp.rt,end_text.started,participant,date,expName,psychopyVersion,frameRate,
,,,,,,,,,,,,,,,,,,,,,,,,,,,,,,,,16.72190772742033,16.72190772742033,space,1.755187515169382,,,,,,,,,,,,,,,,,,,,,,,,,,,,,,,,,,,,,,,,,,,,,,,,,,,,ST02_120922,2022-12-09_14h14.06.800,Hippopolis_Learning,2022.2.2,59.990447716017336,
Camponello,stimuli/subj_files/ST02_120922_cityB.csv,./stimuli/arnedillo.png,./stimuli/street_plate2.png,./stimuli/videos/camponello_part,./stimuli/videos/campo-satellite.mp4,LEMEZ UTCA,stimuli/scenes/041a.jpg,scene,right,0,stimuli/scenes/041a.jpg,stimuli/objects/057a.jpg,stimuli/scenes/041b.jpg,stimuli/objects/057b.jpg,stimuli/scenes/041a.jpg,dist1,lure,dist2,target,0,0,0,0,0,0,0,1,,,,,,,,,18.599763698875904,18.599763698875904,0.07629484310746193,21.72772603482008,21.72772603482008,None,37.10976566374302,37.10976566374302,39.537459475919604,40.56873645633459,40.56873645633459,40.56873645633459,40.56873645633459,40.56873645633459,None,None,,,,,,,,,,,,,,,,,,,,,,,,,,,,,,,,,,,,ST02_120922,2022-12-09_14h14.06.800,Hippopolis_Learning,2022.2.2,59.990447716017336,
Camponello,stimuli/subj_files/ST02_120922_cityB.csv,./stimuli/arnedillo.png,./stimuli/street_plate2.png,./stimuli/videos/camponello_part,./stimuli/videos/campo-satellite.mp4,PAPRIKA UTCA,stimuli/scenes/099a.jpg,scene,right,1,stimuli/scenes/076a.jpg,stimuli/objects/048a.jpg,stimuli/objects/048b.jpg,stimuli/scenes/076b.jpg,stimuli/scenes/076a.jpg,dist1,dist2,lure,target,0,0,0,0,0,1,1,41,,,,,,,,,,,,,,,,,43.50436684116721,44.563826287165284,44.563826287165284,44.563826287165284,44.563826287165284,44.563826287165284,None,None,,,,,,,,,,,,,,,,,,,,,,,,,,,,,,,,,,,,ST02_120922,2022-12-09_14h14.06.800,Hippopolis_Learning,2022.2.2,59.990447716017336,
Camponello,stimuli/subj_files/ST02_120922_cityB.csv,./stimuli/arnedillo.png,./stimuli/street_plate2.png,./stimuli/videos/camponello_part,./stimuli/videos/campo-satellite.mp4,KÍGYÓ UTCA,stimuli/objects/057a.jpg,object,left,0,stimuli/objects/057a.jpg,stimuli/scenes/071b.jpg,stimuli/objects/057a.jpg,stimuli/scenes/071a.jpg,stimuli/objects/057b.jpg,dist2,target,dist1,lure,0,0,0,0,0,2,2,12,,,,,,,,,,,,,,,,,47.520903361961246,48.56171082146466,48.56171082146466,48.56171082146466,48.56171082146466,48.56171082146466,None,None,,,,,,,,,,,,,,,,,,,,,,,,,,,,,,,,,,,,ST02_120922,2022-12-09_14h14.06.800,Hippopolis_Learning,2022.2.2,59.990447716017336,
Camponello,stimuli/subj_files/ST02_120922_cityB.csv,./stimuli/arnedillo.png,./stimuli/street_plate2.png,./stimuli/videos/camponello_part,./stimuli/videos/campo-satellite.mp4,KATONA UTCA,stimuli/scenes/017a.jpg,scene,right,1,stimuli/scenes/100a.jpg,stimuli/scenes/076a.jpg,stimuli/scenes/100a.jpg,stimuli/scenes/100b.jpg,stimuli/scenes/076b.jpg,dist1,target,lure,dist2,0,0,0,0,0,3,3,48,,,,,,,,,,,,,,,,,51.52546831406653,52.56548021920025,52.56548021920025,52.56548021920025,52.56548021920025,52.56548021920025,None,None,,,,,,,,,,,,,,,,,,,,,,,,,,,,,,,,,,,,ST02_120922,2022-12-09_14h14.06.800,Hippopolis_Learning,2022.2.2,59.990447716017336,
Camponello,stimuli/subj_files/ST02_120922_cityB.csv,./stimuli/arnedillo.png,./stimuli/street_plate2.png,./stimuli/videos/camponello_part,./stimuli/videos/campo-satellite.mp4,SUGÁR UTCA,stimuli/objects/075a.jpg,object,left,2,stimuli/scenes/103a.jpg,stimuli/objects/007a.jpg,stimuli/objects/007b.jpg,stimuli/scenes/103b.jpg,stimuli/scenes/103a.jpg,dist1,dist2,lure,target,0,0,0,0,0,4,4,51,,,,,,,,,,,,,,,,,55.53332153707743,56.59529329277575,56.59529329277575,56.59529329277575,56.59529329277575,56.59529329277575,None,None,,,,,,,,,,,,,,,,,,,,,,,,,,,,,,,,,,,,ST02_120922,2022-12-09_14h14.06.800,Hippopolis_Learning,2022.2.2,59.990447716017336,
Camponello,stimuli/subj_files/ST02_120922_cityB.csv,./stimuli/arnedillo.png,./stimuli/street_plate2.png,./stimuli/videos/camponello_part,./stimuli/videos/campo-satellite.mp4,MOSODA UTCA,stimuli/scenes/096a.jpg,scene,right,0,stimuli/scenes/096a.jpg,stimuli/scenes/096b.jpg,stimuli/scenes/106a.jpg,stimuli/scenes/096a.jpg,stimuli/scenes/106b.jpg,lure,dist1,target,dist2,0,0,0,0,0,5,5,14,,,,,,,,,,,,,,,,,59.536482606083155,60.58839361555874,60.58839361555874,60.58839361555874,60.58839361555874,60.58839361555874,None,None,60.58839361555874,,,,,,,,,,,,,,,,,,,,,,,,,,,,,,,,,,,ST02_120922,2022-12-09_14h14.06.800,Hippopolis_Learning,2022.2.2,59.990447716017336,
Camponello,stimuli/subj_files/ST02_120922_cityB.csv,./stimuli/arnedillo.png,./stimuli/street_plate2.png,./stimuli/videos/camponello_part,./stimuli/videos/campo-satellite.mp4,FÉSŰ UTCA,stimuli/scenes/039a.jpg,scene,right,2,stimuli/objects/065a.jpg,stimuli/objects/077b.jpg,stimuli/objects/065a.jpg,stimuli/objects/077a.jpg,stimuli/objects/065b.jpg,dist2,target,dist1,lure,0,0,0,0,0,6,6,45,,,,,,,,,,,,,,,,,63.53761404752731,64.60292383469641,64.60292383469641,64.60292383469641,64.60292383469641,64.60292383469641,None,None,,,,,,,,,,,,,,,,,,,,,,,,,,,,,,,,,,,,ST02_120922,2022-12-09_14h14.06.800,Hippopolis_Learning,2022.2.2,59.990447716017336,
Camponello,stimuli/subj_files/ST02_120922_cityB.csv,./stimuli/arnedillo.png,./stimuli/street_plate2.png,./stimuli/videos/camponello_part,./stimuli/videos/campo-satellite.mp4,SZALVÉTA UTCA,stimuli/scenes/086a.jpg,scene,right,0,stimuli/scenes/086a.jpg,stimuli/objects/021b.jpg,stimuli/objects/021a.jpg,stimuli/scenes/086a.jpg,stimuli/scenes/086b.jpg,dist2,dist1,target,lure,0,0,0,0,0,7,7,65,,,,,,,,,,,,,,,,,67.5403397064656,68.58780052699149,68.58780052699149,68.58780052699149,68.58780052699149,68.58780052699149,None,None,,,,,,,,,,,,,,,,,,,,,,,,,,,,,,,,,,,,ST02_120922,2022-12-09_14h14.06.800,Hippopolis_Learning,2022.2.2,59.990447716017336,
Camponello,stimuli/subj_files/ST02_120922_cityB.csv,./stimuli/arnedillo.png,./stimuli/street_plate2.png,./stimuli/videos/camponello_part,./stimuli/videos/campo-satellite.mp4,MAJOM UTCA,stimuli/objects/073a.jpg,object,left,2,stimuli/scenes/020a.jpg,stimuli/scenes/021a.jpg,stimuli/scenes/020b.jpg,stimuli/scenes/021b.jpg,stimuli/scenes/020a.jpg,dist1,lure,dist2,target,0,0,0,0,0,8,8,73,,,,,,,,,,,,,,,,,71.55431571230292,72.60906932130456,72.60906932130456,72.60906932130456,72.60906932130456,72.60906932130456,None,None,,,,,,,,,,,,,,,,,,,,,,,,,,,,,,,,,,,,ST02_120922,2022-12-09_14h14.06.800,Hippopolis_Learning,2022.2.2,59.990447716017336,
Camponello,stimuli/subj_files/ST02_120922_cityB.csv,./stimuli/arnedillo.png,./stimuli/street_plate2.png,./stimuli/videos/camponello_part,./stimuli/videos/campo-satellite.mp4,SAJTÓ UTCA,stimuli/objects/078a.jpg,object,left,0,stimuli/objects/078a.jpg,stimuli/scenes/023a.jpg,stimuli/objects/078a.jpg,stimuli/scenes/023b.jpg,stimuli/objects/078b.jpg,dist1,target,dist2,lure,0,0,0,0,0,9,9,67,,,,,,,,,,,,,,,,,75.57134082354605,76.60578322783113,76.60578322783113,76.60578322783113,76.60578322783113,76.60578322783113,None,None,,,,,,,,,,,,,,,,,,,,,,,,,,,,,,,,,,,,ST02_120922,2022-12-09_14h14.06.800,Hippopolis_Learning,2022.2.2,59.990447716017336,
Camponello,stimuli/subj_files/ST02_120922_cityB.csv,./stimuli/arnedillo.png,./stimuli/street_plate2.png,./stimuli/videos/camponello_part,./stimuli/videos/campo-satellite.mp4,LÉTRA UTCA,stimuli/objects/021a.jpg,object,left,0,stimuli/objects/021a.jpg,stimuli/objects/078a.jpg,stimuli/objects/021b.jpg,stimuli/objects/078b.jpg,stimuli/objects/021a.jpg,dist1,lure,dist2,target,0,0,0,0,0,10,10,68,,,,,,,,,,,,,,,,,79.57333468645811,80.63403598032892,80.63403598032892,80.63403598032892,80.63403598032892,80.63403598032892,None,None,,,,,,,,,,,,,,,,,,,,,,,,,,,,,,,,,,,,ST02_120922,2022-12-09_14h14.06.800,Hippopolis_Learning,2022.2.2,59.990447716017336,
Camponello,stimuli/subj_files/ST02_120922_cityB.csv,./stimuli/arnedillo.png,./stimuli/street_plate2.png,./stimuli/videos/camponello_part,./stimuli/videos/campo-satellite.mp4,KERÉK UTCA,stimuli/scenes/077a.jpg,scene,right,0,stimuli/scenes/077a.jpg,stimuli/scenes/077a.jpg,stimuli/scenes/041b.jpg,stimuli/scenes/041a.jpg,stimuli/scenes/077b.jpg,target,dist2,dist1,lure,0,0,0,0,0,11,11,39,,,,,,,,,,,,,,,,,83.58576001413167,84.64000885747373,84.64000885747373,84.64000885747373,84.64000885747373,84.64000885747373,None,None,,,,,,,,,,,,,,,,,,,,,,,,,,,,,,,,,,,,ST02_120922,2022-12-09_14h14.06.800,Hippopolis_Learning,2022.2.2,59.990447716017336,
Camponello,stimuli/subj_files/ST02_120922_cityB.csv,./stimuli/arnedillo.png,./stimuli/street_plate2.png,./stimuli/videos/camponello_part,./stimuli/videos/campo-satellite.mp4,LOVAGLÁS UTCA,stimuli/objects/016a.jpg,object,left,2,stimuli/scenes/026a.jpg,stimuli/scenes/026b.jpg,stimuli/objects/065a.jpg,stimuli/scenes/026a.jpg,stimuli/objects/065b.jpg,lure,dist1,target,dist2,0,0,0,0,0,12,12,36,,,,,,,,,,,,,,,,,87.59057128243148,88.64741236530244,88.64741236530244,88.64741236530244,88.64741236530244,88.64741236530244,None,None,,,,,,,,,,,,,,,,,,,,,,,,,,,,,,,,,,,,ST02_120922,2022-12-09_14h14.06.800,Hippopolis_Learning,2022.2.2,59.990447716017336,
Camponello,stimuli/subj_files/ST02_120922_cityB.csv,./stimuli/arnedillo.png,./stimuli/street_plate2.png,./stimuli/videos/camponello_part,./stimuli/videos/campo-satellite.mp4,AKÁC UTCA,stimuli/objects/100a.jpg,object,left,1,stimuli/objects/045a.jpg,stimuli/objects/045b.jpg,stimuli/scenes/051b.jpg,stimuli/objects/045a.jpg,stimuli/scenes/051a.jpg,lure,dist2,target,dist1,0,0,0,0,0,13,13,3,,,,,,,,,,,,,,,,,91.5910968836397,92.64733896777034,92.64733896777034,92.64733896777034,92.64733896777034,92.64733896777034,None,None,,,,,,,,,,,,,,,,,,,,,,,,,,,,,,,,,,,,ST02_120922,2022-12-09_14h14.06.800,Hippopolis_Learning,2022.2.2,59.990447716017336,
Camponello,stimuli/subj_files/ST02_120922_cityB.csv,./stimuli/arnedillo.png,./stimuli/street_plate2.png,./stimuli/videos/camponello_part,./stimuli/videos/campo-satellite.mp4,FÉNYKÉP UTCA,stimuli/objects/005a.jpg,object,left,0,stimuli/objects/005a.jpg,stimuli/objects/005b.jpg,stimuli/objects/005a.jpg,stimuli/scenes/120b.jpg,stimuli/scenes/120a.jpg,lure,target,dist2,dist1,0,0,0,0,0,14,14,71,,,,,,,,,,,,,,,,,95.60793041437864,96.67458561621606,96.67458561621606,96.67458561621606,96.67458561621606,96.67458561621606,None,None,,,,,,,,,,,,,,,,,,,,,,,,,,,,,,,,,,,,ST02_120922,2022-12-09_14h14.06.800,Hippopolis_Learning,2022.2.2,59.990447716017336,
Camponello,stimuli/subj_files/ST02_120922_cityB.csv,./stimuli/arnedillo.png,./stimuli/street_plate2.png,./stimuli/videos/camponello_part,./stimuli/videos/campo-satellite.mp4,TULIPÁN UTCA,stimuli/scenes/119a.jpg,scene,right,0,stimuli/scenes/119a.jpg,stimuli/scenes/119b.jpg,stimuli/objects/035b.jpg,stimuli/objects/035a.jpg,stimuli/scenes/119a.jpg,lure,dist2,dist1,target,0,0,0,0,0,15,15,18,,,,,,,,,,,,,,,,,99.62468308582902,100.67054035514593,100.67054035514593,100.67054035514593,100.67054035514593,100.67054035514593,None,None,,,,,,,,,,,,,,,,,,,,,,,,,,,,,,,,,,,,ST02_120922,2022-12-09_14h14.06.800,Hippopolis_Learning,2022.2.2,59.990447716017336,
Camponello,stimuli/subj_files/ST02_120922_cityB.csv,./stimuli/arnedillo.png,./stimuli/street_plate2.png,./stimuli/videos/camponello_part,./stimuli/videos/campo-satellite.mp4,KESZTYŰ UTCA,stimuli/objects/074a.jpg,object,left,2,stimuli/scenes/024a.jpg,stimuli/scenes/024a.jpg,stimuli/objects/072b.jpg,stimuli/scenes/024b.jpg,stimuli/objects/072a.jpg,target,dist2,lure,dist1,0,0,0,0,0,16,16,11,,,,,,,,,,,,,,,,,103.63127735443413,104.68769577890635,104.68769577890635,104.68769577890635,104.68769577890635,104.68769577890635,None,None,,,,,,,,,,,,,,,,,,,,,,,,,,,,,,,,,,,,ST02_120922,2022-12-09_14h14.06.800,Hippopolis_Learning,2022.2.2,59.990447716017336,
Camponello,stimuli/subj_files/ST02_120922_cityB.csv,./stimuli/arnedillo.png,./stimuli/street_plate2.png,./stimuli/videos/camponello_part,./stimuli/videos/campo-satellite.mp4,KESELYŰ UTCA,stimuli/scenes/053a.jpg,scene,right,0,stimuli/scenes/053a.jpg,stimuli/scenes/054a.jpg,stimuli/scenes/053b.jpg,stimuli/scenes/054b.jpg,stimuli/scenes/053a.jpg,dist1,lure,dist2,target,0,0,0,0,0,17,17,30,,,,,,,,,,,,,,,,,107.64181736111641,108.68653292581439,108.68653292581439,108.68653292581439,108.68653292581439,108.68653292581439,None,None,,,,,,,,,,,,,,,,,,,,,,,,,,,,,,,,,,,,ST02_120922,2022-12-09_14h14.06.800,Hippopolis_Learning,2022.2.2,59.990447716017336,
Camponello,stimuli/subj_files/ST02_120922_cityB.csv,./stimuli/arnedillo.png,./stimuli/street_plate2.png,./stimuli/videos/camponello_part,./stimuli/videos/campo-satellite.mp4,VIHAR UTCA,stimuli/scenes/120a.jpg,scene,right,0,stimuli/scenes/120a.jpg,stimuli/objects/103a.jpg,stimuli/objects/103b.jpg,stimuli/scenes/120b.jpg,stimuli/scenes/120a.jpg,dist1,dist2,lure,target,0,0,0,0,0,18,18,26,,,,,,,,,,,,,,,,,111.66324943304062,112.72151305899024,112.72151305899024,112.72151305899024,112.72151305899024,112.72151305899024,None,None,,,,,,,,,,,,,,,,,,,,,,,,,,,,,,,,,,,,ST02_120922,2022-12-09_14h14.06.800,Hippopolis_Learning,2022.2.2,59.990447716017336,
Camponello,stimuli/subj_files/ST02_120922_cityB.csv,./stimuli/arnedillo.png,./stimuli/street_plate2.png,./stimuli/videos/camponello_part,./stimuli/videos/campo-satellite.mp4,KAKAS UTCA,stimuli/objects/011a.jpg,object,left,1,stimuli/objects/069a.jpg,stimuli/scenes/117b.jpg,stimuli/objects/069a.jpg,stimuli/scenes/117a.jpg,stimuli/objects/069b.jpg,dist2,target,dist1,lure,0,0,0,0,0,19,19,70,,,,,,,,,,,,,,,,,115.66974324733019,116.73305357433856,116.73305357433856,116.73305357433856,116.73305357433856,116.73305357433856,None,None,,,,,,,,,,,,,,,,,,,,,,,,,,,,,,,,,,,,ST02_120922,2022-12-09_14h14.06.800,Hippopolis_Learning,2022.2.2,59.990447716017336,
Camponello,stimuli/subj_files/ST02_120922_cityB.csv,./stimuli/arnedillo.png,./stimuli/street_plate2.png,./stimuli/videos/camponello_part,./stimuli/videos/campo-satellite.mp4,FOLYÓ UTCA,stimuli/scenes/052a.jpg,scene,right,0,stimuli/scenes/052a.jpg,stimuli/scenes/052b.jpg,stimuli/scenes/052a.jpg,stimuli/scenes/019a.jpg,stimuli/scenes/019b.jpg,lure,target,dist1,dist2,0,0,0,0,0,20,20,9,,,,,,,,,,,,,,,,,119.6746207587421,120.72947513312101,120.72947513312101,120.72947513312101,120.72947513312101,120.72947513312101,None,None,,,,,,,,,,,,,,,,,,,,,,,,,,,,,,,,,,,,ST02_120922,2022-12-09_14h14.06.800,Hippopolis_Learning,2022.2.2,59.990447716017336,
Camponello,stimuli/subj_files/ST02_120922_cityB.csv,./stimuli/arnedillo.png,./stimuli/street_plate2.png,./stimuli/videos/camponello_part,./stimuli/videos/campo-satellite.mp4,HAJÓ UTCA,stimuli/objects/037a.jpg,object,left,2,stimuli/scenes/014a.jpg,stimuli/objects/053a.jpg,stimuli/scenes/014b.jpg,stimuli/objects/053b.jpg,stimuli/scenes/014a.jpg,dist1,lure,dist2,target,0,0,0,0,0,21,21,21,,,,,,,,,,,,,,,,,123.68255702033639,124.73780575208366,124.73780575208366,124.73780575208366,124.73780575208366,124.73780575208366,None,None,,,,,,,,,,,,,,,,,,,,,,,,,,,,,,,,,,,,ST02_120922,2022-12-09_14h14.06.800,Hippopolis_Learning,2022.2.2,59.990447716017336,
Camponello,stimuli/subj_files/ST02_120922_cityB.csv,./stimuli/arnedillo.png,./stimuli/street_plate2.png,./stimuli/videos/camponello_part,./stimuli/videos/campo-satellite.mp4,DOMINÓ UTCA,stimuli/objects/108a.jpg,object,left,0,stimuli/objects/108a.jpg,stimuli/objects/070a.jpg,stimuli/objects/108b.jpg,stimuli/objects/070b.jpg,stimuli/objects/108a.jpg,dist1,lure,dist2,target,0,0,0,0,0,22,22,44,,,,,,,,,,,,,,,,,127.70145345851779,128.7362833749503,128.7362833749503,128.7362833749503,128.7362833749503,128.7362833749503,None,None,,,,,,,,,,,,,,,,,,,,,,,,,,,,,,,,,,,,ST02_120922,2022-12-09_14h14.06.800,Hippopolis_Learning,2022.2.2,59.990447716017336,
Camponello,stimuli/subj_files/ST02_120922_cityB.csv,./stimuli/arnedillo.png,./stimuli/street_plate2.png,./stimuli/videos/camponello_part,./stimuli/videos/campo-satellite.mp4,BOLYGÓ UTCA,stimuli/objects/091a.jpg,object,left,2,stimuli/scenes/021a.jpg,stimuli/objects/089b.jpg,stimuli/scenes/021b.jpg,stimuli/scenes/021a.jpg,stimuli/objects/089a.jpg,dist2,lure,target,dist1,0,0,0,0,0,23,23,54,,,,,,,,,,,,,,,,,131.69706235826015,132.7512978296727,132.7512978296727,132.7512978296727,132.7512978296727,132.7512978296727,None,None,,,,,,,,,,,,,,,,,,,,,,,,,,,,,,,,,,,,ST02_120922,2022-12-09_14h14.06.800,Hippopolis_Learning,2022.2.2,59.990447716017336,
Camponello,stimuli/subj_files/ST02_120922_cityB.csv,./stimuli/arnedillo.png,./stimuli/street_plate2.png,./stimuli/videos/camponello_part,./stimuli/videos/campo-satellite.mp4,SZAXOFON UTCA,stimuli/objects/081a.jpg,object,left,0,stimuli/objects/081a.jpg,stimuli/objects/083b.jpg,stimuli/objects/081b.jpg,stimuli/objects/081a.jpg,stimuli/objects/083a.jpg,dist2,lure,target,dist1,0,0,0,0,0,24,24,76,,,,,,,,,,,,,,,,,135.70247698016465,136.73983413539827,136.73983413539827,136.73983413539827,136.73983413539827,136.73983413539827,None,None,,,,,,,,,,,,,,,,,,,,,,,,,,,,,,,,,,,,ST02_120922,2022-12-09_14h14.06.800,Hippopolis_Learning,2022.2.2,59.990447716017336,
Camponello,stimuli/subj_files/ST02_120922_cityB.csv,./stimuli/arnedillo.png,./stimuli/street_plate2.png,./stimuli/videos/camponello_part,./stimuli/videos/campo-satellite.mp4,PULÓVER UTCA,stimuli/objects/035a.jpg,object,left,0,stimuli/objects/035a.jpg,stimuli/objects/035a.jpg,stimuli/scenes/029b.jpg,stimuli/scenes/029a.jpg,stimuli/objects/035b.jpg,target,dist2,dist1,lure,0,0,0,0,0,25,25,69,,,,,,,,,,,,,,,,,139.70742540247738,140.74784192815423,140.74784192815423,140.74784192815423,140.74784192815423,140.74784192815423,None,None,,,,,,,,,,,,,,,,,,,,,,,,,,,,,,,,,,,,ST02_120922,2022-12-09_14h14.06.800,Hippopolis_Learning,2022.2.2,59.990447716017336,
Camponello,stimuli/subj_files/ST02_120922_cityB.csv,./stimuli/arnedillo.png,./stimuli/street_plate2.png,./stimuli/videos/camponello_part,./stimuli/videos/campo-satellite.mp4,BÖGRE UTCA,stimuli/scenes/040a.jpg,scene,right,0,stimuli/scenes/040a.jpg,stimuli/scenes/040a.jpg,stimuli/objects/050b.jpg,stimuli/scenes/040b.jpg,stimuli/objects/050a.jpg,target,dist2,lure,dist1,0,0,0,0,0,26,26,49,,,,,,,,,,,,,,,,,143.719790706411,144.76426462084055,144.76426462084055,144.76426462084055,144.76426462084055,144.76426462084055,None,None,,,,,,,,,,,,,,,,,,,,,,,,,,,,,,,,,,,,ST02_120922,2022-12-09_14h14.06.800,Hippopolis_Learning,2022.2.2,59.990447716017336,
Camponello,stimuli/subj_files/ST02_120922_cityB.csv,./stimuli/arnedillo.png,./stimuli/street_plate2.png,./stimuli/videos/camponello_part,./stimuli/videos/campo-satellite.mp4,TISZTÁS UTCA,stimuli/objects/054a.jpg,object,left,0,stimuli/objects/054a.jpg,stimuli/objects/054b.jpg,stimuli/objects/115a.jpg,stimuli/objects/054a.jpg,stimuli/objects/115b.jpg,lure,dist1,target,dist2,0,0,0,0,0,27,27,22,,,,,,,,,,,,,,,,,147.73300536721945,148.77389244548976,148.77389244548976,148.77389244548976,148.77389244548976,148.77389244548976,None,None,,,,,,,,,,,,,,,,,,,,,,,,,,,,,,,,,,,,ST02_120922,2022-12-09_14h14.06.800,Hippopolis_Learning,2022.2.2,59.990447716017336,
Camponello,stimuli/subj_files/ST02_120922_cityB.csv,./stimuli/arnedillo.png,./stimuli/street_plate2.png,./stimuli/videos/camponello_part,./stimuli/videos/campo-satellite.mp4,KANÁL UTCA,stimuli/objects/098a.jpg,object,left,0,stimuli/objects/098a.jpg,stimuli/objects/105b.jpg,stimuli/objects/105a.jpg,stimuli/objects/098b.jpg,stimuli/objects/098a.jpg,dist2,dist1,lure,target,0,0,0,0,0,28,28,13,,,,,,,,,,,,,,,,,151.7478540558368,152.7892110645771,152.7892110645771,152.7892110645771,152.7892110645771,152.7892110645771,None,None,,,,,,,,,,,,,,,,,,,,,,,,,,,,,,,,,,,,ST02_120922,2022-12-09_14h14.06.800,Hippopolis_Learning,2022.2.2,59.990447716017336,
Camponello,stimuli/subj_files/ST02_120922_cityB.csv,./stimuli/arnedillo.png,./stimuli/street_plate2.png,./stimuli/videos/camponello_part,./stimuli/videos/campo-satellite.mp4,PAPUCS UTCA,stimuli/scenes/059a.jpg,scene,right,0,stimuli/scenes/059a.jpg,stimuli/objects/040b.jpg,stimuli/objects/040a.jpg,stimuli/scenes/059a.jpg,stimuli/scenes/059b.jpg,dist2,dist1,target,lure,0,0,0,0,0,29,29,38,,,,,,,,,,,,,,,,,155.75106861814857,156.7805989868939,156.7805989868939,156.7805989868939,156.7805989868939,156.7805989868939,None,None,,,,,,,,,,,,,,,,,,,,,,,,,,,,,,,,,,,,ST02_120922,2022-12-09_14h14.06.800,Hippopolis_Learning,2022.2.2,59.990447716017336,
Camponello,stimuli/subj_files/ST02_120922_cityB.csv,./stimuli/arnedillo.png,./stimuli/street_plate2.png,./stimuli/videos/camponello_part,./stimuli/videos/campo-satellite.mp4,NARANCS UTCA,stimuli/scenes/109a.jpg,scene,right,0,stimuli/scenes/109a.jpg,stimuli/scenes/109b.jpg,stimuli/scenes/077b.jpg,stimuli/scenes/077a.jpg,stimuli/scenes/109a.jpg,lure,dist2,dist1,target,0,0,0,0,0,30,30,40,,,,,,,,,,,,,,,,,159.76079596579075,160.82139462791383,160.82139462791383,160.82139462791383,160.82139462791383,160.82139462791383,None,None,,,,,,,,,,,,,,,,,,,,,,,,,,,,,,,,,,,,ST02_120922,2022-12-09_14h14.06.800,Hippopolis_Learning,2022.2.2,59.990447716017336,
Camponello,stimuli/subj_files/ST02_120922_cityB.csv,./stimuli/arnedillo.png,./stimuli/street_plate2.png,./stimuli/videos/camponello_part,./stimuli/videos/campo-satellite.mp4,ÁRNYÉK UTCA,stimuli/scenes/046a.jpg,scene,right,0,stimuli/scenes/046a.jpg,stimuli/objects/098b.jpg,stimuli/scenes/046b.jpg,stimuli/scenes/046a.jpg,stimuli/objects/098a.jpg,dist2,lure,target,dist1,0,0,0,0,0,31,31,72,,,,,,,,,,,,,,,,,163.77274918556213,164.80086011998355,164.80086011998355,164.80086011998355,164.80086011998355,164.80086011998355,None,None,,,,,,,,,,,,,,,,,,,,,,,,,,,,,,,,,,,,ST02_120922,2022-12-09_14h14.06.800,Hippopolis_Learning,2022.2.2,59.990447716017336,
Camponello,stimuli/subj_files/ST02_120922_cityB.csv,./stimuli/arnedillo.png,./stimuli/street_plate2.png,./stimuli/videos/camponello_part,./stimuli/videos/campo-satellite.mp4,MARTINI UTCA,stimuli/scenes/112a.jpg,scene,right,2,stimuli/objects/007a.jpg,stimuli/scenes/014b.jpg,stimuli/objects/007b.jpg,stimuli/objects/007a.jpg,stimuli/scenes/014a.jpg,dist2,lure,target,dist1,0,0,0,0,0,32,32,61,,,,,,,,,,,,,,,,,167.77814048156142,168.81741965562105,168.81741965562105,168.81741965562105,168.81741965562105,168.81741965562105,None,None,,,,,,,,,,,,,,,,,,,,,,,,,,,,,,,,,,,,ST02_120922,2022-12-09_14h14.06.800,Hippopolis_Learning,2022.2.2,59.990447716017336,
Camponello,stimuli/subj_files/ST02_120922_cityB.csv,./stimuli/arnedillo.png,./stimuli/street_plate2.png,./stimuli/videos/camponello_part,./stimuli/videos/campo-satellite.mp4,AJÁNDÉK UTCA,stimuli/scenes/070a.jpg,scene,right,2,stimuli/objects/089a.jpg,stimuli/scenes/020b.jpg,stimuli/scenes/020a.jpg,stimuli/objects/089a.jpg,stimuli/objects/089b.jpg,dist2,dist1,target,lure,0,0,0,0,0,33,33,74,,,,,,,,,,,,,,,,,171.78749679774046,172.81467720121145,172.81467720121145,172.81467720121145,172.81467720121145,172.81467720121145,None,None,,,,,,,,,,,,,,,,,,,,,,,,,,,,,,,,,,,,ST02_120922,2022-12-09_14h14.06.800,Hippopolis_Learning,2022.2.2,59.990447716017336,
Camponello,stimuli/subj_files/ST02_120922_cityB.csv,./stimuli/arnedillo.png,./stimuli/street_plate2.png,./stimuli/videos/camponello_part,./stimuli/videos/campo-satellite.mp4,FÜZET UTCA,stimuli/scenes/027a.jpg,scene,right,1,stimuli/scenes/097a.jpg,stimuli/scenes/097a.jpg,stimuli/scenes/100b.jpg,stimuli/scenes/097b.jpg,stimuli/scenes/100a.jpg,target,dist2,lure,dist1,0,0,0,0,0,34,34,24,,,,,,,,,,,,,,,,,175.7894754204899,176.83025986514986,176.83025986514986,176.83025986514986,176.83025986514986,176.83025986514986,None,None,,,,,,,,,,,,,,,,,,,,,,,,,,,,,,,,,,,,ST02_120922,2022-12-09_14h14.06.800,Hippopolis_Learning,2022.2.2,59.990447716017336,
Camponello,stimuli/subj_files/ST02_120922_cityB.csv,./stimuli/arnedillo.png,./stimuli/street_plate2.png,./stimuli/videos/camponello_part,./stimuli/videos/campo-satellite.mp4,TOLMÁCS UTCA,stimuli/objects/051a.jpg,object,left,0,stimuli/objects/051a.jpg,stimuli/scenes/096a.jpg,stimuli/scenes/096b.jpg,stimuli/objects/051b.jpg,stimuli/objects/051a.jpg,dist1,dist2,lure,target,0,0,0,0,0,35,35,4,,,,,,,,,,,,,,,,,179.80155335366726,180.85186392441392,180.85186392441392,180.85186392441392,180.85186392441392,180.85186392441392,None,None,,,,,,,,,,,,,,,,,,,,,,,,,,,,,,,,,,,,ST02_120922,2022-12-09_14h14.06.800,Hippopolis_Learning,2022.2.2,59.990447716017336,
Camponello,stimuli/subj_files/ST02_120922_cityB.csv,./stimuli/arnedillo.png,./stimuli/street_plate2.png,./stimuli/videos/camponello_part,./stimuli/videos/campo-satellite.mp4,KAKAÓ UTCA,stimuli/objects/036a.jpg,object,left,1,stimuli/objects/019a.jpg,stimuli/objects/092a.jpg,stimuli/objects/092b.jpg,stimuli/objects/019a.jpg,stimuli/objects/019b.jpg,dist1,dist2,target,lure,0,0,0,0,0,36,36,42,,,,,,,,,,,,,,,,,183.8020736668259,184.8602048046887,184.8602048046887,184.8602048046887,184.8602048046887,184.8602048046887,None,None,,,,,,,,,,,,,,,,,,,,,,,,,,,,,,,,,,,,ST02_120922,2022-12-09_14h14.06.800,Hippopolis_Learning,2022.2.2,59.990447716017336,
Camponello,stimuli/subj_files/ST02_120922_cityB.csv,./stimuli/arnedillo.png,./stimuli/street_plate2.png,./stimuli/videos/camponello_part,./stimuli/videos/campo-satellite.mp4,HÁRFA UTCA,stimuli/objects/070a.jpg,object,left,0,stimuli/objects/070a.jpg,stimuli/objects/070b.jpg,stimuli/objects/070a.jpg,stimuli/objects/051b.jpg,stimuli/objects/051a.jpg,lure,target,dist2,dist1,0,0,0,0,0,37,37,58,,,,,,,,,,,,,,,,,187.81732510961592,188.8740218859166,188.8740218859166,188.8740218859166,188.8740218859166,188.8740218859166,None,None,,,,,,,,,,,,,,,,,,,,,,,,,,,,,,,,,,,,ST02_120922,2022-12-09_14h14.06.800,Hippopolis_Learning,2022.2.2,59.990447716017336,
Camponello,stimuli/subj_files/ST02_120922_cityB.csv,./stimuli/arnedillo.png,./stimuli/street_plate2.png,./stimuli/videos/camponello_part,./stimuli/videos/campo-satellite.mp4,TENISZ UTCA,stimuli/scenes/005a.jpg,scene,right,2,stimuli/objects/077a.jpg,stimuli/scenes/026b.jpg,stimuli/objects/077b.jpg,stimuli/scenes/026a.jpg,stimuli/objects/077a.jpg,dist2,lure,dist1,target,0,0,0,0,0,38,38,29,,,,,,,,,,,,,,,,,191.81991392746568,192.8820688650012,192.8820688650012,192.8820688650012,192.8820688650012,192.8820688650012,None,None,,,,,,,,,,,,,,,,,,,,,,,,,,,,,,,,,,,,ST02_120922,2022-12-09_14h14.06.800,Hippopolis_Learning,2022.2.2,59.990447716017336,
Camponello,stimuli/subj_files/ST02_120922_cityB.csv,./stimuli/arnedillo.png,./stimuli/street_plate2.png,./stimuli/videos/camponello_part,./stimuli/videos/campo-satellite.mp4,HARMONIKA UTCA,stimuli/scenes/033a.jpg,scene,right,0,stimuli/scenes/033a.jpg,stimuli/scenes/033b.jpg,stimuli/objects/055b.jpg,stimuli/objects/055a.jpg,stimuli/scenes/033a.jpg,lure,dist2,dist1,target,0,0,0,0,0,39,39,55,,,,,,,,,,,,,,,,,195.8356412090361,196.88182006031275,196.88182006031275,196.88182006031275,196.88182006031275,196.88182006031275,None,None,,,,,,,,,,,,,,,,,,,,,,,,,,,,,,,,,,,,ST02_120922,2022-12-09_14h14.06.800,Hippopolis_Learning,2022.2.2,59.990447716017336,
Camponello,stimuli/subj_files/ST02_120922_cityB.csv,./stimuli/arnedillo.png,./stimuli/street_plate2.png,./stimuli/videos/camponello_part,./stimuli/videos/campo-satellite.mp4,SZOMSZÉD UTCA,stimuli/scenes/023a.jpg,scene,right,0,stimuli/scenes/023a.jpg,stimuli/scenes/113b.jpg,stimuli/scenes/023b.jpg,stimuli/scenes/023a.jpg,stimuli/scenes/113a.jpg,dist2,lure,target,dist1,0,0,0,0,0,40,40,33,,,,,,,,,,,,,,,,,199.85037047229707,200.8919134605676,200.8919134605676,200.8919134605676,200.8919134605676,200.8919134605676,None,None,,,,,,,,,,,,,,,,,,,,,,,,,,,,,,,,,,,,ST02_120922,2022-12-09_14h14.06.800,Hippopolis_Learning,2022.2.2,59.990447716017336,
Camponello,stimuli/subj_files/ST02_120922_cityB.csv,./stimuli/arnedillo.png,./stimuli/street_plate2.png,./stimuli/videos/camponello_part,./stimuli/videos/campo-satellite.mp4,HORGONY UTCA,stimuli/scenes/019a.jpg,scene,right,0,stimuli/scenes/019a.jpg,stimuli/objects/023b.jpg,stimuli/scenes/019b.jpg,stimuli/objects/023a.jpg,stimuli/scenes/019a.jpg,dist2,lure,dist1,target,0,0,0,0,0,41,41,7,,,,,,,,,,,,,,,,,203.86062061972916,204.8925357852131,204.8925357852131,204.8925357852131,204.8925357852131,204.8925357852131,None,None,204.8925357852131,,,,,,,,,,,,,,,,,,,,,,,,,,,,,,,,,,,ST02_120922,2022-12-09_14h14.06.800,Hippopolis_Learning,2022.2.2,59.990447716017336,
Camponello,stimuli/subj_files/ST02_120922_cityB.csv,./stimuli/arnedillo.png,./stimuli/street_plate2.png,./stimuli/videos/camponello_part,./stimuli/videos/campo-satellite.mp4,BONBON UTCA,stimuli/objects/003a.jpg,object,left,0,stimuli/objects/003a.jpg,stimuli/objects/003a.jpg,stimuli/objects/003b.jpg,stimuli/objects/108a.jpg,stimuli/objects/108b.jpg,target,lure,dist1,dist2,0,0,0,0,0,42,42,5,,,,,,,,,,,,,,,,,207.8734375052154,208.9371760878712,208.9371760878712,208.9371760878712,208.9371760878712,208.9371760878712,None,None,,,,,,,,,,,,,,,,,,,,,,,,,,,,,,,,,,,,ST02_120922,2022-12-09_14h14.06.800,Hippopolis_Learning,2022.2.2,59.990447716017336,
Camponello,stimuli/subj_files/ST02_120922_cityB.csv,./stimuli/arnedillo.png,./stimuli/street_plate2.png,./stimuli/videos/camponello_part,./stimuli/videos/campo-satellite.mp4,HEGEDŰ UTCA,stimuli/objects/119a.jpg,object,left,0,stimuli/objects/119a.jpg,stimuli/objects/119a.jpg,stimuli/objects/119b.jpg,stimuli/scenes/109b.jpg,stimuli/scenes/109a.jpg,target,lure,dist2,dist1,0,0,0,0,0,43,43,79,,,,,,,,,,,,,,,,,211.88760104589164,212.95734734088182,212.95734734088182,212.95734734088182,212.95734734088182,212.95734734088182,None,None,,,,,,,,,,,,,,,,,,,,,,,,,,,,,,,,,,,,ST02_120922,2022-12-09_14h14.06.800,Hippopolis_Learning,2022.2.2,59.990447716017336,
Camponello,stimuli/subj_files/ST02_120922_cityB.csv,./stimuli/arnedillo.png,./stimuli/street_plate2.png,./stimuli/videos/camponello_part,./stimuli/videos/campo-satellite.mp4,KÁRTYA UTCA,stimuli/objects/088a.jpg,object,left,0,stimuli/objects/088a.jpg,stimuli/objects/088a.jpg,stimuli/scenes/114b.jpg,stimuli/scenes/114a.jpg,stimuli/objects/088b.jpg,target,dist2,dist1,lure,0,0,0,0,0,44,44,77,,,,,,,,,,,,,,,,,215.90239966474473,216.96489359997213,216.96489359997213,216.96489359997213,216.96489359997213,216.96489359997213,None,space,,219.91847744956613,219.91847744956613,4.427931971848011,,,,,,,,,,,,,,,,,,,,,,,,,,,,,,,,ST02_120922,2022-12-09_14h14.06.800,Hippopolis_Learning,2022.2.2,59.990447716017336,
Camponello,stimuli/subj_files/ST02_120922_cityB.csv,./stimuli/arnedillo.png,./stimuli/street_plate2.png,./stimuli/videos/camponello_part,./stimuli/videos/campo-satellite.mp4,PETÁRDA UTCA,stimuli/objects/023a.jpg,object,left,0,stimuli/objects/023a.jpg,stimuli/objects/023b.jpg,stimuli/objects/023a.jpg,stimuli/objects/054b.jpg,stimuli/objects/054a.jpg,lure,target,dist2,dist1,0,0,0,0,0,45,45,2,,,,,,,,,,,,,,,,,224.3662902675569,225.41799725592136,225.41799725592136,225.41799725592136,225.41799725592136,225.41799725592136,None,None,,,,,,,,,,,,,,,,,,,,,,,,,,,,,,,,,,,,ST02_120922,2022-12-09_14h14.06.800,Hippopolis_Learning,2022.2.2,59.990447716017336,
Camponello,stimuli/subj_files/ST02_120922_cityB.csv,./stimuli/arnedillo.png,./stimuli/street_plate2.png,./stimuli/videos/camponello_part,./stimuli/videos/campo-satellite.mp4,PAPAGÁJ UTCA,stimuli/objects/040a.jpg,object,left,0,stimuli/objects/040a.jpg,stimuli/objects/040a.jpg,stimuli/objects/040b.jpg,stimuli/objects/022b.jpg,stimuli/objects/022a.jpg,target,lure,dist2,dist1,0,0,0,0,0,46,46,47,,,,,,,,,,,,,,,,,228.36932257935405,229.4302981812507,229.4302981812507,229.4302981812507,229.4302981812507,229.4302981812507,None,None,,,,,,,,,,,,,,,,,,,,,,,,,,,,,,,,,,,,ST02_120922,2022-12-09_14h14.06.800,Hippopolis_Learning,2022.2.2,59.990447716017336,
Camponello,stimuli/subj_files/ST02_120922_cityB.csv,./stimuli/arnedillo.png,./stimuli/street_plate2.png,./stimuli/videos/camponello_part,./stimuli/videos/campo-satellite.mp4,FÓKA UTCA,stimuli/objects/083a.jpg,object,left,0,stimuli/objects/083a.jpg,stimuli/objects/083b.jpg,stimuli/scenes/091b.jpg,stimuli/objects/083a.jpg,stimuli/scenes/091a.jpg,lure,dist2,target,dist1,0,0,0,0,0,47,47,52,,,,,,,,,,,,,,,,,232.3847080655396,233.44140639714897,233.44140639714897,233.44140639714897,233.44140639714897,233.44140639714897,None,None,,,,,,,,,,,,,,,,,,,,,,,,,,,,,,,,,,,,ST02_120922,2022-12-09_14h14.06.800,Hippopolis_Learning,2022.2.2,59.990447716017336,
Camponello,stimuli/subj_files/ST02_120922_cityB.csv,./stimuli/arnedillo.png,./stimuli/street_plate2.png,./stimuli/videos/camponello_part,./stimuli/videos/campo-satellite.mp4,MUNKA UTCA,stimuli/scenes/118a.jpg,scene,right,1,stimuli/scenes/117a.jpg,stimuli/scenes/032b.jpg,stimuli/scenes/117a.jpg,stimuli/scenes/032a.jpg,stimuli/scenes/117b.jpg,dist2,target,dist1,lure,0,0,0,0,0,48,48,53,,,,,,,,,,,,,,,,,236.39443230256438,237.4606231711805,237.4606231711805,237.4606231711805,237.4606231711805,237.4606231711805,None,None,,,,,,,,,,,,,,,,,,,,,,,,,,,,,,,,,,,,ST02_120922,2022-12-09_14h14.06.800,Hippopolis_Learning,2022.2.2,59.990447716017336,
Camponello,stimuli/subj_files/ST02_120922_cityB.csv,./stimuli/arnedillo.png,./stimuli/street_plate2.png,./stimuli/videos/camponello_part,./stimuli/videos/campo-satellite.mp4,ORVOS UTCA,stimuli/objects/062a.jpg,object,left,0,stimuli/objects/062a.jpg,stimuli/objects/062a.jpg,stimuli/scenes/093a.jpg,stimuli/scenes/093b.jpg,stimuli/objects/062b.jpg,target,dist1,dist2,lure,0,0,0,0,0,49,49,27,,,,,,,,,,,,,,,,,240.40151049755514,241.44818509183824,241.44818509183824,241.44818509183824,241.44818509183824,241.44818509183824,None,None,,,,,,,,,,,,,,,,,,,,,,,,,,,,,,,,,,,,ST02_120922,2022-12-09_14h14.06.800,Hippopolis_Learning,2022.2.2,59.990447716017336,
Camponello,stimuli/subj_files/ST02_120922_cityB.csv,./stimuli/arnedillo.png,./stimuli/street_plate2.png,./stimuli/videos/camponello_part,./stimuli/videos/campo-satellite.mp4,LEVÉL UTCA,stimuli/scenes/038a.jpg,scene,right,0,stimuli/scenes/038a.jpg,stimuli/scenes/052a.jpg,stimuli/scenes/038a.jpg,stimuli/scenes/052b.jpg,stimuli/scenes/038b.jpg,dist1,target,dist2,lure,0,0,0,0,0,50,50,50,,,,,,,,,,,,,,,,,244.4154460709542,245.47597351297736,245.47597351297736,245.47597351297736,245.47597351297736,245.47597351297736,None,None,,,,,,,,,,,,,,,,,,,,,,,,,,,,,,,,,,,,ST02_120922,2022-12-09_14h14.06.800,Hippopolis_Learning,2022.2.2,59.990447716017336,
Camponello,stimuli/subj_files/ST02_120922_cityB.csv,./stimuli/arnedillo.png,./stimuli/street_plate2.png,./stimuli/videos/camponello_part,./stimuli/videos/campo-satellite.mp4,ZSEMLE UTCA,stimuli/objects/018a.jpg,object,left,1,stimuli/objects/116a.jpg,stimuli/objects/069a.jpg,stimuli/objects/116a.jpg,stimuli/objects/116b.jpg,stimuli/objects/069b.jpg,dist1,target,lure,dist2,0,0,0,0,0,51,51,6,,,,,,,,,,,,,,,,,248.43001827597618,249.49556131847203,249.49556131847203,249.49556131847203,249.49556131847203,249.49556131847203,None,None,,,,,,,,,,,,,,,,,,,,,,,,,,,,,,,,,,,,ST02_120922,2022-12-09_14h14.06.800,Hippopolis_Learning,2022.2.2,59.990447716017336,
Camponello,stimuli/subj_files/ST02_120922_cityB.csv,./stimuli/arnedillo.png,./stimuli/street_plate2.png,./stimuli/videos/camponello_part,./stimuli/videos/campo-satellite.mp4,LEGELŐ UTCA,stimuli/scenes/013a.jpg,scene,right,1,stimuli/scenes/051a.jpg,stimuli/scenes/051b.jpg,stimuli/scenes/051a.jpg,stimuli/objects/019a.jpg,stimuli/objects/019b.jpg,lure,target,dist1,dist2,0,0,0,0,0,52,52,15,,,,,,,,,,,,,,,,,252.43869379907846,253.4897377230227,253.4897377230227,253.4897377230227,253.4897377230227,253.4897377230227,None,None,,,,,,,,,,,,,,,,,,,,,,,,,,,,,,,,,,,,ST02_120922,2022-12-09_14h14.06.800,Hippopolis_Learning,2022.2.2,59.990447716017336,
Camponello,stimuli/subj_files/ST02_120922_cityB.csv,./stimuli/arnedillo.png,./stimuli/street_plate2.png,./stimuli/videos/camponello_part,./stimuli/videos/campo-satellite.mp4,SZILVA UTCA,stimuli/objects/030a.jpg,object,left,0,stimuli/objects/030a.jpg,stimuli/objects/030a.jpg,stimuli/objects/030b.jpg,stimuli/objects/003b.jpg,stimuli/objects/003a.jpg,target,lure,dist2,dist1,0,0,0,0,0,53,53,64,,,,,,,,,,,,,,,,,256.4518922884017,257.5164024773985,257.5164024773985,257.5164024773985,257.5164024773985,257.5164024773985,None,None,,,,,,,,,,,,,,,,,,,,,,,,,,,,,,,,,,,,ST02_120922,2022-12-09_14h14.06.800,Hippopolis_Learning,2022.2.2,59.990447716017336,
Camponello,stimuli/subj_files/ST02_120922_cityB.csv,./stimuli/arnedillo.png,./stimuli/street_plate2.png,./stimuli/videos/camponello_part,./stimuli/videos/campo-satellite.mp4,SZIKLA UTCA,stimuli/scenes/114a.jpg,scene,right,0,stimuli/scenes/114a.jpg,stimuli/scenes/114a.jpg,stimuli/scenes/053a.jpg,stimuli/scenes/053b.jpg,stimuli/scenes/114b.jpg,target,dist1,dist2,lure,0,0,0,0,0,54,54,46,,,,,,,,,,,,,,,,,260.46607480198145,261.52254361100495,261.52254361100495,261.52254361100495,261.52254361100495,261.52254361100495,None,None,,,,,,,,,,,,,,,,,,,,,,,,,,,,,,,,,,,,ST02_120922,2022-12-09_14h14.06.800,Hippopolis_Learning,2022.2.2,59.990447716017336,
Camponello,stimuli/subj_files/ST02_120922_cityB.csv,./stimuli/arnedillo.png,./stimuli/street_plate2.png,./stimuli/videos/camponello_part,./stimuli/videos/campo-satellite.mp4,KRÉTA UTCA,stimuli/scenes/054a.jpg,scene,right,0,stimuli/scenes/054a.jpg,stimuli/scenes/033a.jpg,stimuli/scenes/054b.jpg,stimuli/scenes/033b.jpg,stimuli/scenes/054a.jpg,dist1,lure,dist2,target,0,0,0,0,0,55,55,34,,,,,,,,,,,,,,,,,264.48073377646506,265.54129916243255,265.54129916243255,265.54129916243255,265.54129916243255,265.54129916243255,None,None,,,,,,,,,,,,,,,,,,,,,,,,,,,,,,,,,,,,ST02_120922,2022-12-09_14h14.06.800,Hippopolis_Learning,2022.2.2,59.990447716017336,
Camponello,stimuli/subj_files/ST02_120922_cityB.csv,./stimuli/arnedillo.png,./stimuli/street_plate2.png,./stimuli/videos/camponello_part,./stimuli/videos/campo-satellite.mp4,ASZTAL UTCA,stimuli/scenes/045a.jpg,scene,right,0,stimuli/scenes/045a.jpg,stimuli/objects/119a.jpg,stimuli/objects/119b.jpg,stimuli/scenes/045a.jpg,stimuli/scenes/045b.jpg,dist1,dist2,target,lure,0,0,0,0,0,56,56,62,,,,,,,,,,,,,,,,,268.4820888321847,269.51707425154746,269.51707425154746,269.51707425154746,269.51707425154746,269.51707425154746,None,None,269.51707425154746,,,,,,,,,,,,,,,,,,,,,,,,,,,,,,,,,,,ST02_120922,2022-12-09_14h14.06.800,Hippopolis_Learning,2022.2.2,59.990447716017336,
Camponello,stimuli/subj_files/ST02_120922_cityB.csv,./stimuli/arnedillo.png,./stimuli/street_plate2.png,./stimuli/videos/camponello_part,./stimuli/videos/campo-satellite.mp4,KIRAKÓ UTCA,stimuli/objects/010a.jpg,object,left,1,stimuli/objects/092a.jpg,stimuli/objects/045b.jpg,stimuli/objects/092a.jpg,stimuli/objects/045a.jpg,stimuli/objects/092b.jpg,dist2,target,dist1,lure,0,0,0,0,0,57,57,78,,,,,,,,,,,,,,,,,272.49783352948725,273.55419535189867,273.55419535189867,273.55419535189867,273.55419535189867,273.55419535189867,None,None,,,,,,,,,,,,,,,,,,,,,,,,,,,,,,,,,,,,ST02_120922,2022-12-09_14h14.06.800,Hippopolis_Learning,2022.2.2,59.990447716017336,
Camponello,stimuli/subj_files/ST02_120922_cityB.csv,./stimuli/arnedillo.png,./stimuli/street_plate2.png,./stimuli/videos/camponello_part,./stimuli/videos/campo-satellite.mp4,PALACK UTCA,stimuli/scenes/062a.jpg,scene,right,0,stimuli/scenes/062a.jpg,stimuli/scenes/059b.jpg,stimuli/scenes/059a.jpg,stimuli/scenes/062a.jpg,stimuli/scenes/062b.jpg,dist2,dist1,target,lure,0,0,0,0,0,58,58,63,,,,,,,,,,,,,,,,,276.49678512848914,277.5597126055509,277.5597126055509,277.5597126055509,277.5597126055509,277.5597126055509,None,None,,,,,,,,,,,,,,,,,,,,,,,,,,,,,,,,,,,,ST02_120922,2022-12-09_14h14.06.800,Hippopolis_Learning,2022.2.2,59.990447716017336,
Camponello,stimuli/subj_files/ST02_120922_cityB.csv,./stimuli/arnedillo.png,./stimuli/street_plate2.png,./stimuli/videos/camponello_part,./stimuli/videos/campo-satellite.mp4,MOCSÁR UTCA,stimuli/objects/022a.jpg,object,left,0,stimuli/objects/022a.jpg,stimuli/scenes/062b.jpg,stimuli/objects/022b.jpg,stimuli/objects/022a.jpg,stimuli/scenes/062a.jpg,dist2,lure,target,dist1,0,0,0,0,0,59,59,66,,,,,,,,,,,,,,,,,280.5017015170306,281.55987184122205,281.55987184122205,281.55987184122205,281.55987184122205,281.55987184122205,None,None,,,,,,,,,,,,,,,,,,,,,,,,,,,,,,,,,,,,ST02_120922,2022-12-09_14h14.06.800,Hippopolis_Learning,2022.2.2,59.990447716017336,
Camponello,stimuli/subj_files/ST02_120922_cityB.csv,./stimuli/arnedillo.png,./stimuli/street_plate2.png,./stimuli/videos/camponello_part,./stimuli/videos/campo-satellite.mp4,SZŐNYEG UTCA,stimuli/scenes/101a.jpg,scene,right,2,stimuli/objects/072a.jpg,stimuli/objects/072b.jpg,stimuli/objects/072a.jpg,stimuli/scenes/103a.jpg,stimuli/scenes/103b.jpg,lure,target,dist1,dist2,0,0,0,0,0,60,60,59,,,,,,,,,,,,,,,,,284.51841095648706,285.55983234383166,285.55983234383166,285.55983234383166,285.55983234383166,285.55983234383166,None,None,,,,,,,,,,,,,,,,,,,,,,,,,,,,,,,,,,,,ST02_120922,2022-12-09_14h14.06.800,Hippopolis_Learning,2022.2.2,59.990447716017336,
Camponello,stimuli/subj_files/ST02_120922_cityB.csv,./stimuli/arnedillo.png,./stimuli/street_plate2.png,./stimuli/videos/camponello_part,./stimuli/videos/campo-satellite.mp4,OROSZLÁN UTCA,stimuli/scenes/113a.jpg,scene,right,0,stimuli/scenes/113a.jpg,stimuli/scenes/105a.jpg,stimuli/scenes/105b.jpg,stimuli/scenes/113a.jpg,stimuli/scenes/113b.jpg,dist1,dist2,target,lure,0,0,0,0,0,61,61,10,,,,,,,,,,,,,,,,,288.5331479944289,289.56830788962543,289.56830788962543,289.56830788962543,289.56830788962543,289.56830788962543,None,None,,,,,,,,,,,,,,,,,,,,,,,,,,,,,,,,,,,,ST02_120922,2022-12-09_14h14.06.800,Hippopolis_Learning,2022.2.2,59.990447716017336,
Camponello,stimuli/subj_files/ST02_120922_cityB.csv,./stimuli/arnedillo.png,./stimuli/street_plate2.png,./stimuli/videos/camponello_part,./stimuli/videos/campo-satellite.mp4,KULLANCS UTCA,stimuli/scenes/065a.jpg,scene,right,0,stimuli/scenes/065a.jpg,stimuli/scenes/065a.jpg,stimuli/objects/081a.jpg,stimuli/objects/081b.jpg,stimuli/scenes/065b.jpg,target,dist1,dist2,lure,0,0,0,0,0,62,62,17,,,,,,,,,,,,,,,,,292.541886029765,293.57461105659604,293.57461105659604,293.57461105659604,293.57461105659604,293.57461105659604,None,None,,,,,,,,,,,,,,,,,,,,,,,,,,,,,,,,,,,,ST02_120922,2022-12-09_14h14.06.800,Hippopolis_Learning,2022.2.2,59.990447716017336,
Camponello,stimuli/subj_files/ST02_120922_cityB.csv,./stimuli/arnedillo.png,./stimuli/street_plate2.png,./stimuli/videos/camponello_part,./stimuli/videos/campo-satellite.mp4,LÉPCSŐ UTCA,stimuli/objects/049a.jpg,object,left,0,stimuli/objects/049a.jpg,stimuli/objects/049a.jpg,stimuli/objects/049b.jpg,stimuli/objects/031a.jpg,stimuli/objects/031b.jpg,target,lure,dist1,dist2,0,0,0,0,0,63,63,75,,,,,,,,,,,,,,,,,296.55934468470514,297.6087950132787,297.6087950132787,297.6087950132787,297.6087950132787,297.6087950132787,None,None,,,,,,,,,,,,,,,,,,,,,,,,,,,,,,,,,,,,ST02_120922,2022-12-09_14h14.06.800,Hippopolis_Learning,2022.2.2,59.990447716017336,
Camponello,stimuli/subj_files/ST02_120922_cityB.csv,./stimuli/arnedillo.png,./stimuli/street_plate2.png,./stimuli/videos/camponello_part,./stimuli/videos/campo-satellite.mp4,LABDA UTCA,stimuli/objects/115a.jpg,object,left,0,stimuli/objects/115a.jpg,stimuli/objects/115a.jpg,stimuli/objects/005b.jpg,stimuli/objects/115b.jpg,stimuli/objects/005a.jpg,target,dist2,lure,dist1,0,0,0,0,0,64,64,31,,,,,,,,,,,,,,,,,300.56317939423025,301.6085626911372,301.6085626911372,301.6085626911372,301.6085626911372,301.6085626911372,None,None,,,,,,,,,,,,,,,,,,,,,,,,,,,,,,,,,,,,ST02_120922,2022-12-09_14h14.06.800,Hippopolis_Learning,2022.2.2,59.990447716017336,
Camponello,stimuli/subj_files/ST02_120922_cityB.csv,./stimuli/arnedillo.png,./stimuli/street_plate2.png,./stimuli/videos/camponello_part,./stimuli/videos/campo-satellite.mp4,ZONGORA UTCA,stimuli/objects/050a.jpg,object,left,0,stimuli/objects/050a.jpg,stimuli/objects/050a.jpg,stimuli/scenes/045b.jpg,stimuli/objects/050b.jpg,stimuli/scenes/045a.jpg,target,dist2,lure,dist1,0,0,0,0,0,65,65,28,,,,,,,,,,,,,,,,,304.5674065928906,305.608728768304,305.608728768304,305.608728768304,305.608728768304,305.608728768304,None,None,,,,,,,,,,,,,,,,,,,,,,,,,,,,,,,,,,,,ST02_120922,2022-12-09_14h14.06.800,Hippopolis_Learning,2022.2.2,59.990447716017336,
Camponello,stimuli/subj_files/ST02_120922_cityB.csv,./stimuli/arnedillo.png,./stimuli/street_plate2.png,./stimuli/videos/camponello_part,./stimuli/videos/campo-satellite.mp4,EGÉR UTCA,stimuli/objects/082a.jpg,object,left,0,stimuli/objects/082a.jpg,stimuli/objects/030b.jpg,stimuli/objects/082b.jpg,stimuli/objects/082a.jpg,stimuli/objects/030a.jpg,dist2,lure,target,dist1,0,0,0,0,0,66,66,56,,,,,,,,,,,,,,,,,308.5697820596397,309.61950731649995,309.61950731649995,309.61950731649995,309.61950731649995,309.61950731649995,None,None,,,,,,,,,,,,,,,,,,,,,,,,,,,,,,,,,,,,ST02_120922,2022-12-09_14h14.06.800,Hippopolis_Learning,2022.2.2,59.990447716017336,
Camponello,stimuli/subj_files/ST02_120922_cityB.csv,./stimuli/arnedillo.png,./stimuli/street_plate2.png,./stimuli/videos/camponello_part,./stimuli/videos/campo-satellite.mp4,CSILLAG UTCA,stimuli/scenes/106a.jpg,scene,right,0,stimuli/scenes/106a.jpg,stimuli/objects/062b.jpg,stimuli/objects/062a.jpg,stimuli/scenes/106a.jpg,stimuli/scenes/106b.jpg,dist2,dist1,target,lure,0,0,0,0,0,67,67,37,,,,,,,,,,,,,,,,,312.577797004953,313.6333495900035,313.6333495900035,313.6333495900035,313.6333495900035,313.6333495900035,None,None,,,,,,,,,,,,,,,,,,,,,,,,,,,,,,,,,,,,ST02_120922,2022-12-09_14h14.06.800,Hippopolis_Learning,2022.2.2,59.990447716017336,
Camponello,stimuli/subj_files/ST02_120922_cityB.csv,./stimuli/arnedillo.png,./stimuli/street_plate2.png,./stimuli/videos/camponello_part,./stimuli/videos/campo-satellite.mp4,RIBIZLI UTCA,stimuli/scenes/029a.jpg,scene,right,0,stimuli/scenes/029a.jpg,stimuli/scenes/029b.jpg,stimuli/scenes/029a.jpg,stimuli/scenes/086a.jpg,stimuli/scenes/086b.jpg,lure,target,dist1,dist2,0,0,0,0,0,68,68,32,,,,,,,,,,,,,,,,,316.5826194714755,317.6407823320478,317.6407823320478,317.6407823320478,317.6407823320478,317.6407823320478,None,None,,,,,,,,,,,,,,,,,,,,,,,,,,,,,,,,,,,,ST02_120922,2022-12-09_14h14.06.800,Hippopolis_Learning,2022.2.2,59.990447716017336,
Camponello,stimuli/subj_files/ST02_120922_cityB.csv,./stimuli/arnedillo.png,./stimuli/street_plate2.png,./stimuli/videos/camponello_part,./stimuli/videos/campo-satellite.mp4,VASALÓ UTCA,stimuli/objects/105a.jpg,object,left,0,stimuli/objects/105a.jpg,stimuli/scenes/038a.jpg,stimuli/objects/105a.jpg,stimuli/scenes/038b.jpg,stimuli/objects/105b.jpg,dist1,target,dist2,lure,0,0,0,0,0,69,69,25,,,,,,,,,,,,,,,,,320.59231571666896,321.6421868354082,321.6421868354082,321.6421868354082,321.6421868354082,321.6421868354082,None,None,,,,,,,,,,,,,,,,,,,,,,,,,,,,,,,,,,,,ST02_120922,2022-12-09_14h14.06.800,Hippopolis_Learning,2022.2.2,59.990447716017336,
Camponello,stimuli/subj_files/ST02_120922_cityB.csv,./stimuli/arnedillo.png,./stimuli/street_plate2.png,./stimuli/videos/camponello_part,./stimuli/videos/campo-satellite.mp4,KOSÁR UTCA,stimuli/scenes/036a.jpg,scene,right,2,stimuli/objects/053a.jpg,stimuli/objects/053a.jpg,stimuli/scenes/024b.jpg,stimuli/objects/053b.jpg,stimuli/scenes/024a.jpg,target,dist2,lure,dist1,0,0,0,0,0,70,70,0,,,,,,,,,,,,,,,,,324.60021652281284,325.6570501420647,325.6570501420647,325.6570501420647,325.6570501420647,325.6570501420647,None,None,,,,,,,,,,,,,,,,,,,,,,,,,,,,,,,,,,,,ST02_120922,2022-12-09_14h14.06.800,Hippopolis_Learning,2022.2.2,59.990447716017336,
Camponello,stimuli/subj_files/ST02_120922_cityB.csv,./stimuli/arnedillo.png,./stimuli/street_plate2.png,./stimuli/videos/camponello_part,./stimuli/videos/campo-satellite.mp4,MANDARIN UTCA,stimuli/scenes/071a.jpg,scene,right,0,stimuli/scenes/071a.jpg,stimuli/scenes/040b.jpg,stimuli/scenes/071a.jpg,stimuli/scenes/040a.jpg,stimuli/scenes/071b.jpg,dist2,target,dist1,lure,0,0,0,0,0,71,71,19,,,,,,,,,,,,,,,,,328.600299872458,329.6573813650757,329.6573813650757,329.6573813650757,329.6573813650757,329.6573813650757,None,None,,,,,,,,,,,,,,,,,,,,,,,,,,,,,,,,,,,,ST02_120922,2022-12-09_14h14.06.800,Hippopolis_Learning,2022.2.2,59.990447716017336,
Camponello,stimuli/subj_files/ST02_120922_cityB.csv,./stimuli/arnedillo.png,./stimuli/street_plate2.png,./stimuli/videos/camponello_part,./stimuli/videos/campo-satellite.mp4,BETON UTCA,stimuli/scenes/091a.jpg,scene,right,0,stimuli/scenes/091a.jpg,stimuli/scenes/091b.jpg,stimuli/scenes/119a.jpg,stimuli/scenes/091a.jpg,stimuli/scenes/119b.jpg,lure,dist1,target,dist2,0,0,0,0,0,72,72,16,,,,,,,,,,,,,,,,,332.60041961073875,333.66295459866524,333.66295459866524,333.66295459866524,333.66295459866524,333.66295459866524,None,None,,,,,,,,,,,,,,,,,,,,,,,,,,,,,,,,,,,,ST02_120922,2022-12-09_14h14.06.800,Hippopolis_Learning,2022.2.2,59.990447716017336,
Camponello,stimuli/subj_files/ST02_120922_cityB.csv,./stimuli/arnedillo.png,./stimuli/street_plate2.png,./stimuli/videos/camponello_part,./stimuli/videos/campo-satellite.mp4,FEJSZE UTCA,stimuli/objects/031a.jpg,object,left,0,stimuli/objects/031a.jpg,stimuli/objects/082a.jpg,stimuli/objects/031a.jpg,stimuli/objects/031b.jpg,stimuli/objects/082b.jpg,dist1,target,lure,dist2,0,0,0,0,0,73,73,60,,,,,,,,,,,,,,,,,336.604027595371,337.6588123049587,337.6588123049587,337.6588123049587,337.6588123049587,337.6588123049587,None,None,,,,,,,,,,,,,,,,,,,,,,,,,,,,,,,,,,,,ST02_120922,2022-12-09_14h14.06.800,Hippopolis_Learning,2022.2.2,59.990447716017336,
Camponello,stimuli/subj_files/ST02_120922_cityB.csv,./stimuli/arnedillo.png,./stimuli/street_plate2.png,./stimuli/videos/camponello_part,./stimuli/videos/campo-satellite.mp4,TOLLTARTÓ UTCA,stimuli/objects/071a.jpg,object,left,1,stimuli/objects/048a.jpg,stimuli/scenes/097b.jpg,stimuli/scenes/097a.jpg,stimuli/objects/048a.jpg,stimuli/objects/048b.jpg,dist2,dist1,target,lure,0,0,0,0,0,74,74,35,,,,,,,,,,,,,,,,,340.608539365232,341.6637610383332,341.6637610383332,341.6637610383332,341.6637610383332,341.6637610383332,None,None,,,,,,,,,,,,,,,,,,,,,,,,,,,,,,,,,,,,ST02_120922,2022-12-09_14h14.06.800,Hippopolis_Learning,2022.2.2,59.990447716017336,
Camponello,stimuli/subj_files/ST02_120922_cityB.csv,./stimuli/arnedillo.png,./stimuli/street_plate2.png,./stimuli/videos/camponello_part,./stimuli/videos/campo-satellite.mp4,TRIATLON UTCA,stimuli/scenes/105a.jpg,scene,right,0,stimuli/scenes/105a.jpg,stimuli/scenes/105a.jpg,stimuli/scenes/105b.jpg,stimuli/scenes/065a.jpg,stimuli/scenes/065b.jpg,target,lure,dist1,dist2,0,0,0,0,0,75,75,8,,,,,,,,,,,,,,,,,344.616855988279,345.67519829794765,345.67519829794765,345.67519829794765,345.67519829794765,345.67519829794765,None,None,,,,,,,,,,,,,,,,,,,,,,,,,,,,,,,,,,,,ST02_120922,2022-12-09_14h14.06.800,Hippopolis_Learning,2022.2.2,59.990447716017336,
Camponello,stimuli/subj_files/ST02_120922_cityB.csv,./stimuli/arnedillo.png,./stimuli/street_plate2.png,./stimuli/videos/camponello_part,./stimuli/videos/campo-satellite.mp4,LIGET UTCA,stimuli/scenes/093a.jpg,scene,right,0,stimuli/scenes/093a.jpg,stimuli/scenes/093a.jpg,stimuli/scenes/093b.jpg,stimuli/scenes/046b.jpg,stimuli/scenes/046a.jpg,target,lure,dist2,dist1,0,0,0,0,0,76,76,23,,,,,,,,,,,,,,,,,348.6166507229209,349.6804113872349,349.6804113872349,349.6804113872349,349.6804113872349,349.6804113872349,None,None,,,,,,,,,,,,,,,,,,,,,,,,,,,,,,,,,,,,ST02_120922,2022-12-09_14h14.06.800,Hippopolis_Learning,2022.2.2,59.990447716017336,
Camponello,stimuli/subj_files/ST02_120922_cityB.csv,./stimuli/arnedillo.png,./stimuli/street_plate2.png,./stimuli/videos/camponello_part,./stimuli/videos/campo-satellite.mp4,SÜTEMÉNY UTCA,stimuli/objects/103a.jpg,object,left,0,stimuli/objects/103a.jpg,stimuli/objects/103b.jpg,stimuli/objects/103a.jpg,stimuli/objects/049b.jpg,stimuli/objects/049a.jpg,lure,target,dist2,dist1,0,0,0,0,0,77,77,43,,,,,,,,,,,,,,,,,352.6341908611357,353.6917373072356,353.6917373072356,353.6917373072356,353.6917373072356,353.6917373072356,None,None,,,,,,,,,,,,,,,,,,,,,,,,,,,,,,,,,,,,ST02_120922,2022-12-09_14h14.06.800,Hippopolis_Learning,2022.2.2,59.990447716017336,
Camponello,stimuli/subj_files/ST02_120922_cityB.csv,./stimuli/arnedillo.png,./stimuli/street_plate2.png,./stimuli/videos/camponello_part,./stimuli/videos/campo-satellite.mp4,SÜTŐ UTCA,stimuli/objects/055a.jpg,object,left,0,stimuli/objects/055a.jpg,stimuli/objects/088b.jpg,stimuli/objects/055a.jpg,stimuli/objects/088a.jpg,stimuli/objects/055b.jpg,dist2,target,dist1,lure,0,0,0,0,0,78,78,20,,,,,,,,,,,,,,,,,356.633403705433,357.6954413931817,357.6954413931817,357.6954413931817,357.6954413931817,357.6954413931817,None,None,,,,,,,,,,,,,,,,,,,,,,,,,,,,,,,,,,,,ST02_120922,2022-12-09_14h14.06.800,Hippopolis_Learning,2022.2.2,59.990447716017336,
Camponello,stimuli/subj_files/ST02_120922_cityB.csv,./stimuli/arnedillo.png,./stimuli/street_plate2.png,./stimuli/videos/camponello_part,./stimuli/videos/campo-satellite.mp4,PADLÓ UTCA,stimuli/scenes/078a.jpg,scene,right,1,stimuli/scenes/032a.jpg,stimuli/objects/116a.jpg,stimuli/objects/116b.jpg,stimuli/scenes/032b.jpg,stimuli/scenes/032a.jpg,dist1,dist2,lure,target,0,0,0,0,0,79,79,57,,,,,,,,,,,,,,,,,360.6437207199633,361.68785314820707,361.68785314820707,361.68785314820707,361.68785314820707,361.68785314820707,None,None,,,,,,,,,,,,,,,,,,,,,,,,,,,,,,,,,,,,ST02_120922,2022-12-09_14h14.06.800,Hippopolis_Learning,2022.2.2,59.990447716017336,
Camponello,stimuli/subj_files/ST02_120922_cityB.csv,./stimuli/arnedillo.png,./stimuli/street_plate2.png,./stimuli/videos/camponello_part,./stimuli/videos/campo-satellite.mp4,MOSODA UTCA,stimuli/scenes/096a.jpg,scene,right,0,stimuli/scenes/096a.jpg,stimuli/scenes/096b.jpg,stimuli/scenes/106a.jpg,stimuli/scenes/096a.jpg,stimuli/scenes/106b.jpg,lure,dist1,target,dist2,0,0,0,0,,,,,0,0,0,14,,,,,,,,,,,,,372.85376448370516,,,,,,,,,,,,364.65295294485986,364.65295294485986,space,4.1559248473495245,368.8959008734673,368.8959008734673,368.8959008734673,368.8959008734673,368.8959008734673,368.8959008734673,None,0,,[],[],[],[],[],[],,,,,,,,,,,,,ST02_120922,2022-12-09_14h14.06.800,Hippopolis_Learning,2022.2.2,59.990447716017336,
Camponello,stimuli/subj_files/ST02_120922_cityB.csv,./stimuli/arnedillo.png,./stimuli/street_plate2.png,./stimuli/videos/camponello_part,./stimuli/videos/campo-satellite.mp4,TENISZ UTCA,stimuli/scenes/005a.jpg,scene,right,2,stimuli/objects/077a.jpg,stimuli/scenes/026b.jpg,stimuli/objects/077b.jpg,stimuli/scenes/026a.jpg,stimuli/objects/077a.jpg,dist2,lure,dist1,target,0,0,0,0,,,,,0,1,1,29,,,,,,,,,,,,,376.5676239859313,,,,,,,,,,,,,,,,373.8863150347024,373.8863150347024,373.8863150347024,373.8863150347024,373.8863150347024,373.8863150347024,down,0,,[],[],[],[],[],[],2.6349070351570845,,,,,,,,,,,,ST02_120922,2022-12-09_14h14.06.800,Hippopolis_Learning,2022.2.2,59.990447716017336,
Camponello,stimuli/subj_files/ST02_120922_cityB.csv,./stimuli/arnedillo.png,./stimuli/street_plate2.png,./stimuli/videos/camponello_part,./stimuli/videos/campo-satellite.mp4,TRIATLON UTCA,stimuli/scenes/105a.jpg,scene,right,0,stimuli/scenes/105a.jpg,stimuli/scenes/105a.jpg,stimuli/scenes/105b.jpg,stimuli/scenes/065a.jpg,stimuli/scenes/065b.jpg,target,lure,dist1,dist2,0,0,0,0,,,,,0,2,2,8,,,,,,,,,,,,,380.3861150573939,,,,,,,,,,,,,,,,377.59317658282816,377.59317658282816,377.59317658282816,377.59317658282816,377.59317658282816,377.59317658282816,down,0,,[],[],[],[],[],[],2.751656036823988,,,,,,,,,,,,ST02_120922,2022-12-09_14h14.06.800,Hippopolis_Learning,2022.2.2,59.990447716017336,
Camponello,stimuli/subj_files/ST02_120922_cityB.csv,./stimuli/arnedillo.png,./stimuli/street_plate2.png,./stimuli/videos/camponello_part,./stimuli/videos/campo-satellite.mp4,KESELYŰ UTCA,stimuli/scenes/053a.jpg,scene,right,0,stimuli/scenes/053a.jpg,stimuli/scenes/054a.jpg,stimuli/scenes/053b.jpg,stimuli/scenes/054b.jpg,stimuli/scenes/053a.jpg,dist1,lure,dist2,target,0,0,0,0,,,,,0,3,3,30,,,,,,,,,,,,,383.6055658329278,,,,,,,,,,,,,,,,381.4208320789039,381.4208320789039,381.4208320789039,381.4208320789039,381.4208320789039,381.4208320789039,left,0,,[],[],[],[],[],[],2.123611593618989,,,,,,,,,,,,ST02_120922,2022-12-09_14h14.06.800,Hippopolis_Learning,2022.2.2,59.990447716017336,
Camponello,stimuli/subj_files/ST02_120922_cityB.csv,./stimuli/arnedillo.png,./stimuli/street_plate2.png,./stimuli/videos/camponello_part,./stimuli/videos/campo-satellite.mp4,AJÁNDÉK UTCA,stimuli/scenes/070a.jpg,scene,right,2,stimuli/objects/089a.jpg,stimuli/scenes/020b.jpg,stimuli/scenes/020a.jpg,stimuli/objects/089a.jpg,stimuli/objects/089b.jpg,dist2,dist1,target,lure,0,0,0,0,,,,,0,4,4,74,,,,,,,,,,,,,387.22048425115645,,,,,,,,,,,,,,,,384.6273076683283,384.6273076683283,384.6273076683283,384.6273076683283,384.6273076683283,384.6273076683283,left,0,,[],[],[],[],[],[],2.54993293620646,,,,,,,,,,,,ST02_120922,2022-12-09_14h14.06.800,Hippopolis_Learning,2022.2.2,59.990447716017336,
Camponello,stimuli/subj_files/ST02_120922_cityB.csv,./stimuli/arnedillo.png,./stimuli/street_plate2.png,./stimuli/videos/camponello_part,./stimuli/videos/campo-satellite.mp4,KÍGYÓ UTCA,stimuli/objects/057a.jpg,object,left,0,stimuli/objects/057a.jpg,stimuli/scenes/071b.jpg,stimuli/objects/057a.jpg,stimuli/scenes/071a.jpg,stimuli/objects/057b.jpg,dist2,target,dist1,lure,0,0,0,0,,,,,0,5,5,12,,,,,,,,,,,,,403.40030005946755,,,,,,,,,,,,,,,,388.24440717324615,388.24440717324615,388.24440717324615,388.24440717324615,388.24440717324615,388.24440717324615,left,1,"magassarkú cipő
",[449.0],[-99.0],[1],[0],[0],[13.37244601547718],1.7324153147637844,390.0336776394397,390.0336776394397,390.0336776394397,390.0336776394397,390.0336776394397,0.01315152645111084,,,,,,ST02_120922,2022-12-09_14h14.06.800,Hippopolis_Learning,2022.2.2,59.990447716017336,
Camponello,stimuli/subj_files/ST02_120922_cityB.csv,./stimuli/arnedillo.png,./stimuli/street_plate2.png,./stimuli/videos/camponello_part,./stimuli/videos/campo-satellite.mp4,ASZTAL UTCA,stimuli/scenes/045a.jpg,scene,right,0,stimuli/scenes/045a.jpg,stimuli/objects/119a.jpg,stimuli/objects/119b.jpg,stimuli/scenes/045a.jpg,stimuli/scenes/045b.jpg,dist1,dist2,target,lure,0,0,0,0,,,,,0,6,6,62,,,,,,,,,,,,,407.72707447595894,,,,,,,,,,,,,,,,404.42483162134886,404.42483162134886,404.42483162134886,404.42483162134886,404.42483162134886,404.42483162134886,left,0,,[],[],[],[],[],[],3.263688562437892,,,,,,,,,,,,ST02_120922,2022-12-09_14h14.06.800,Hippopolis_Learning,2022.2.2,59.990447716017336,
Camponello,stimuli/subj_files/ST02_120922_cityB.csv,./stimuli/arnedillo.png,./stimuli/street_plate2.png,./stimuli/videos/camponello_part,./stimuli/videos/campo-satellite.mp4,PADLÓ UTCA,stimuli/scenes/078a.jpg,scene,right,1,stimuli/scenes/032a.jpg,stimuli/objects/116a.jpg,stimuli/objects/116b.jpg,stimuli/scenes/032b.jpg,stimuli/scenes/032a.jpg,dist1,dist2,lure,target,0,0,0,0,,,,,0,7,7,57,,,,,,,,,,,,,411.0401188917458,,,,,,,,412.0576674286276,,,,,,,,408.75337690860033,408.75337690860033,408.75337690860033,408.75337690860033,408.75337690860033,408.75337690860033,down,0,,[],[],[],[],[],[],2.246571082621813,,,,,,,,,,,,ST02_120922,2022-12-09_14h14.06.800,Hippopolis_Learning,2022.2.2,59.990447716017336,
Camponello,stimuli/subj_files/ST02_120922_cityB.csv,./stimuli/arnedillo.png,./stimuli/street_plate2.png,./stimuli/videos/camponello_part,./stimuli/videos/campo-satellite.mp4,SZIKLA UTCA,stimuli/scenes/114a.jpg,scene,right,0,stimuli/scenes/114a.jpg,stimuli/scenes/114a.jpg,stimuli/scenes/053a.jpg,stimuli/scenes/053b.jpg,stimuli/scenes/114b.jpg,target,dist1,dist2,lure,0,0,0,0,,,,,0,8,8,46,,,,,,,,,,,,,413.82678685709834,,,,,,,,,,,,,,,,412.0576674286276,412.0576674286276,412.0576674286276,412.0576674286276,412.0576674286276,412.0576674286276,down,0,,[],[],[],[],[],[],1.7107319496572018,,,,,,,,,,,,ST02_120922,2022-12-09_14h14.06.800,Hippopolis_Learning,2022.2.2,59.990447716017336,
Camponello,stimuli/subj_files/ST02_120922_cityB.csv,./stimuli/arnedillo.png,./stimuli/street_plate2.png,./stimuli/videos/camponello_part,./stimuli/videos/campo-satellite.mp4,SZŐNYEG UTCA,stimuli/scenes/101a.jpg,scene,right,2,stimuli/objects/072a.jpg,stimuli/objects/072b.jpg,stimuli/objects/072a.jpg,stimuli/scenes/103a.jpg,stimuli/scenes/103b.jpg,lure,target,dist1,dist2,0,0,0,0,,,,,0,9,9,59,,,,,,,,,,,,,417.825150962919,,,,,,,,418.8442377373576,,,,,,,,414.84864345379174,414.84864345379174,414.84864345379174,414.84864345379174,414.84864345379174,414.84864345379174,down,0,,[],[],[],[],[],[],2.935948161408305,,,,,,,,,,,,ST02_120922,2022-12-09_14h14.06.800,Hippopolis_Learning,2022.2.2,59.990447716017336,
Camponello,stimuli/subj_files/ST02_120922_cityB.csv,./stimuli/arnedillo.png,./stimuli/street_plate2.png,./stimuli/videos/camponello_part,./stimuli/videos/campo-satellite.mp4,RIBIZLI UTCA,stimuli/scenes/029a.jpg,scene,right,0,stimuli/scenes/029a.jpg,stimuli/scenes/029b.jpg,stimuli/scenes/029a.jpg,stimuli/scenes/086a.jpg,stimuli/scenes/086b.jpg,lure,target,dist1,dist2,0,0,0,0,,,,,0,10,10,32,,,,,,,,,,,,,420.5646560527384,,,,,,,,,,,,,,,,418.8442377373576,418.8442377373576,418.8442377373576,418.8442377373576,418.8442377373576,418.8442377373576,down,0,,[],[],[],[],[],[],1.691961469128728,,,,,,,,,,,,ST02_120922,2022-12-09_14h14.06.800,Hippopolis_Learning,2022.2.2,59.990447716017336,
Camponello,stimuli/subj_files/ST02_120922_cityB.csv,./stimuli/arnedillo.png,./stimuli/street_plate2.png,./stimuli/videos/camponello_part,./stimuli/videos/campo-satellite.mp4,LEGELŐ UTCA,stimuli/scenes/013a.jpg,scene,right,1,stimuli/scenes/051a.jpg,stimuli/scenes/051b.jpg,stimuli/scenes/051a.jpg,stimuli/objects/019a.jpg,stimuli/objects/019b.jpg,lure,target,dist1,dist2,0,0,0,0,,,,,0,11,11,15,,,,,,,,,,,,,423.75324068777263,,,,,,,,,,,,,,,,421.5950186736882,421.5950186736882,421.5950186736882,421.5950186736882,421.5950186736882,421.5950186736882,down,0,,[],[],[],[],[],[],2.0937313456088305,,,,,,,,,,,,ST02_120922,2022-12-09_14h14.06.800,Hippopolis_Learning,2022.2.2,59.990447716017336,
Camponello,stimuli/subj_files/ST02_120922_cityB.csv,./stimuli/arnedillo.png,./stimuli/street_plate2.png,./stimuli/videos/camponello_part,./stimuli/videos/campo-satellite.mp4,PAPUCS UTCA,stimuli/scenes/059a.jpg,scene,right,0,stimuli/scenes/059a.jpg,stimuli/objects/040b.jpg,stimuli/objects/040a.jpg,stimuli/scenes/059a.jpg,stimuli/scenes/059b.jpg,dist2,dist1,target,lure,0,0,0,0,,,,,0,12,12,38,,,,,,,,,,,,,426.8269084598869,,,,,,,,,,,,,,,,424.7787264175713,424.7787264175713,424.7787264175713,424.7787264175713,424.7787264175713,424.7787264175713,down,0,,[],[],[],[],[],[],2.013718731701374,,,,,,,,,,,,ST02_120922,2022-12-09_14h14.06.800,Hippopolis_Learning,2022.2.2,59.990447716017336,
Camponello,stimuli/subj_files/ST02_120922_cityB.csv,./stimuli/arnedillo.png,./stimuli/street_plate2.png,./stimuli/videos/camponello_part,./stimuli/videos/campo-satellite.mp4,MAJOM UTCA,stimuli/objects/073a.jpg,object,left,2,stimuli/scenes/020a.jpg,stimuli/scenes/021a.jpg,stimuli/scenes/020b.jpg,stimuli/scenes/021b.jpg,stimuli/scenes/020a.jpg,dist1,lure,dist2,target,0,0,0,0,,,,,0,13,13,73,,,,,,,,,,,,,429.48830180615187,,,,,,,,,,,,,,,,427.85824204422534,427.85824204422534,427.85824204422534,427.85824204422534,427.85824204422534,427.85824204422534,down,0,,[],[],[],[],[],[],1.5900036226958036,,,,,,,,,,,,ST02_120922,2022-12-09_14h14.06.800,Hippopolis_Learning,2022.2.2,59.990447716017336,
Camponello,stimuli/subj_files/ST02_120922_cityB.csv,./stimuli/arnedillo.png,./stimuli/street_plate2.png,./stimuli/videos/camponello_part,./stimuli/videos/campo-satellite.mp4,HÁRFA UTCA,stimuli/objects/070a.jpg,object,left,0,stimuli/objects/070a.jpg,stimuli/objects/070b.jpg,stimuli/objects/070a.jpg,stimuli/objects/051b.jpg,stimuli/objects/051a.jpg,lure,target,dist2,dist1,0,0,0,0,,,,,0,14,14,58,,,,,,,,,,,,,432.7957512177527,,,,,,,,,,,,,,,,430.50741314888,430.50741314888,430.50741314888,430.50741314888,430.50741314888,430.50741314888,down,0,,[],[],[],[],[],[],2.252248192206025,,,,,,,,,,,,ST02_120922,2022-12-09_14h14.06.800,Hippopolis_Learning,2022.2.2,59.990447716017336,
Camponello,stimuli/subj_files/ST02_120922_cityB.csv,./stimuli/arnedillo.png,./stimuli/street_plate2.png,./stimuli/videos/camponello_part,./stimuli/videos/campo-satellite.mp4,TOLLTARTÓ UTCA,stimuli/objects/071a.jpg,object,left,1,stimuli/objects/048a.jpg,stimuli/scenes/097b.jpg,stimuli/scenes/097a.jpg,stimuli/objects/048a.jpg,stimuli/objects/048b.jpg,dist2,dist1,target,lure,0,0,0,0,,,,,0,15,15,35,,,,,,,,,,,,,436.7570035532117,,,,,,,,,,,,,,,,433.8287542834878,433.8287542834878,433.8287542834878,433.8287542834878,433.8287542834878,433.8287542834878,down,0,,[],[],[],[],[],[],2.883118748664856,,,,,,,,,,,,ST02_120922,2022-12-09_14h14.06.800,Hippopolis_Learning,2022.2.2,59.990447716017336,
Camponello,stimuli/subj_files/ST02_120922_cityB.csv,./stimuli/arnedillo.png,./stimuli/street_plate2.png,./stimuli/videos/camponello_part,./stimuli/videos/campo-satellite.mp4,MARTINI UTCA,stimuli/scenes/112a.jpg,scene,right,2,stimuli/objects/007a.jpg,stimuli/scenes/014b.jpg,stimuli/objects/007b.jpg,stimuli/objects/007a.jpg,stimuli/scenes/014a.jpg,dist2,lure,target,dist1,0,0,0,0,,,,,0,16,16,61,,,,,,,,,,,,,440.584383809939,,,,,,,,,,,,,,,,437.7778437808156,437.7778437808156,437.7778437808156,437.7778437808156,437.7778437808156,437.7778437808156,right,1,,[],[],[],[],[],[],2.7739601712673903,,,,,,,,,,,,ST02_120922,2022-12-09_14h14.06.800,Hippopolis_Learning,2022.2.2,59.990447716017336,
Camponello,stimuli/subj_files/ST02_120922_cityB.csv,./stimuli/arnedillo.png,./stimuli/street_plate2.png,./stimuli/videos/camponello_part,./stimuli/videos/campo-satellite.mp4,NARANCS UTCA,stimuli/scenes/109a.jpg,scene,right,0,stimuli/scenes/109a.jpg,stimuli/scenes/109b.jpg,stimuli/scenes/077b.jpg,stimuli/scenes/077a.jpg,stimuli/scenes/109a.jpg,lure,dist2,dist1,target,0,0,0,0,,,,,0,17,17,40,,,,,,,,,,,,,443.7372073754668,,,,,,,,,,,,,,,,441.60583858564496,441.60583858564496,441.60583858564496,441.60583858564496,441.60583858564496,441.60583858564496,down,0,,[],[],[],[],[],[],2.0977853145450354,,,,,,,,,,,,ST02_120922,2022-12-09_14h14.06.800,Hippopolis_Learning,2022.2.2,59.990447716017336,
Camponello,stimuli/subj_files/ST02_120922_cityB.csv,./stimuli/arnedillo.png,./stimuli/street_plate2.png,./stimuli/videos/camponello_part,./stimuli/videos/campo-satellite.mp4,HARMONIKA UTCA,stimuli/scenes/033a.jpg,scene,right,0,stimuli/scenes/033a.jpg,stimuli/scenes/033b.jpg,stimuli/objects/055b.jpg,stimuli/objects/055a.jpg,stimuli/scenes/033a.jpg,lure,dist2,dist1,target,0,0,0,0,,,,,0,18,18,55,,,,,,,,,,,,,446.8242844995111,,,,,,,,447.84418082237244,,,,,,,,444.7688883524388,444.7688883524388,444.7688883524388,444.7688883524388,444.7688883524388,444.7688883524388,down,0,,[],[],[],[],[],[],2.007176088169217,,,,,,,,,,,,ST02_120922,2022-12-09_14h14.06.800,Hippopolis_Learning,2022.2.2,59.990447716017336,
Camponello,stimuli/subj_files/ST02_120922_cityB.csv,./stimuli/arnedillo.png,./stimuli/street_plate2.png,./stimuli/videos/camponello_part,./stimuli/videos/campo-satellite.mp4,PETÁRDA UTCA,stimuli/objects/023a.jpg,object,left,0,stimuli/objects/023a.jpg,stimuli/objects/023b.jpg,stimuli/objects/023a.jpg,stimuli/objects/054b.jpg,stimuli/objects/054a.jpg,lure,target,dist2,dist1,0,0,0,0,,,,,0,19,19,2,,,,,,,,,,,,,449.72711241804063,,,,,,,,450.75267030112445,,,,,,,,447.84418082237244,447.84418082237244,447.84418082237244,447.84418082237244,447.84418082237244,447.84418082237244,down,0,,[],[],[],[],[],[],1.84386383369565,,,,,,,,,,,,ST02_120922,2022-12-09_14h14.06.800,Hippopolis_Learning,2022.2.2,59.990447716017336,
Camponello,stimuli/subj_files/ST02_120922_cityB.csv,./stimuli/arnedillo.png,./stimuli/street_plate2.png,./stimuli/videos/camponello_part,./stimuli/videos/campo-satellite.mp4,LEMEZ UTCA,stimuli/scenes/041a.jpg,scene,right,0,stimuli/scenes/041a.jpg,stimuli/objects/057a.jpg,stimuli/scenes/041b.jpg,stimuli/objects/057b.jpg,stimuli/scenes/041a.jpg,dist1,lure,dist2,target,0,0,0,0,,,,,0,20,20,1,,,,,,,,,,,,,453.2087698839605,,,,,,,,,,,,,,,,450.75267030112445,450.75267030112445,450.75267030112445,450.75267030112445,450.75267030112445,450.75267030112445,down,0,,[],[],[],[],[],[],2.423051970079541,,,,,,,,,,,,ST02_120922,2022-12-09_14h14.06.800,Hippopolis_Learning,2022.2.2,59.990447716017336,
Camponello,stimuli/subj_files/ST02_120922_cityB.csv,./stimuli/arnedillo.png,./stimuli/street_plate2.png,./stimuli/videos/camponello_part,./stimuli/videos/campo-satellite.mp4,VIHAR UTCA,stimuli/scenes/120a.jpg,scene,right,0,stimuli/scenes/120a.jpg,stimuli/objects/103a.jpg,stimuli/objects/103b.jpg,stimuli/scenes/120b.jpg,stimuli/scenes/120a.jpg,dist1,dist2,lure,target,0,0,0,0,,,,,0,21,21,26,,,,,,,,,,,,,456.869323823601,,,,,,,,,,,,,,,,454.24258063174784,454.24258063174784,454.24258063174784,454.24258063174784,454.24258063174784,454.24258063174784,down,0,,[],[],[],[],[],[],2.5813150368630886,,,,,,,,,,,,ST02_120922,2022-12-09_14h14.06.800,Hippopolis_Learning,2022.2.2,59.990447716017336,
Camponello,stimuli/subj_files/ST02_120922_cityB.csv,./stimuli/arnedillo.png,./stimuli/street_plate2.png,./stimuli/videos/camponello_part,./stimuli/videos/campo-satellite.mp4,TOLMÁCS UTCA,stimuli/objects/051a.jpg,object,left,0,stimuli/objects/051a.jpg,stimuli/scenes/096a.jpg,stimuli/scenes/096b.jpg,stimuli/objects/051b.jpg,stimuli/objects/051a.jpg,dist1,dist2,lure,target,0,0,0,0,,,,,0,22,22,4,,,,,,,,,,,,,460.0331495497376,,,,,,,,,,,,,,,,457.88676008582115,457.88676008582115,457.88676008582115,457.88676008582115,457.88676008582115,457.88676008582115,down,0,,[],[],[],[],[],[],2.1052227206528187,,,,,,,,,,,,ST02_120922,2022-12-09_14h14.06.800,Hippopolis_Learning,2022.2.2,59.990447716017336,
Camponello,stimuli/subj_files/ST02_120922_cityB.csv,./stimuli/arnedillo.png,./stimuli/street_plate2.png,./stimuli/videos/camponello_part,./stimuli/videos/campo-satellite.mp4,LEVÉL UTCA,stimuli/scenes/038a.jpg,scene,right,0,stimuli/scenes/038a.jpg,stimuli/scenes/052a.jpg,stimuli/scenes/038a.jpg,stimuli/scenes/052b.jpg,stimuli/scenes/038b.jpg,dist1,target,dist2,lure,0,0,0,0,,,,,0,23,23,50,,,,,,,,,,,,,463.9212827272713,,,,,,,,,,,,,,,,461.0532107055187,461.0532107055187,461.0532107055187,461.0532107055187,461.0532107055187,461.0532107055187,down,0,,[],[],[],[],[],[],2.827098101377487,,,,,,,,,,,,ST02_120922,2022-12-09_14h14.06.800,Hippopolis_Learning,2022.2.2,59.990447716017336,
Camponello,stimuli/subj_files/ST02_120922_cityB.csv,./stimuli/arnedillo.png,./stimuli/street_plate2.png,./stimuli/videos/camponello_part,./stimuli/videos/campo-satellite.mp4,VASALÓ UTCA,stimuli/objects/105a.jpg,object,left,0,stimuli/objects/105a.jpg,stimuli/scenes/038a.jpg,stimuli/objects/105a.jpg,stimuli/scenes/038b.jpg,stimuli/objects/105b.jpg,dist1,target,dist2,lure,0,0,0,0,,,,,0,24,24,25,,,,,,,,,,,,,467.75839841738343,,,,,,,,,,,,,,,,464.956402502954,464.956402502954,464.956402502954,464.956402502954,464.956402502954,464.956402502954,down,0,,[],[],[],[],[],[],2.763752007856965,,,,,,,,,,,,ST02_120922,2022-12-09_14h14.06.800,Hippopolis_Learning,2022.2.2,59.990447716017336,
Camponello,stimuli/subj_files/ST02_120922_cityB.csv,./stimuli/arnedillo.png,./stimuli/street_plate2.png,./stimuli/videos/camponello_part,./stimuli/videos/campo-satellite.mp4,DOMINÓ UTCA,stimuli/objects/108a.jpg,object,left,0,stimuli/objects/108a.jpg,stimuli/objects/070a.jpg,stimuli/objects/108b.jpg,stimuli/objects/070b.jpg,stimuli/objects/108a.jpg,dist1,lure,dist2,target,0,0,0,0,,,,,0,25,25,44,,,,,,,,,,,,,471.36631234921515,,,,,,,,,,,,,,,,468.7841820921749,468.7841820921749,468.7841820921749,468.7841820921749,468.7841820921749,468.7841820921749,left,1,,[],[],[],[],[],[],2.535778723657131,,,,,,,,,,,,ST02_120922,2022-12-09_14h14.06.800,Hippopolis_Learning,2022.2.2,59.990447716017336,
Camponello,stimuli/subj_files/ST02_120922_cityB.csv,./stimuli/arnedillo.png,./stimuli/street_plate2.png,./stimuli/videos/camponello_part,./stimuli/videos/campo-satellite.mp4,PAPAGÁJ UTCA,stimuli/objects/040a.jpg,object,left,0,stimuli/objects/040a.jpg,stimuli/objects/040a.jpg,stimuli/objects/040b.jpg,stimuli/objects/022b.jpg,stimuli/objects/022a.jpg,target,lure,dist2,dist1,0,0,0,0,,,,,0,26,26,47,,,,,,,,,,,,,474.3265955876559,,,,,,,,,,,,,,,,472.3908485751599,472.3908485751599,472.3908485751599,472.3908485751599,472.3908485751599,472.3908485751599,left,1,,[],[],[],[],[],[],1.8886534199118614,,,,,,,,,,,,ST02_120922,2022-12-09_14h14.06.800,Hippopolis_Learning,2022.2.2,59.990447716017336,
Camponello,stimuli/subj_files/ST02_120922_cityB.csv,./stimuli/arnedillo.png,./stimuli/street_plate2.png,./stimuli/videos/camponello_part,./stimuli/videos/campo-satellite.mp4,KAKAÓ UTCA,stimuli/objects/036a.jpg,object,left,1,stimuli/objects/019a.jpg,stimuli/objects/092a.jpg,stimuli/objects/092b.jpg,stimuli/objects/019a.jpg,stimuli/objects/019b.jpg,dist1,dist2,target,lure,0,0,0,0,,,,,0,27,27,42,,,,,,,,,,,,,477.15832900069654,,,,,,,,,,,,,,,,475.3409463558346,475.3409463558346,475.3409463558346,475.3409463558346,475.3409463558346,475.3409463558346,down,0,,[],[],[],[],[],[],1.7866610493510962,,,,,,,,,,,,ST02_120922,2022-12-09_14h14.06.800,Hippopolis_Learning,2022.2.2,59.990447716017336,
Camponello,stimuli/subj_files/ST02_120922_cityB.csv,./stimuli/arnedillo.png,./stimuli/street_plate2.png,./stimuli/videos/camponello_part,./stimuli/videos/campo-satellite.mp4,CSILLAG UTCA,stimuli/scenes/106a.jpg,scene,right,0,stimuli/scenes/106a.jpg,stimuli/objects/062b.jpg,stimuli/objects/062a.jpg,stimuli/scenes/106a.jpg,stimuli/scenes/106b.jpg,dist2,dist1,target,lure,0,0,0,0,,,,,0,28,28,37,,,,,,,,,,,,,479.2412638310343,,,,,,,,,,,,,,,,478.1912449840456,478.1912449840456,478.1912449840456,478.1912449840456,478.1912449840456,478.1912449840456,down,0,,[],[],[],[],[],[],1.0001974180340767,,,,,,,,,,,,ST02_120922,2022-12-09_14h14.06.800,Hippopolis_Learning,2022.2.2,59.990447716017336,
Camponello,stimuli/subj_files/ST02_120922_cityB.csv,./stimuli/arnedillo.png,./stimuli/street_plate2.png,./stimuli/videos/camponello_part,./stimuli/videos/campo-satellite.mp4,SZILVA UTCA,stimuli/objects/030a.jpg,object,left,0,stimuli/objects/030a.jpg,stimuli/objects/030a.jpg,stimuli/objects/030b.jpg,stimuli/objects/003b.jpg,stimuli/objects/003a.jpg,target,lure,dist2,dist1,0,0,0,0,,,,,0,29,29,64,,,,,,,,,,,,,481.66906587406993,,,,,,,,,,,,,,,,480.26563180424273,480.26563180424273,480.26563180424273,480.26563180424273,480.26563180424273,480.26563180424273,down,0,,[],[],[],[],[],[],1.3583744578063488,,,,,,,,,,,,ST02_120922,2022-12-09_14h14.06.800,Hippopolis_Learning,2022.2.2,59.990447716017336,
Camponello,stimuli/subj_files/ST02_120922_cityB.csv,./stimuli/arnedillo.png,./stimuli/street_plate2.png,./stimuli/videos/camponello_part,./stimuli/videos/campo-satellite.mp4,SZAXOFON UTCA,stimuli/objects/081a.jpg,object,left,0,stimuli/objects/081a.jpg,stimuli/objects/083b.jpg,stimuli/objects/081b.jpg,stimuli/objects/081a.jpg,stimuli/objects/083a.jpg,dist2,lure,target,dist1,0,0,0,0,,,,,0,30,30,76,,,,,,,,,,,,,485.14518587104976,,,,,,,,,,,,,,,,482.70094216428697,482.70094216428697,482.70094216428697,482.70094216428697,482.70094216428697,482.70094216428697,down,0,,[],[],[],[],[],[],2.3944767024368048,,,,,,,,,,,,ST02_120922,2022-12-09_14h14.06.800,Hippopolis_Learning,2022.2.2,59.990447716017336,
Camponello,stimuli/subj_files/ST02_120922_cityB.csv,./stimuli/arnedillo.png,./stimuli/street_plate2.png,./stimuli/videos/camponello_part,./stimuli/videos/campo-satellite.mp4,ORVOS UTCA,stimuli/objects/062a.jpg,object,left,0,stimuli/objects/062a.jpg,stimuli/objects/062a.jpg,stimuli/scenes/093a.jpg,stimuli/scenes/093b.jpg,stimuli/objects/062b.jpg,target,dist1,dist2,lure,0,0,0,0,,,,,0,31,31,27,,,,,,,,,,,,,488.428329821676,,,,,,,,,,,,,,,,486.1738606598228,486.1738606598228,486.1738606598228,486.1738606598228,486.1738606598228,486.1738606598228,down,0,,[],[],[],[],[],[],2.2173535879701376,,,,,,,,,,,,ST02_120922,2022-12-09_14h14.06.800,Hippopolis_Learning,2022.2.2,59.990447716017336,
Camponello,stimuli/subj_files/ST02_120922_cityB.csv,./stimuli/arnedillo.png,./stimuli/street_plate2.png,./stimuli/videos/camponello_part,./stimuli/videos/campo-satellite.mp4,ÁRNYÉK UTCA,stimuli/scenes/046a.jpg,scene,right,0,stimuli/scenes/046a.jpg,stimuli/objects/098b.jpg,stimuli/scenes/046b.jpg,stimuli/scenes/046a.jpg,stimuli/objects/098a.jpg,dist2,lure,target,dist1,0,0,0,0,,,,,0,32,32,72,,,,,,,,,,,,,492.4105303045362,,,,,,,,493.4313910584897,,,,,,,,489.45725528150797,489.45725528150797,489.45725528150797,489.45725528150797,489.45725528150797,489.45725528150797,down,0,,[],[],[],[],[],[],2.9184860847890377,,,,,,,,,,,,ST02_120922,2022-12-09_14h14.06.800,Hippopolis_Learning,2022.2.2,59.990447716017336,
Camponello,stimuli/subj_files/ST02_120922_cityB.csv,./stimuli/arnedillo.png,./stimuli/street_plate2.png,./stimuli/videos/camponello_part,./stimuli/videos/campo-satellite.mp4,KÁRTYA UTCA,stimuli/objects/088a.jpg,object,left,0,stimuli/objects/088a.jpg,stimuli/objects/088a.jpg,stimuli/scenes/114b.jpg,stimuli/scenes/114a.jpg,stimuli/objects/088b.jpg,target,dist2,dist1,lure,0,0,0,0,,,,,0,33,33,77,,,,,,,,,,,,,494.55648653768003,,,,,,,,495.5810638163239,,,,,,,,493.4313910584897,493.4313910584897,493.4313910584897,493.4313910584897,493.4313910584897,493.4313910584897,down,0,,[],[],[],[],[],[],1.0717024505138397,,,,,,,,,,,,ST02_120922,2022-12-09_14h14.06.800,Hippopolis_Learning,2022.2.2,59.990447716017336,
Camponello,stimuli/subj_files/ST02_120922_cityB.csv,./stimuli/arnedillo.png,./stimuli/street_plate2.png,./stimuli/videos/camponello_part,./stimuli/videos/campo-satellite.mp4,HEGEDŰ UTCA,stimuli/objects/119a.jpg,object,left,0,stimuli/objects/119a.jpg,stimuli/objects/119a.jpg,stimuli/objects/119b.jpg,stimuli/scenes/109b.jpg,stimuli/scenes/109a.jpg,target,lure,dist2,dist1,0,0,0,0,,,,,0,34,34,79,,,,,,,,,,,,,497.2028113119304,,,,,,,,,,,,,,,,495.5810638163239,495.5810638163239,495.5810638163239,495.5810638163239,495.5810638163239,495.5810638163239,down,0,,[],[],[],[],[],[],1.5783968642354012,,,,,,,,,,,,ST02_120922,2022-12-09_14h14.06.800,Hippopolis_Learning,2022.2.2,59.990447716017336,
Camponello,stimuli/subj_files/ST02_120922_cityB.csv,./stimuli/arnedillo.png,./stimuli/street_plate2.png,./stimuli/videos/camponello_part,./stimuli/videos/campo-satellite.mp4,KERÉK UTCA,stimuli/scenes/077a.jpg,scene,right,0,stimuli/scenes/077a.jpg,stimuli/scenes/077a.jpg,stimuli/scenes/041b.jpg,stimuli/scenes/041a.jpg,stimuli/scenes/077b.jpg,target,dist2,dist1,lure,0,0,0,0,,,,,0,35,35,39,,,,,,,,,,,,,499.50832595303655,,,,,,,,500.53019561059773,,,,,,,,498.21697951853275,498.21697951853275,498.21697951853275,498.21697951853275,498.21697951853275,498.21697951853275,down,0,,[],[],[],[],[],[],1.2466469667851925,,,,,,,,,,,,ST02_120922,2022-12-09_14h14.06.800,Hippopolis_Learning,2022.2.2,59.990447716017336,
Camponello,stimuli/subj_files/ST02_120922_cityB.csv,./stimuli/arnedillo.png,./stimuli/street_plate2.png,./stimuli/videos/camponello_part,./stimuli/videos/campo-satellite.mp4,PALACK UTCA,stimuli/scenes/062a.jpg,scene,right,0,stimuli/scenes/062a.jpg,stimuli/scenes/059b.jpg,stimuli/scenes/059a.jpg,stimuli/scenes/062a.jpg,stimuli/scenes/062b.jpg,dist2,dist1,target,lure,0,0,0,0,,,,,0,36,36,63,,,,,,,,,,,,,503.0214218106121,,,,,,,,,,,,,,,,500.53019561059773,500.53019561059773,500.53019561059773,500.53019561059773,500.53019561059773,500.53019561059773,down,0,,[],[],[],[],[],[],2.4529857132583857,,,,,,,,,,,,ST02_120922,2022-12-09_14h14.06.800,Hippopolis_Learning,2022.2.2,59.990447716017336,
Camponello,stimuli/subj_files/ST02_120922_cityB.csv,./stimuli/arnedillo.png,./stimuli/street_plate2.png,./stimuli/videos/camponello_part,./stimuli/videos/campo-satellite.mp4,ZONGORA UTCA,stimuli/objects/050a.jpg,object,left,0,stimuli/objects/050a.jpg,stimuli/objects/050a.jpg,stimuli/scenes/045b.jpg,stimuli/objects/050b.jpg,stimuli/scenes/045a.jpg,target,dist2,lure,dist1,0,0,0,0,,,,,0,37,37,28,,,,,,,,,,,,,507.9477456398308,,,,,,,,,,,,,,,,504.05591459572315,504.05591459572315,504.05591459572315,504.05591459572315,504.05591459572315,504.05591459572315,left,1,,[],[],[],[],[],[],3.8398272823542356,,,,,,,,,,,,ST02_120922,2022-12-09_14h14.06.800,Hippopolis_Learning,2022.2.2,59.990447716017336,
Camponello,stimuli/subj_files/ST02_120922_cityB.csv,./stimuli/arnedillo.png,./stimuli/street_plate2.png,./stimuli/videos/camponello_part,./stimuli/videos/campo-satellite.mp4,SAJTÓ UTCA,stimuli/objects/078a.jpg,object,left,0,stimuli/objects/078a.jpg,stimuli/scenes/023a.jpg,stimuli/objects/078a.jpg,stimuli/scenes/023b.jpg,stimuli/objects/078b.jpg,dist1,target,dist2,lure,0,0,0,0,,,,,0,38,38,67,,,,,,,,,,,,,510.7793453205377,,,,,,,,,,,,,,,,508.95984907634556,508.95984907634556,508.95984907634556,508.95984907634556,508.95984907634556,508.95984907634556,down,0,,[],[],[],[],[],[],1.7838122323155403,,,,,,,,,,,,ST02_120922,2022-12-09_14h14.06.800,Hippopolis_Learning,2022.2.2,59.990447716017336,
Camponello,stimuli/subj_files/ST02_120922_cityB.csv,./stimuli/arnedillo.png,./stimuli/street_plate2.png,./stimuli/videos/camponello_part,./stimuli/videos/campo-satellite.mp4,KOSÁR UTCA,stimuli/scenes/036a.jpg,scene,right,2,stimuli/objects/053a.jpg,stimuli/objects/053a.jpg,stimuli/scenes/024b.jpg,stimuli/objects/053b.jpg,stimuli/scenes/024a.jpg,target,dist2,lure,dist1,0,0,0,0,,,,,0,39,39,0,,,,,,,,,,,,,513.5741877760738,,,,,,,,,,,,,,,,511.79246885702014,511.79246885702014,511.79246885702014,511.79246885702014,511.79246885702014,511.79246885702014,down,0,,[],[],[],[],[],[],1.75119792483747,,,,,,,,,,,,ST02_120922,2022-12-09_14h14.06.800,Hippopolis_Learning,2022.2.2,59.990447716017336,
Camponello,stimuli/subj_files/ST02_120922_cityB.csv,./stimuli/arnedillo.png,./stimuli/street_plate2.png,./stimuli/videos/camponello_part,./stimuli/videos/campo-satellite.mp4,OROSZLÁN UTCA,stimuli/scenes/113a.jpg,scene,right,0,stimuli/scenes/113a.jpg,stimuli/scenes/105a.jpg,stimuli/scenes/105b.jpg,stimuli/scenes/113a.jpg,stimuli/scenes/113b.jpg,dist1,dist2,target,lure,0,0,0,0,,,,,0,40,40,10,,,,,,,,,,,,,516.5570112038404,,,,,,,,,,,,,,,,514.5986499842256,514.5986499842256,514.5986499842256,514.5986499842256,514.5986499842256,514.5986499842256,down,0,,[],[],[],[],[],[],1.9200485814362764,,,,,,,,,,,,ST02_120922,2022-12-09_14h14.06.800,Hippopolis_Learning,2022.2.2,59.990447716017336,
Camponello,stimuli/subj_files/ST02_120922_cityB.csv,./stimuli/arnedillo.png,./stimuli/street_plate2.png,./stimuli/videos/camponello_part,./stimuli/videos/campo-satellite.mp4,EGÉR UTCA,stimuli/objects/082a.jpg,object,left,0,stimuli/objects/082a.jpg,stimuli/objects/030b.jpg,stimuli/objects/082b.jpg,stimuli/objects/082a.jpg,stimuli/objects/030a.jpg,dist2,lure,target,dist1,0,0,0,0,,,,,0,41,41,56,,,,,,,,,,,,,521.1534661054611,,,,,,,,522.174242887646,,,,,,,,517.5825420301408,517.5825420301408,517.5825420301408,517.5825420301408,517.5825420301408,517.5825420301408,left,1,,[],[],[],[],[],[],3.5288712717592716,,,,,,,,,,,,ST02_120922,2022-12-09_14h14.06.800,Hippopolis_Learning,2022.2.2,59.990447716017336,
Camponello,stimuli/subj_files/ST02_120922_cityB.csv,./stimuli/arnedillo.png,./stimuli/street_plate2.png,./stimuli/videos/camponello_part,./stimuli/videos/campo-satellite.mp4,SÜTŐ UTCA,stimuli/objects/055a.jpg,object,left,0,stimuli/objects/055a.jpg,stimuli/objects/088b.jpg,stimuli/objects/055a.jpg,stimuli/objects/088a.jpg,stimuli/objects/055b.jpg,dist2,target,dist1,lure,0,0,0,0,,,,,0,42,42,20,,,,,,,,,,,,,526.1847577020526,,,,,,,,,,,,,,,,522.174242887646,522.174242887646,522.174242887646,522.174242887646,522.174242887646,522.174242887646,None,0,,[],[],[],[],[],[],,,,,,,,,,,,,ST02_120922,2022-12-09_14h14.06.800,Hippopolis_Learning,2022.2.2,59.990447716017336,
Camponello,stimuli/subj_files/ST02_120922_cityB.csv,./stimuli/arnedillo.png,./stimuli/street_plate2.png,./stimuli/videos/camponello_part,./stimuli/videos/campo-satellite.mp4,FÜZET UTCA,stimuli/scenes/027a.jpg,scene,right,1,stimuli/scenes/097a.jpg,stimuli/scenes/097a.jpg,stimuli/scenes/100b.jpg,stimuli/scenes/097b.jpg,stimuli/scenes/100a.jpg,target,dist2,lure,dist1,0,0,0,0,,,,,0,43,43,24,,,,,,,,,,,,,528.3288528732955,,,,,,,,,,,,,,,,527.2148998193443,527.2148998193443,527.2148998193443,527.2148998193443,527.2148998193443,527.2148998193443,down,0,,[],[],[],[],[],[],1.063823726028204,,,,,,,,,,,,ST02_120922,2022-12-09_14h14.06.800,Hippopolis_Learning,2022.2.2,59.990447716017336,
Camponello,stimuli/subj_files/ST02_120922_cityB.csv,./stimuli/arnedillo.png,./stimuli/street_plate2.png,./stimuli/videos/camponello_part,./stimuli/videos/campo-satellite.mp4,PAPRIKA UTCA,stimuli/scenes/099a.jpg,scene,right,1,stimuli/scenes/076a.jpg,stimuli/objects/048a.jpg,stimuli/objects/048b.jpg,stimuli/scenes/076b.jpg,stimuli/scenes/076a.jpg,dist1,dist2,lure,target,0,0,0,0,,,,,0,44,44,41,,,,,,,,,,,,,533.3259993884712,,,,,,,,,,,,,,,,529.3558137062937,529.3558137062937,529.3558137062937,529.3558137062937,529.3558137062937,529.3558137062937,down,0,,[],[],[],[],[],[],3.9151878617703915,,,,,,,,,,,,ST02_120922,2022-12-09_14h14.06.800,Hippopolis_Learning,2022.2.2,59.990447716017336,
Camponello,stimuli/subj_files/ST02_120922_cityB.csv,./stimuli/arnedillo.png,./stimuli/street_plate2.png,./stimuli/videos/camponello_part,./stimuli/videos/campo-satellite.mp4,KIRAKÓ UTCA,stimuli/objects/010a.jpg,object,left,1,stimuli/objects/092a.jpg,stimuli/objects/045b.jpg,stimuli/objects/092a.jpg,stimuli/objects/045a.jpg,stimuli/objects/092b.jpg,dist2,target,dist1,lure,0,0,0,0,,,,,0,45,45,78,,,,,,,,,,,,,535.5815144646913,,,,,,,,,,,,,,,,534.357832448557,534.357832448557,534.357832448557,534.357832448557,534.357832448557,534.357832448557,down,0,,[],[],[],[],[],[],1.1854502391070127,,,,,,,,,,,,ST02_120922,2022-12-09_14h14.06.800,Hippopolis_Learning,2022.2.2,59.990447716017336,
Camponello,stimuli/subj_files/ST02_120922_cityB.csv,./stimuli/arnedillo.png,./stimuli/street_plate2.png,./stimuli/videos/camponello_part,./stimuli/videos/campo-satellite.mp4,TULIPÁN UTCA,stimuli/scenes/119a.jpg,scene,right,0,stimuli/scenes/119a.jpg,stimuli/scenes/119b.jpg,stimuli/objects/035b.jpg,stimuli/objects/035a.jpg,stimuli/scenes/119a.jpg,lure,dist2,dist1,target,0,0,0,0,,,,,0,46,46,18,,,,,,,,,,,,,538.8478438556194,,,,,,,,,,,,,,,,536.614243844524,536.614243844524,536.614243844524,536.614243844524,536.614243844524,536.614243844524,down,0,,[],[],[],[],[],[],2.1924656108021736,,,,,,,,,,,,ST02_120922,2022-12-09_14h14.06.800,Hippopolis_Learning,2022.2.2,59.990447716017336,
Camponello,stimuli/subj_files/ST02_120922_cityB.csv,./stimuli/arnedillo.png,./stimuli/street_plate2.png,./stimuli/videos/camponello_part,./stimuli/videos/campo-satellite.mp4,BOLYGÓ UTCA,stimuli/objects/091a.jpg,object,left,2,stimuli/scenes/021a.jpg,stimuli/objects/089b.jpg,stimuli/scenes/021b.jpg,stimuli/scenes/021a.jpg,stimuli/objects/089a.jpg,dist2,lure,target,dist1,0,0,0,0,,,,,0,47,47,54,,,,,,,,,,,,,542.4749456364661,,,,,,,,,,,,,,,,539.8771736249328,539.8771736249328,539.8771736249328,539.8771736249328,539.8771736249328,539.8771736249328,down,0,,[],[],[],[],[],[],2.5616712495684624,,,,,,,,,,,,ST02_120922,2022-12-09_14h14.06.800,Hippopolis_Learning,2022.2.2,59.990447716017336,
Camponello,stimuli/subj_files/ST02_120922_cityB.csv,./stimuli/arnedillo.png,./stimuli/street_plate2.png,./stimuli/videos/camponello_part,./stimuli/videos/campo-satellite.mp4,KULLANCS UTCA,stimuli/scenes/065a.jpg,scene,right,0,stimuli/scenes/065a.jpg,stimuli/scenes/065a.jpg,stimuli/objects/081a.jpg,stimuli/objects/081b.jpg,stimuli/scenes/065b.jpg,target,dist1,dist2,lure,0,0,0,0,,,,,0,48,48,17,,,,,,,,,,,,,547.1937899496406,,,,,,,,,,,,,,,,543.5020557530224,543.5020557530224,543.5020557530224,543.5020557530224,543.5020557530224,543.5020557530224,left,0,,[],[],[],[],[],[],3.65682427957654,,,,,,,,,,,,ST02_120922,2022-12-09_14h14.06.800,Hippopolis_Learning,2022.2.2,59.990447716017336,
Camponello,stimuli/subj_files/ST02_120922_cityB.csv,./stimuli/arnedillo.png,./stimuli/street_plate2.png,./stimuli/videos/camponello_part,./stimuli/videos/campo-satellite.mp4,KESZTYŰ UTCA,stimuli/objects/074a.jpg,object,left,2,stimuli/scenes/024a.jpg,stimuli/scenes/024a.jpg,stimuli/objects/072b.jpg,stimuli/scenes/024b.jpg,stimuli/objects/072a.jpg,target,dist2,lure,dist1,0,0,0,0,,,,,0,49,49,11,,,,,,,,,,,,,550.8546667136252,,,,,,,,,,,,,,,,548.2241248916835,548.2241248916835,548.2241248916835,548.2241248916835,548.2241248916835,548.2241248916835,down,0,,[],[],[],[],[],[],2.598173448815942,,,,,,,,,,,,ST02_120922,2022-12-09_14h14.06.800,Hippopolis_Learning,2022.2.2,59.990447716017336,
Camponello,stimuli/subj_files/ST02_120922_cityB.csv,./stimuli/arnedillo.png,./stimuli/street_plate2.png,./stimuli/videos/camponello_part,./stimuli/videos/campo-satellite.mp4,KATONA UTCA,stimuli/scenes/017a.jpg,scene,right,1,stimuli/scenes/100a.jpg,stimuli/scenes/076a.jpg,stimuli/scenes/100a.jpg,stimuli/scenes/100b.jpg,stimuli/scenes/076b.jpg,dist1,target,lure,dist2,0,0,0,0,,,,,0,50,50,48,,,,,,,,,,,,,554.8410057574511,,,,,,,,,,,,,,,,551.87366858311,551.87366858311,551.87366858311,551.87366858311,551.87366858311,551.87366858311,down,0,,[],[],[],[],[],[],2.917242370545864,,,,,,,,,,,,ST02_120922,2022-12-09_14h14.06.800,Hippopolis_Learning,2022.2.2,59.990447716017336,
Camponello,stimuli/subj_files/ST02_120922_cityB.csv,./stimuli/arnedillo.png,./stimuli/street_plate2.png,./stimuli/videos/camponello_part,./stimuli/videos/campo-satellite.mp4,FÉSŰ UTCA,stimuli/scenes/039a.jpg,scene,right,2,stimuli/objects/065a.jpg,stimuli/objects/077b.jpg,stimuli/objects/065a.jpg,stimuli/objects/077a.jpg,stimuli/objects/065b.jpg,dist2,target,dist1,lure,0,0,0,0,,,,,0,51,51,45,,,,,,,,,,,,,557.3727641757578,,,,,,,,,,,,,,,,555.8736418355256,555.8736418355256,555.8736418355256,555.8736418355256,555.8736418355256,555.8736418355256,down,0,,[],[],[],[],[],[],1.4605453461408615,,,,,,,,,,,,ST02_120922,2022-12-09_14h14.06.800,Hippopolis_Learning,2022.2.2,59.990447716017336,
Camponello,stimuli/subj_files/ST02_120922_cityB.csv,./stimuli/arnedillo.png,./stimuli/street_plate2.png,./stimuli/videos/camponello_part,./stimuli/videos/campo-satellite.mp4,KAKAS UTCA,stimuli/objects/011a.jpg,object,left,1,stimuli/objects/069a.jpg,stimuli/scenes/117b.jpg,stimuli/objects/069a.jpg,stimuli/scenes/117a.jpg,stimuli/objects/069b.jpg,dist2,target,dist1,lure,0,0,0,0,,,,,0,52,52,70,,,,,,,,,,,,,560.6849349755794,,,,,,,,,,,,,,,,558.4040579497814,558.4040579497814,558.4040579497814,558.4040579497814,558.4040579497814,558.4040579497814,down,0,,[],[],[],[],[],[],2.2428365163505077,,,,,,,,,,,,ST02_120922,2022-12-09_14h14.06.800,Hippopolis_Learning,2022.2.2,59.990447716017336,
Camponello,stimuli/subj_files/ST02_120922_cityB.csv,./stimuli/arnedillo.png,./stimuli/street_plate2.png,./stimuli/videos/camponello_part,./stimuli/videos/campo-satellite.mp4,SZOMSZÉD UTCA,stimuli/scenes/023a.jpg,scene,right,0,stimuli/scenes/023a.jpg,stimuli/scenes/113b.jpg,stimuli/scenes/023b.jpg,stimuli/scenes/023a.jpg,stimuli/scenes/113a.jpg,dist2,lure,target,dist1,0,0,0,0,,,,,0,53,53,33,,,,,,,,,,,,,563.9564093444496,,,,,,,,,,,,,,,,561.7067862842232,561.7067862842232,561.7067862842232,561.7067862842232,561.7067862842232,561.7067862842232,right,1,,[],[],[],[],[],[],2.2198127135634422,,,,,,,,,,,,ST02_120922,2022-12-09_14h14.06.800,Hippopolis_Learning,2022.2.2,59.990447716017336,
Camponello,stimuli/subj_files/ST02_120922_cityB.csv,./stimuli/arnedillo.png,./stimuli/street_plate2.png,./stimuli/videos/camponello_part,./stimuli/videos/campo-satellite.mp4,LABDA UTCA,stimuli/objects/115a.jpg,object,left,0,stimuli/objects/115a.jpg,stimuli/objects/115a.jpg,stimuli/objects/005b.jpg,stimuli/objects/115b.jpg,stimuli/objects/005a.jpg,target,dist2,lure,dist1,0,0,0,0,,,,,0,54,54,31,,,,,,,,,,,,,567.7522790562361,,,,,,,,,,,,,,,,564.9779440499842,564.9779440499842,564.9779440499842,564.9779440499842,564.9779440499842,564.9779440499842,down,0,,[],[],[],[],[],[],2.724928768351674,,,,,,,,,,,,ST02_120922,2022-12-09_14h14.06.800,Hippopolis_Learning,2022.2.2,59.990447716017336,
Camponello,stimuli/subj_files/ST02_120922_cityB.csv,./stimuli/arnedillo.png,./stimuli/street_plate2.png,./stimuli/videos/camponello_part,./stimuli/videos/campo-satellite.mp4,ZSEMLE UTCA,stimuli/objects/018a.jpg,object,left,1,stimuli/objects/116a.jpg,stimuli/objects/069a.jpg,stimuli/objects/116a.jpg,stimuli/objects/116b.jpg,stimuli/objects/069b.jpg,dist1,target,lure,dist2,0,0,0,0,,,,,0,55,55,6,,,,,,,,,,,,,571.6130103934556,,,,,,,,,,,,,,,,568.772042889148,568.772042889148,568.772042889148,568.772042889148,568.772042889148,568.772042889148,down,0,,[],[],[],[],[],[],2.8028952721506357,,,,,,,,,,,,ST02_120922,2022-12-09_14h14.06.800,Hippopolis_Learning,2022.2.2,59.990447716017336,
Camponello,stimuli/subj_files/ST02_120922_cityB.csv,./stimuli/arnedillo.png,./stimuli/street_plate2.png,./stimuli/videos/camponello_part,./stimuli/videos/campo-satellite.mp4,SUGÁR UTCA,stimuli/objects/075a.jpg,object,left,2,stimuli/scenes/103a.jpg,stimuli/objects/007a.jpg,stimuli/objects/007b.jpg,stimuli/scenes/103b.jpg,stimuli/scenes/103a.jpg,dist1,dist2,lure,target,0,0,0,0,,,,,0,56,56,51,,,,,,,,,,,,,574.2250162363052,,,,,,,,,,,,,,,,572.636332763359,572.636332763359,572.636332763359,572.636332763359,572.636332763359,572.636332763359,down,0,,[],[],[],[],[],[],1.5621952954679728,,,,,,,,,,,,ST02_120922,2022-12-09_14h14.06.800,Hippopolis_Learning,2022.2.2,59.990447716017336,
Camponello,stimuli/subj_files/ST02_120922_cityB.csv,./stimuli/arnedillo.png,./stimuli/street_plate2.png,./stimuli/videos/camponello_part,./stimuli/videos/campo-satellite.mp4,MANDARIN UTCA,stimuli/scenes/071a.jpg,scene,right,0,stimuli/scenes/071a.jpg,stimuli/scenes/040b.jpg,stimuli/scenes/071a.jpg,stimuli/scenes/040a.jpg,stimuli/scenes/071b.jpg,dist2,target,dist1,lure,0,0,0,0,,,,,0,57,57,19,,,,,,,,,,,,,576.5781008582562,,,,,,,,,,,,,,,,575.2476941999048,575.2476941999048,575.2476941999048,575.2476941999048,575.2476941999048,575.2476941999048,down,0,,[],[],[],[],[],[],1.2714242246001959,,,,,,,,,,,,ST02_120922,2022-12-09_14h14.06.800,Hippopolis_Learning,2022.2.2,59.990447716017336,
Camponello,stimuli/subj_files/ST02_120922_cityB.csv,./stimuli/arnedillo.png,./stimuli/street_plate2.png,./stimuli/videos/camponello_part,./stimuli/videos/campo-satellite.mp4,TISZTÁS UTCA,stimuli/objects/054a.jpg,object,left,0,stimuli/objects/054a.jpg,stimuli/objects/054b.jpg,stimuli/objects/115a.jpg,stimuli/objects/054a.jpg,stimuli/objects/115b.jpg,lure,dist1,target,dist2,0,0,0,0,,,,,0,58,58,22,,,,,,,,,,,,,579.1454956326634,,,,,,,,,,,,,,,,577.5977692138404,577.5977692138404,577.5977692138404,577.5977692138404,577.5977692138404,577.5977692138404,down,0,,[],[],[],[],[],[],1.4966289289295673,,,,,,,,,,,,ST02_120922,2022-12-09_14h14.06.800,Hippopolis_Learning,2022.2.2,59.990447716017336,
Camponello,stimuli/subj_files/ST02_120922_cityB.csv,./stimuli/arnedillo.png,./stimuli/street_plate2.png,./stimuli/videos/camponello_part,./stimuli/videos/campo-satellite.mp4,BÖGRE UTCA,stimuli/scenes/040a.jpg,scene,right,0,stimuli/scenes/040a.jpg,stimuli/scenes/040a.jpg,stimuli/objects/050b.jpg,stimuli/scenes/040b.jpg,stimuli/objects/050a.jpg,target,dist2,lure,dist1,0,0,0,0,,,,,0,59,59,49,,,,,,,,,,,,,581.4404687117785,,,,,,,,,,,,,,,,580.1816208921373,580.1816208921373,580.1816208921373,580.1816208921373,580.1816208921373,580.1816208921373,down,0,,[],[],[],[],[],[],1.2325095497071743,,,,,,,,,,,,ST02_120922,2022-12-09_14h14.06.800,Hippopolis_Learning,2022.2.2,59.990447716017336,
Camponello,stimuli/subj_files/ST02_120922_cityB.csv,./stimuli/arnedillo.png,./stimuli/street_plate2.png,./stimuli/videos/camponello_part,./stimuli/videos/campo-satellite.mp4,BONBON UTCA,stimuli/objects/003a.jpg,object,left,0,stimuli/objects/003a.jpg,stimuli/objects/003a.jpg,stimuli/objects/003b.jpg,stimuli/objects/108a.jpg,stimuli/objects/108b.jpg,target,lure,dist1,dist2,0,0,0,0,,,,,0,60,60,5,,,,,,,,,,,,,584.7788968496025,,,,,,,,,,,,,,,,582.4670168403536,582.4670168403536,582.4670168403536,582.4670168403536,582.4670168403536,582.4670168403536,down,0,,[],[],[],[],[],[],2.275342594832182,,,,,,,,,,,,ST02_120922,2022-12-09_14h14.06.800,Hippopolis_Learning,2022.2.2,59.990447716017336,
Camponello,stimuli/subj_files/ST02_120922_cityB.csv,./stimuli/arnedillo.png,./stimuli/street_plate2.png,./stimuli/videos/camponello_part,./stimuli/videos/campo-satellite.mp4,LÉPCSŐ UTCA,stimuli/objects/049a.jpg,object,left,0,stimuli/objects/049a.jpg,stimuli/objects/049a.jpg,stimuli/objects/049b.jpg,stimuli/objects/031a.jpg,stimuli/objects/031b.jpg,target,lure,dist1,dist2,0,0,0,0,,,,,0,61,61,75,,,,,,,,,,,,,587.2907489910722,,,,,,,,,,,,,,,,585.8056129198521,585.8056129198521,585.8056129198521,585.8056129198521,585.8056129198521,585.8056129198521,down,0,,[],[],[],[],[],[],1.4323467072099447,,,,,,,,,,,,ST02_120922,2022-12-09_14h14.06.800,Hippopolis_Learning,2022.2.2,59.990447716017336,
Camponello,stimuli/subj_files/ST02_120922_cityB.csv,./stimuli/arnedillo.png,./stimuli/street_plate2.png,./stimuli/videos/camponello_part,./stimuli/videos/campo-satellite.mp4,MOCSÁR UTCA,stimuli/objects/022a.jpg,object,left,0,stimuli/objects/022a.jpg,stimuli/scenes/062b.jpg,stimuli/objects/022b.jpg,stimuli/objects/022a.jpg,stimuli/scenes/062a.jpg,dist2,lure,target,dist1,0,0,0,0,,,,,0,62,62,66,,,,,,,,,,,,,591.8321983683854,,,,,,,,,,,,,,,,588.3134540133178,588.3134540133178,588.3134540133178,588.3134540133178,588.3134540133178,588.3134540133178,down,0,,[],[],[],[],[],[],3.48466451279819,,,,,,,,,,,,ST02_120922,2022-12-09_14h14.06.800,Hippopolis_Learning,2022.2.2,59.990447716017336,
Camponello,stimuli/subj_files/ST02_120922_cityB.csv,./stimuli/arnedillo.png,./stimuli/street_plate2.png,./stimuli/videos/camponello_part,./stimuli/videos/campo-satellite.mp4,PULÓVER UTCA,stimuli/objects/035a.jpg,object,left,0,stimuli/objects/035a.jpg,stimuli/objects/035a.jpg,stimuli/scenes/029b.jpg,stimuli/scenes/029a.jpg,stimuli/objects/035b.jpg,target,dist2,dist1,lure,0,0,0,0,,,,,0,63,63,69,,,,,,,,,,,,,594.2086644526571,,,,,,,,,,,,,,,,592.8483906053007,592.8483906053007,592.8483906053007,592.8483906053007,592.8483906053007,592.8483906053007,down,0,,[],[],[],[],[],[],1.334038207307458,,,,,,,,,,,,ST02_120922,2022-12-09_14h14.06.800,Hippopolis_Learning,2022.2.2,59.990447716017336,
Camponello,stimuli/subj_files/ST02_120922_cityB.csv,./stimuli/arnedillo.png,./stimuli/street_plate2.png,./stimuli/videos/camponello_part,./stimuli/videos/campo-satellite.mp4,SÜTEMÉNY UTCA,stimuli/objects/103a.jpg,object,left,0,stimuli/objects/103a.jpg,stimuli/objects/103b.jpg,stimuli/objects/103a.jpg,stimuli/objects/049b.jpg,stimuli/objects/049a.jpg,lure,target,dist2,dist1,0,0,0,0,,,,,0,64,64,43,,,,,,,,,,,,,596.9150778390467,,,,,,,,,,,,,,,,595.2350377943367,595.2350377943367,595.2350377943367,595.2350377943367,595.2350377943367,595.2350377943367,down,0,,[],[],[],[],[],[],1.634785121306777,,,,,,,,,,,,ST02_120922,2022-12-09_14h14.06.800,Hippopolis_Learning,2022.2.2,59.990447716017336,
Camponello,stimuli/subj_files/ST02_120922_cityB.csv,./stimuli/arnedillo.png,./stimuli/street_plate2.png,./stimuli/videos/camponello_part,./stimuli/videos/campo-satellite.mp4,FÓKA UTCA,stimuli/objects/083a.jpg,object,left,0,stimuli/objects/083a.jpg,stimuli/objects/083b.jpg,stimuli/scenes/091b.jpg,stimuli/objects/083a.jpg,stimuli/scenes/091a.jpg,lure,dist2,target,dist1,0,0,0,0,,,,,0,65,65,52,,,,,,,,,,,,,601.6041420456022,,,,,,,,,,,,,,,,597.9316672310233,597.9316672310233,597.9316672310233,597.9316672310233,597.9316672310233,597.9316672310233,left,1,,[],[],[],[],[],[],3.6263612024486065,,,,,,,,,,,,ST02_120922,2022-12-09_14h14.06.800,Hippopolis_Learning,2022.2.2,59.990447716017336,
