CityName,StimuliFile,CityImage,StreetSign,Cue,Image,Category,Novelty,UpdateImage,TestImage1,TestImage2,TestImage3,TestImage4,TestImage1Type,TestImage2Type,TestImage3Type,TestImage4Type,CityBlock.thisRepN,CityBlock.thisTrialN,CityBlock.thisN,CityBlock.thisIndex,LearningTrials.thisRepN,LearningTrials.thisTrialN,LearningTrials.thisN,LearningTrials.thisIndex,trials.thisRepN,trials.thisTrialN,trials.thisN,trials.thisIndex,learning_instructions_text.started,learning_instructions_text.stopped,intro_key.keys,intro_key.rt,intro_key.started,intro_key.stopped,cityname_text.started,cityname_text.stopped,city_image.started,city_image.stopped,fx_cross.started,fx_cross.stopped,plate.started,plate.stopped,city_text.started,city_text.stopped,street_text.started,street_text.stopped,learning_image.started,learning_image.stopped,short_break_text.started,short_break_text.stopped,short_break_key.keys,short_break_key.started,short_break_key.stopped,short_break_key.rt,test_text.started,test_text.stopped,key_resp.keys,key_resp.rt,key_resp.started,key_resp.stopped,plate_test.started,plate_test.stopped,city_text_test.started,city_text_test.stopped,street_text_test.started,street_text_test.stopped,test_question.started,test_question.stopped,test_key_resp.keys,test_key_resp.rt,test_key_resp.started,test_key_resp.stopped,button_image.started,button_image.stopped,plate_verbal.started,plate_verbal.stopped,street_text_verbal.started,street_text_verbal.stopped,city_text_verbal.started,city_text_verbal.stopped,question_verbal.started,question_verbal.stopped,verbal_test_key_resp.keys,verbal_test_key_resp.started,verbal_test_key_resp.stopped,verbal_test_key_resp.rt,n_remembered,break_text.started,break_text.stopped,break_key_resp.keys,break_key_resp.rt,break_key_resp.started,break_key_resp.stopped,end_text.started,end_text.stopped,participant,date,expName,psychopyVersion,frameRate,
,,,,,,,,,,,,,,,,,,,,,,,,,,,,,253.33732059999602,None,space,41.36585850000847,253.33732059999602,None,,,,,,,,,,,,,,,,,,,,,,,,,,,,,,,,,,,,,,,,,,,,,,,,,,,,,,,,,,,,,,ST02_112522,2022-11-25_14h18.28.134,Hippopolis_Learning,2021.1.4,60.21132973258861,
Hippopolis,stimuli/subj_files/ST02_112522_cityA.csv,./stimuli/seattle.jpg,./stimuli/street_plate1.png,HORDÓ UTCA,stimuli/objects/052a.jpg,object,0,stimuli/objects/052a.jpg,stimuli/objects/052b.jpg,stimuli/objects/057b.jpg,stimuli/objects/052a.jpg,stimuli/objects/057a.jpg,lure,dist2,target,dist1,0,0,0,0,0,0,0,69,,,,,,,,,,,294.7927183000138,None,294.7927183000138,None,297.74585200002184,None,298.77012780000223,None,298.77012780000223,None,298.77012780000223,None,298.77012780000223,None,None,None,None,None,None,,,,,,,,,,,,,,,,,,,,,,,,,,,,,,,,,,,,,,,,,,,ST02_112522,2022-11-25_14h18.28.134,Hippopolis_Learning,2021.1.4,60.21132973258861,
Hippopolis,stimuli/subj_files/ST02_112522_cityA.csv,./stimuli/seattle.jpg,./stimuli/street_plate1.png,SZOMSZÉD UTCA,stimuli/scenes/017a.jpg,scene,1,stimuli/scenes/013a.jpg,stimuli/scenes/015a.jpg,stimuli/scenes/015b.jpg,stimuli/scenes/013b.jpg,stimuli/scenes/013a.jpg,dist1,dist2,lure,target,0,0,0,0,0,1,1,12,,,,,,,,,,,,,,,301.75023950001923,None,302.7518488000205,None,302.7518488000205,None,302.7518488000205,None,302.7518488000205,None,None,None,None,None,None,,,,,,,,,,,,,,,,,,,,,,,,,,,,,,,,,,,,,,,,,,,ST02_112522,2022-11-25_14h18.28.134,Hippopolis_Learning,2021.1.4,60.21132973258861,
Hippopolis,stimuli/subj_files/ST02_112522_cityA.csv,./stimuli/seattle.jpg,./stimuli/street_plate1.png,KORONG UTCA,stimuli/objects/046a.jpg,object,1,stimuli/objects/099a.jpg,stimuli/objects/099a.jpg,stimuli/objects/099b.jpg,stimuli/objects/062a.jpg,stimuli/objects/062b.jpg,target,lure,dist1,dist2,0,0,0,0,0,2,2,53,,,,,,,,,,,,,,,305.76710040000034,None,306.76847110001836,None,306.76847110001836,None,306.76847110001836,None,306.76847110001836,None,None,None,None,None,None,,,,,,,,,,,,,,,,,,,,,,,,,,,,,,,,,,,,,,,,,,,ST02_112522,2022-11-25_14h18.28.134,Hippopolis_Learning,2021.1.4,60.21132973258861,
Hippopolis,stimuli/subj_files/ST02_112522_cityA.csv,./stimuli/seattle.jpg,./stimuli/street_plate1.png,VÖDÖR UTCA,stimuli/scenes/016a.jpg,scene,0,stimuli/scenes/016a.jpg,stimuli/objects/054b.jpg,stimuli/objects/054a.jpg,stimuli/scenes/016b.jpg,stimuli/scenes/016a.jpg,dist2,dist1,lure,target,0,0,0,0,0,3,3,8,,,,,,,,,,,,,,,309.7832425000088,None,310.7839290999982,None,310.7839290999982,None,310.7839290999982,None,310.7839290999982,None,None,None,None,None,None,,,,,,,,,,,,,,,,,,,,,,,,,,,,,,,,,,,,,,,,,,,ST02_112522,2022-11-25_14h18.28.134,Hippopolis_Learning,2021.1.4,60.21132973258861,
Hippopolis,stimuli/subj_files/ST02_112522_cityA.csv,./stimuli/seattle.jpg,./stimuli/street_plate1.png,KOKTÉL UTCA,stimuli/scenes/010a.jpg,scene,0,stimuli/scenes/010a.jpg,stimuli/scenes/010a.jpg,stimuli/objects/079a.jpg,stimuli/scenes/010b.jpg,stimuli/objects/079b.jpg,target,dist1,lure,dist2,0,0,0,0,0,4,4,62,,,,,,,,,,,,,,,313.78317939999397,None,314.7836001999967,None,314.7836001999967,None,314.7836001999967,None,314.7836001999967,None,None,None,None,None,None,,,,,,,,,,,,,,,,,,,,,,,,,,,,,,,,,,,,,,,,,,,ST02_112522,2022-11-25_14h18.28.134,Hippopolis_Learning,2021.1.4,60.21132973258861,
Hippopolis,stimuli/subj_files/ST02_112522_cityA.csv,./stimuli/seattle.jpg,./stimuli/street_plate1.png,RÓZSA UTCA,stimuli/scenes/102a.jpg,scene,2,stimuli/objects/061a.jpg,stimuli/objects/061b.jpg,stimuli/objects/001b.jpg,stimuli/objects/061a.jpg,stimuli/objects/001a.jpg,lure,dist2,target,dist1,0,0,0,0,0,5,5,38,,,,,,,,,,,,,,,317.78300450000097,None,318.7835083999962,None,318.7835083999962,None,318.7835083999962,None,318.7835083999962,None,None,None,None,None,None,,,,,,,,,,,,,,,,,,,,,,,,,,,,,,,,,,,,,,,,,,,ST02_112522,2022-11-25_14h18.28.134,Hippopolis_Learning,2021.1.4,60.21132973258861,
Hippopolis,stimuli/subj_files/ST02_112522_cityA.csv,./stimuli/seattle.jpg,./stimuli/street_plate1.png,PADLÓ UTCA,stimuli/scenes/062a.jpg,scene,2,stimuli/objects/028a.jpg,stimuli/objects/028a.jpg,stimuli/objects/028b.jpg,stimuli/objects/103b.jpg,stimuli/objects/103a.jpg,target,lure,dist2,dist1,0,0,0,0,0,6,6,32,,,,,,,,,,,,,,,321.78287049999926,None,322.7838585000136,None,322.7838585000136,None,322.7838585000136,None,322.7838585000136,None,None,None,None,None,None,,,,,,,,,,,,,,,,,,,,,,,,,,,,,,,,,,,,,,,,,,,ST02_112522,2022-11-25_14h18.28.134,Hippopolis_Learning,2021.1.4,60.21132973258861,
Hippopolis,stimuli/subj_files/ST02_112522_cityA.csv,./stimuli/seattle.jpg,./stimuli/street_plate1.png,KESELYŰ UTCA,stimuli/objects/119a.jpg,object,2,stimuli/scenes/065a.jpg,stimuli/scenes/065a.jpg,stimuli/scenes/065b.jpg,stimuli/scenes/033b.jpg,stimuli/scenes/033a.jpg,target,lure,dist2,dist1,0,0,0,0,0,7,7,6,,,,,,,,,,,,,,,325.7833014000207,None,326.7932976000011,None,326.7932976000011,None,326.7932976000011,None,326.7932976000011,None,None,None,None,None,None,,,,,,,,,,,,,,,,,,,,,,,,,,,,,,,,,,,,,,,,,,,ST02_112522,2022-11-25_14h18.28.134,Hippopolis_Learning,2021.1.4,60.21132973258861,
Hippopolis,stimuli/subj_files/ST02_112522_cityA.csv,./stimuli/seattle.jpg,./stimuli/street_plate1.png,ÁLLOMÁS UTCA,stimuli/scenes/053a.jpg,scene,1,stimuli/scenes/015a.jpg,stimuli/objects/038b.jpg,stimuli/scenes/015b.jpg,stimuli/scenes/015a.jpg,stimuli/objects/038a.jpg,dist2,lure,target,dist1,0,0,0,0,0,8,8,67,,,,,,,,,,,,,,,329.7994255000085,None,330.80167580000125,None,330.80167580000125,None,330.80167580000125,None,330.80167580000125,None,None,None,None,None,None,,,,,,,,,,,,,,,,,,,,,,,,,,,,,,,,,,,,,,,,,,,ST02_112522,2022-11-25_14h18.28.134,Hippopolis_Learning,2021.1.4,60.21132973258861,
Hippopolis,stimuli/subj_files/ST02_112522_cityA.csv,./stimuli/seattle.jpg,./stimuli/street_plate1.png,VITORLA UTCA,stimuli/objects/027a.jpg,object,2,stimuli/scenes/094a.jpg,stimuli/objects/056a.jpg,stimuli/scenes/094a.jpg,stimuli/objects/056b.jpg,stimuli/scenes/094b.jpg,dist1,target,dist2,lure,0,0,0,0,0,9,9,17,,,,,,,,,,,,,,,333.81650080002146,None,334.82029790000524,None,334.82029790000524,None,334.82029790000524,None,334.82029790000524,None,None,None,None,None,None,,,,,,,,,,,,,,,,,,,,,,,,,,,,,,,,,,,,,,,,,,,ST02_112522,2022-11-25_14h18.28.134,Hippopolis_Learning,2021.1.4,60.21132973258861,
Hippopolis,stimuli/subj_files/ST02_112522_cityA.csv,./stimuli/seattle.jpg,./stimuli/street_plate1.png,FÜGE UTCA,stimuli/objects/080a.jpg,object,1,stimuli/objects/030a.jpg,stimuli/objects/030b.jpg,stimuli/objects/030a.jpg,stimuli/objects/070a.jpg,stimuli/objects/070b.jpg,lure,target,dist1,dist2,0,0,0,0,0,10,10,22,,,,,,,,,,,,,,,337.8326168000058,None,338.84244199999375,None,338.84244199999375,None,338.84244199999375,None,338.84244199999375,None,None,None,None,None,None,,,,,,,,,,,,,,,,,,,,,,,,,,,,,,,,,,,,,,,,,,,ST02_112522,2022-11-25_14h18.28.134,Hippopolis_Learning,2021.1.4,60.21132973258861,
Hippopolis,stimuli/subj_files/ST02_112522_cityA.csv,./stimuli/seattle.jpg,./stimuli/street_plate1.png,PÁFRÁNY UTCA,stimuli/objects/037a.jpg,object,1,stimuli/objects/070a.jpg,stimuli/objects/070a.jpg,stimuli/scenes/066a.jpg,stimuli/objects/070b.jpg,stimuli/scenes/066b.jpg,target,dist1,lure,dist2,0,0,0,0,0,11,11,73,,,,,,,,,,,,,,,341.8491261000163,None,342.85187600000063,None,342.85187600000063,None,342.85187600000063,None,342.85187600000063,None,None,None,None,None,None,,,,,,,,,,,,,,,,,,,,,,,,,,,,,,,,,,,,,,,,,,,ST02_112522,2022-11-25_14h18.28.134,Hippopolis_Learning,2021.1.4,60.21132973258861,
Hippopolis,stimuli/subj_files/ST02_112522_cityA.csv,./stimuli/seattle.jpg,./stimuli/street_plate1.png,MUNKA UTCA,stimuli/scenes/004a.jpg,scene,2,stimuli/objects/022a.jpg,stimuli/objects/022b.jpg,stimuli/objects/022a.jpg,stimuli/scenes/051a.jpg,stimuli/scenes/051b.jpg,lure,target,dist1,dist2,0,0,0,0,0,12,12,58,,,,,,,,,,,,,,,345.86570690001827,None,346.8668250000046,None,346.8668250000046,None,346.8668250000046,None,346.8668250000046,None,None,None,None,None,None,,,,,,,,,,,,,,,,,,,,,,,,,,,,,,,,,,,,,,,,,,,ST02_112522,2022-11-25_14h18.28.134,Hippopolis_Learning,2021.1.4,60.21132973258861,
Hippopolis,stimuli/subj_files/ST02_112522_cityA.csv,./stimuli/seattle.jpg,./stimuli/street_plate1.png,LEMEZ UTCA,stimuli/scenes/111a.jpg,scene,2,stimuli/objects/106a.jpg,stimuli/scenes/065a.jpg,stimuli/objects/106a.jpg,stimuli/objects/106b.jpg,stimuli/scenes/065b.jpg,dist1,target,lure,dist2,0,0,0,0,0,13,13,49,,,,,,,,,,,,,,,349.86572040000465,None,350.86960470001213,None,350.86960470001213,None,350.86960470001213,None,350.86960470001213,None,None,None,None,None,None,,,,,,,,,,,,,,,,,,,,,,,,,,,,,,,,,,,,,,,,,,,ST02_112522,2022-11-25_14h18.28.134,Hippopolis_Learning,2021.1.4,60.21132973258861,
Hippopolis,stimuli/subj_files/ST02_112522_cityA.csv,./stimuli/seattle.jpg,./stimuli/street_plate1.png,FÓKA UTCA,stimuli/scenes/085a.jpg,scene,0,stimuli/scenes/085a.jpg,stimuli/scenes/085b.jpg,stimuli/scenes/117a.jpg,stimuli/scenes/085a.jpg,stimuli/scenes/117b.jpg,lure,dist1,target,dist2,0,0,0,0,0,14,14,44,,,,,,,,,,,,,,,353.8823454999947,None,354.88306590000866,None,354.88306590000866,None,354.88306590000866,None,354.88306590000866,None,None,None,None,None,None,,,,,,,,,,,,,,,,,,,,,,,,,,,,,,,,,,,,,,,,,,,ST02_112522,2022-11-25_14h18.28.134,Hippopolis_Learning,2021.1.4,60.21132973258861,
Hippopolis,stimuli/subj_files/ST02_112522_cityA.csv,./stimuli/seattle.jpg,./stimuli/street_plate1.png,HARCSA UTCA,stimuli/objects/098a.jpg,object,2,stimuli/scenes/090a.jpg,stimuli/scenes/090b.jpg,stimuli/scenes/090a.jpg,stimuli/scenes/110a.jpg,stimuli/scenes/110b.jpg,lure,target,dist1,dist2,0,0,0,0,0,15,15,78,,,,,,,,,,,,,,,357.88224520001677,None,358.8829359000083,None,358.8829359000083,None,358.8829359000083,None,358.8829359000083,None,None,None,None,None,None,,,,,,,,,,,,,,,,,,,,,,,,,,,,,,,,,,,,,,,,,,,ST02_112522,2022-11-25_14h18.28.134,Hippopolis_Learning,2021.1.4,60.21132973258861,
Hippopolis,stimuli/subj_files/ST02_112522_cityA.csv,./stimuli/seattle.jpg,./stimuli/street_plate1.png,KÖMÉNYMAG UTCA,stimuli/objects/026a.jpg,object,2,stimuli/scenes/108a.jpg,stimuli/scenes/108b.jpg,stimuli/objects/006b.jpg,stimuli/scenes/108a.jpg,stimuli/objects/006a.jpg,lure,dist2,target,dist1,0,0,0,0,0,16,16,14,,,,,,,,,,,,,,,361.88206780000473,None,362.88299240000197,None,362.88299240000197,None,362.88299240000197,None,362.88299240000197,None,None,None,None,None,None,,,,,,,,,,,,,,,,,,,,,,,,,,,,,,,,,,,,,,,,,,,ST02_112522,2022-11-25_14h18.28.134,Hippopolis_Learning,2021.1.4,60.21132973258861,
Hippopolis,stimuli/subj_files/ST02_112522_cityA.csv,./stimuli/seattle.jpg,./stimuli/street_plate1.png,ASZTAL UTCA,stimuli/scenes/072a.jpg,scene,2,stimuli/objects/001a.jpg,stimuli/objects/001a.jpg,stimuli/scenes/079b.jpg,stimuli/scenes/079a.jpg,stimuli/objects/001b.jpg,target,dist2,dist1,lure,0,0,0,0,0,17,17,42,,,,,,,,,,,,,,,365.88208770001074,None,366.8834684000176,None,366.8834684000176,None,366.8834684000176,None,366.8834684000176,None,None,None,None,None,None,,,,,,,,,,,,,,,,,,,,,,,,,,,,,,,,,,,,,,,,,,,ST02_112522,2022-11-25_14h18.28.134,Hippopolis_Learning,2021.1.4,60.21132973258861,
Hippopolis,stimuli/subj_files/ST02_112522_cityA.csv,./stimuli/seattle.jpg,./stimuli/street_plate1.png,SZAPPAN UTCA,stimuli/objects/011a.jpg,object,0,stimuli/objects/011a.jpg,stimuli/objects/011b.jpg,stimuli/scenes/010a.jpg,stimuli/scenes/010b.jpg,stimuli/objects/011a.jpg,lure,dist1,dist2,target,0,0,0,0,0,18,18,76,,,,,,,,,,,,,,,369.8822141000128,None,370.8824554000166,None,370.8824554000166,None,370.8824554000166,None,370.8824554000166,None,None,None,None,None,None,,,,,,,,,,,,,,,,,,,,,,,,,,,,,,,,,,,,,,,,,,,ST02_112522,2022-11-25_14h18.28.134,Hippopolis_Learning,2021.1.4,60.21132973258861,
Hippopolis,stimuli/subj_files/ST02_112522_cityA.csv,./stimuli/seattle.jpg,./stimuli/street_plate1.png,TOLMÁCS UTCA,stimuli/objects/044a.jpg,object,2,stimuli/scenes/110a.jpg,stimuli/scenes/110a.jpg,stimuli/scenes/110b.jpg,stimuli/objects/028b.jpg,stimuli/objects/028a.jpg,target,lure,dist2,dist1,0,0,0,0,0,19,19,63,,,,,,,,,,,,,,,373.8824694000068,None,374.8847572999948,None,374.8847572999948,None,374.8847572999948,None,374.8847572999948,None,None,None,None,None,None,,,,,,,,,,,,,,,,,,,,,,,,,,,,,,,,,,,,,,,,,,,ST02_112522,2022-11-25_14h18.28.134,Hippopolis_Learning,2021.1.4,60.21132973258861,
Hippopolis,stimuli/subj_files/ST02_112522_cityA.csv,./stimuli/seattle.jpg,./stimuli/street_plate1.png,BÚJÓCSKA UTCA,stimuli/objects/035a.jpg,object,0,stimuli/objects/035a.jpg,stimuli/objects/034b.jpg,stimuli/objects/035a.jpg,stimuli/objects/034a.jpg,stimuli/objects/035b.jpg,dist2,target,dist1,lure,0,0,0,0,0,20,20,2,,,,,,,,,,,,,,,377.8985985000036,None,378.90830979999737,None,378.90830979999737,None,378.90830979999737,None,378.90830979999737,None,None,None,None,None,None,,,,,,,,,,,,,,,,,,,,,,,,,,,,,,,,,,,,,,,,,,,ST02_112522,2022-11-25_14h18.28.134,Hippopolis_Learning,2021.1.4,60.21132973258861,
Hippopolis,stimuli/subj_files/ST02_112522_cityA.csv,./stimuli/seattle.jpg,./stimuli/street_plate1.png,FÉSŰ UTCA,stimuli/scenes/092a.jpg,scene,1,stimuli/scenes/091a.jpg,stimuli/scenes/020b.jpg,stimuli/scenes/091b.jpg,stimuli/scenes/091a.jpg,stimuli/scenes/020a.jpg,dist2,lure,target,dist1,0,0,0,0,0,21,21,54,,,,,,,,,,,,,,,381.91528440002,None,382.91803490000893,None,382.91803490000893,None,382.91803490000893,None,382.91803490000893,None,None,None,None,None,None,,,,,,,,,,,,,,,,,,,,,,,,,,,,,,,,,,,,,,,,,,,ST02_112522,2022-11-25_14h18.28.134,Hippopolis_Learning,2021.1.4,60.21132973258861,
Hippopolis,stimuli/subj_files/ST02_112522_cityA.csv,./stimuli/seattle.jpg,./stimuli/street_plate1.png,BOHÓC UTCA,stimuli/objects/120a.jpg,object,2,stimuli/scenes/079a.jpg,stimuli/scenes/038b.jpg,stimuli/scenes/079a.jpg,stimuli/scenes/038a.jpg,stimuli/scenes/079b.jpg,dist2,target,dist1,lure,0,0,0,0,0,22,22,36,,,,,,,,,,,,,,,385.93180400002166,None,386.933097000001,None,386.933097000001,None,386.933097000001,None,386.933097000001,None,None,None,None,None,None,,,,,,,,,,,,,,,,,,,,,,,,,,,,,,,,,,,,,,,,,,,ST02_112522,2022-11-25_14h18.28.134,Hippopolis_Learning,2021.1.4,60.21132973258861,
Hippopolis,stimuli/subj_files/ST02_112522_cityA.csv,./stimuli/seattle.jpg,./stimuli/street_plate1.png,SZIKLA UTCA,stimuli/scenes/055a.jpg,scene,1,stimuli/scenes/029a.jpg,stimuli/objects/090a.jpg,stimuli/objects/090b.jpg,stimuli/scenes/029b.jpg,stimuli/scenes/029a.jpg,dist1,dist2,lure,target,0,0,0,0,0,23,23,4,,,,,,,,,,,,,,,389.9484059000097,None,390.9497376999934,None,390.9497376999934,None,390.9497376999934,None,390.9497376999934,None,None,None,None,None,None,,,,,,,,,,,,,,,,,,,,,,,,,,,,,,,,,,,,,,,,,,,ST02_112522,2022-11-25_14h18.28.134,Hippopolis_Learning,2021.1.4,60.21132973258861,
Hippopolis,stimuli/subj_files/ST02_112522_cityA.csv,./stimuli/seattle.jpg,./stimuli/street_plate1.png,SZAXOFON UTCA,stimuli/scenes/103a.jpg,scene,1,stimuli/scenes/018a.jpg,stimuli/scenes/071b.jpg,stimuli/scenes/018a.jpg,stimuli/scenes/071a.jpg,stimuli/scenes/018b.jpg,dist2,target,dist1,lure,0,0,0,0,0,24,24,55,,,,,,,,,,,,,,,393.9654090999975,None,394.9653353000176,None,394.9653353000176,None,394.9653353000176,None,394.9653353000176,None,None,None,None,None,None,,,,,,,,,,,,,,,,,,,,,,,,,,,,,,,,,,,,,,,,,,,ST02_112522,2022-11-25_14h18.28.134,Hippopolis_Learning,2021.1.4,60.21132973258861,
Hippopolis,stimuli/subj_files/ST02_112522_cityA.csv,./stimuli/seattle.jpg,./stimuli/street_plate1.png,AKÁC UTCA,stimuli/scenes/063a.jpg,scene,1,stimuli/scenes/071a.jpg,stimuli/scenes/071a.jpg,stimuli/scenes/071b.jpg,stimuli/scenes/091b.jpg,stimuli/scenes/091a.jpg,target,lure,dist2,dist1,0,0,0,0,0,25,25,50,,,,,,,,,,,,,,,397.96496780001326,None,398.965890499996,None,398.965890499996,None,398.965890499996,None,398.965890499996,None,None,None,None,None,None,,,,,,,,,,,,,,,,,,,,,,,,,,,,,,,,,,,,,,,,,,,ST02_112522,2022-11-25_14h18.28.134,Hippopolis_Learning,2021.1.4,60.21132973258861,
Hippopolis,stimuli/subj_files/ST02_112522_cityA.csv,./stimuli/seattle.jpg,./stimuli/street_plate1.png,ORVOS UTCA,stimuli/scenes/060a.jpg,scene,0,stimuli/scenes/060a.jpg,stimuli/scenes/060b.jpg,stimuli/scenes/060a.jpg,stimuli/scenes/060a.jpg,stimuli/scenes/060b.jpg,lure,dist1,target,dist2,0,0,0,0,0,26,26,20,,,,,,,,,,,,,,,401.96496370001114,None,402.96537479999824,None,402.96537479999824,None,402.96537479999824,None,402.96537479999824,None,None,None,None,None,None,,,,,,,,,,,,,,,,,,,,,,,,,,,,,,,,,,,,,,,,,,,ST02_112522,2022-11-25_14h18.28.134,Hippopolis_Learning,2021.1.4,60.21132973258861,
Hippopolis,stimuli/subj_files/ST02_112522_cityA.csv,./stimuli/seattle.jpg,./stimuli/street_plate1.png,PÁRNA UTCA,stimuli/objects/021a.jpg,object,2,stimuli/scenes/046a.jpg,stimuli/scenes/073b.jpg,stimuli/scenes/046a.jpg,stimuli/scenes/046b.jpg,stimuli/scenes/073a.jpg,dist2,target,lure,dist1,0,0,0,0,0,27,27,40,,,,,,,,,,,,,,,405.9648080000188,None,406.9692799000186,None,406.9692799000186,None,406.9692799000186,None,406.9692799000186,None,None,None,None,None,None,,,,,,,,,,,,,,,,,,,,,,,,,,,,,,,,,,,,,,,,,,,ST02_112522,2022-11-25_14h18.28.134,Hippopolis_Learning,2021.1.4,60.21132973258861,
Hippopolis,stimuli/subj_files/ST02_112522_cityA.csv,./stimuli/seattle.jpg,./stimuli/street_plate1.png,KRÉTA UTCA,stimuli/scenes/119a.jpg,scene,0,stimuli/scenes/119a.jpg,stimuli/objects/035b.jpg,stimuli/scenes/119b.jpg,stimuli/objects/035a.jpg,stimuli/scenes/119a.jpg,dist2,lure,dist1,target,0,0,0,0,0,28,28,79,,,,,,,,,,,,,,,409.98147580001387,None,410.98418680002214,None,410.98418680002214,None,410.98418680002214,None,410.98418680002214,None,None,None,None,None,None,,,,,,,,,,,,,,,,,,,,,,,,,,,,,,,,,,,,,,,,,,,ST02_112522,2022-11-25_14h18.28.134,Hippopolis_Learning,2021.1.4,60.21132973258861,
Hippopolis,stimuli/subj_files/ST02_112522_cityA.csv,./stimuli/seattle.jpg,./stimuli/street_plate1.png,EGÉR UTCA,stimuli/scenes/120a.jpg,scene,0,stimuli/scenes/120a.jpg,stimuli/scenes/056b.jpg,stimuli/scenes/120a.jpg,stimuli/scenes/056a.jpg,stimuli/scenes/120b.jpg,dist2,target,dist1,lure,0,0,0,0,0,29,29,35,,,,,,,,,,,,,,,413.99792819999857,None,414.9984357000212,None,414.9984357000212,None,414.9984357000212,None,414.9984357000212,None,None,None,None,None,None,,,,,,,,,,,,,,,,,,,,,,,,,,,,,,,,,,,,,,,,,,,ST02_112522,2022-11-25_14h18.28.134,Hippopolis_Learning,2021.1.4,60.21132973258861,
Hippopolis,stimuli/subj_files/ST02_112522_cityA.csv,./stimuli/seattle.jpg,./stimuli/street_plate1.png,PALACK UTCA,stimuli/objects/010a.jpg,object,2,stimuli/scenes/041a.jpg,stimuli/scenes/090a.jpg,stimuli/scenes/041b.jpg,stimuli/scenes/041a.jpg,stimuli/scenes/090b.jpg,dist1,lure,target,dist2,0,0,0,0,0,30,30,3,,,,,,,,,,,,,,,417.9977957000083,None,418.99865610001143,None,418.99865610001143,None,418.99865610001143,None,418.99865610001143,None,None,None,None,None,None,,,,,,,,,,,,,,,,,,,,,,,,,,,,,,,,,,,,,,,,,,,ST02_112522,2022-11-25_14h18.28.134,Hippopolis_Learning,2021.1.4,60.21132973258861,
Hippopolis,stimuli/subj_files/ST02_112522_cityA.csv,./stimuli/seattle.jpg,./stimuli/street_plate1.png,GYŰRŰ UTCA,stimuli/objects/012a.jpg,object,1,stimuli/objects/019a.jpg,stimuli/objects/019a.jpg,stimuli/objects/019b.jpg,stimuli/scenes/013b.jpg,stimuli/scenes/013a.jpg,target,lure,dist2,dist1,0,0,0,0,0,31,31,28,,,,,,,,,,,,,,,421.99823800000013,None,423.0011230999953,None,423.0011230999953,None,423.0011230999953,None,423.0011230999953,None,None,None,None,None,None,,,,,,,,,,,,,,,,,,,,,,,,,,,,,,,,,,,,,,,,,,,ST02_112522,2022-11-25_14h18.28.134,Hippopolis_Learning,2021.1.4,60.21132973258861,
Hippopolis,stimuli/subj_files/ST02_112522_cityA.csv,./stimuli/seattle.jpg,./stimuli/street_plate1.png,MÁRVÁNY UTCA,stimuli/scenes/035a.jpg,scene,1,stimuli/scenes/042a.jpg,stimuli/scenes/112a.jpg,stimuli/scenes/042b.jpg,stimuli/scenes/112b.jpg,stimuli/scenes/042a.jpg,dist1,lure,dist2,target,0,0,0,0,0,32,32,61,,,,,,,,,,,,,,,426.0144796000095,None,427.01540259999456,None,427.01540259999456,None,427.01540259999456,None,427.01540259999456,None,None,None,None,None,None,,,,,,,,,,,,,,,,,,,,,,,,,,,,,,,,,,,,,,,,,,,ST02_112522,2022-11-25_14h18.28.134,Hippopolis_Learning,2021.1.4,60.21132973258861,
Hippopolis,stimuli/subj_files/ST02_112522_cityA.csv,./stimuli/seattle.jpg,./stimuli/street_plate1.png,TOJÁS UTCA,stimuli/scenes/001a.jpg,scene,2,stimuli/objects/072a.jpg,stimuli/scenes/108b.jpg,stimuli/scenes/108a.jpg,stimuli/objects/072a.jpg,stimuli/objects/072b.jpg,dist2,dist1,target,lure,0,0,0,0,0,33,33,65,,,,,,,,,,,,,,,430.01434829999926,None,431.0150125999935,None,431.0150125999935,None,431.0150125999935,None,431.0150125999935,None,None,None,None,None,None,,,,,,,,,,,,,,,,,,,,,,,,,,,,,,,,,,,,,,,,,,,ST02_112522,2022-11-25_14h18.28.134,Hippopolis_Learning,2021.1.4,60.21132973258861,
Hippopolis,stimuli/subj_files/ST02_112522_cityA.csv,./stimuli/seattle.jpg,./stimuli/street_plate1.png,KÁRTYA UTCA,stimuli/objects/018a.jpg,object,1,stimuli/objects/003a.jpg,stimuli/objects/003b.jpg,stimuli/objects/016b.jpg,stimuli/objects/003a.jpg,stimuli/objects/016a.jpg,lure,dist2,target,dist1,0,0,0,0,0,34,34,68,,,,,,,,,,,,,,,434.01426220001304,None,435.015283500019,None,435.015283500019,None,435.015283500019,None,435.015283500019,None,None,None,None,None,None,,,,,,,,,,,,,,,,,,,,,,,,,,,,,,,,,,,,,,,,,,,ST02_112522,2022-11-25_14h18.28.134,Hippopolis_Learning,2021.1.4,60.21132973258861,
Hippopolis,stimuli/subj_files/ST02_112522_cityA.csv,./stimuli/seattle.jpg,./stimuli/street_plate1.png,LÁNDZSA UTCA,stimuli/objects/065a.jpg,object,1,stimuli/objects/038a.jpg,stimuli/objects/003a.jpg,stimuli/objects/038a.jpg,stimuli/objects/003b.jpg,stimuli/objects/038b.jpg,dist1,target,dist2,lure,0,0,0,0,0,35,35,18,,,,,,,,,,,,,,,438.0143020999967,None,439.0147224999964,None,439.0147224999964,None,439.0147224999964,None,439.0147224999964,None,None,None,None,None,None,,,,,,,,,,,,,,,,,,,,,,,,,,,,,,,,,,,,,,,,,,,ST02_112522,2022-11-25_14h18.28.134,Hippopolis_Learning,2021.1.4,60.21132973258861,
Hippopolis,stimuli/subj_files/ST02_112522_cityA.csv,./stimuli/seattle.jpg,./stimuli/street_plate1.png,SZŐNYEG UTCA,stimuli/scenes/036a.jpg,scene,0,stimuli/scenes/036a.jpg,stimuli/scenes/007a.jpg,stimuli/scenes/036a.jpg,stimuli/scenes/036b.jpg,stimuli/scenes/007b.jpg,dist1,target,lure,dist2,0,0,0,0,0,36,36,26,,,,,,,,,,,,,,,442.0140611999959,None,443.017791100021,None,443.017791100021,None,443.017791100021,None,443.017791100021,None,None,None,None,None,None,,,,,,,,,,,,,,,,,,,,,,,,,,,,,,,,,,,,,,,,,,,ST02_112522,2022-11-25_14h18.28.134,Hippopolis_Learning,2021.1.4,60.21132973258861,
Hippopolis,stimuli/subj_files/ST02_112522_cityA.csv,./stimuli/seattle.jpg,./stimuli/street_plate1.png,FÉNYKÉP UTCA,stimuli/objects/036a.jpg,object,0,stimuli/objects/036a.jpg,stimuli/scenes/036a.jpg,stimuli/scenes/036b.jpg,stimuli/objects/036b.jpg,stimuli/objects/036a.jpg,dist1,dist2,lure,target,0,0,0,0,0,37,37,24,,,,,,,,,,,,,,,446.03088659999776,None,447.0316269000177,None,447.0316269000177,None,447.0316269000177,None,447.0316269000177,None,None,None,None,None,None,,,,,,,,,,,,,,,,,,,,,,,,,,,,,,,,,,,,,,,,,,,ST02_112522,2022-11-25_14h18.28.134,Hippopolis_Learning,2021.1.4,60.21132973258861,
Hippopolis,stimuli/subj_files/ST02_112522_cityA.csv,./stimuli/seattle.jpg,./stimuli/street_plate1.png,KIRAKÓ UTCA,stimuli/objects/024a.jpg,object,2,stimuli/scenes/047a.jpg,stimuli/objects/068a.jpg,stimuli/scenes/047b.jpg,stimuli/objects/068b.jpg,stimuli/scenes/047a.jpg,dist1,lure,dist2,target,0,0,0,0,0,38,38,19,,,,,,,,,,,,,,,450.030488599994,None,451.03111640000134,None,451.03111640000134,None,451.03111640000134,None,451.03111640000134,None,None,None,None,None,None,,,,,,,,,,,,,,,,,,,,,,,,,,,,,,,,,,,,,,,,,,,ST02_112522,2022-11-25_14h18.28.134,Hippopolis_Learning,2021.1.4,60.21132973258861,
Hippopolis,stimuli/subj_files/ST02_112522_cityA.csv,./stimuli/seattle.jpg,./stimuli/street_plate1.png,KAKAÓ UTCA,stimuli/objects/054a.jpg,object,0,stimuli/objects/054a.jpg,stimuli/objects/054a.jpg,stimuli/objects/054b.jpg,stimuli/objects/036a.jpg,stimuli/objects/036b.jpg,target,lure,dist1,dist2,0,0,0,0,0,39,39,74,,,,,,,,,,,,,,,454.03098179999506,None,455.032520400011,None,455.032520400011,None,455.032520400011,None,455.032520400011,None,None,None,None,None,None,,,,,,,,,,,,,,,,,,,,,,,,,,,,,,,,,,,,,,,,,,,ST02_112522,2022-11-25_14h18.28.134,Hippopolis_Learning,2021.1.4,60.21132973258861,
Hippopolis,stimuli/subj_files/ST02_112522_cityA.csv,./stimuli/seattle.jpg,./stimuli/street_plate1.png,KOSÁR UTCA,stimuli/objects/081a.jpg,object,0,stimuli/objects/081a.jpg,stimuli/objects/081a.jpg,stimuli/scenes/083a.jpg,stimuli/scenes/083b.jpg,stimuli/objects/081b.jpg,target,dist1,dist2,lure,0,0,0,0,0,40,40,77,,,,,,,,,,,,,,,458.04701800001203,None,459.0486480999971,None,459.0486480999971,None,459.0486480999971,None,459.0486480999971,None,None,None,None,None,None,,,,,,,,,,,,,,,,,,,,,,,,,,,,,,,,,,,,,,,,,,,ST02_112522,2022-11-25_14h18.28.134,Hippopolis_Learning,2021.1.4,60.21132973258861,
Hippopolis,stimuli/subj_files/ST02_112522_cityA.csv,./stimuli/seattle.jpg,./stimuli/street_plate1.png,KÓKUSZ UTCA,stimuli/scenes/070a.jpg,scene,2,stimuli/objects/091a.jpg,stimuli/objects/117b.jpg,stimuli/objects/117a.jpg,stimuli/objects/091a.jpg,stimuli/objects/091b.jpg,dist2,dist1,target,lure,0,0,0,0,0,41,41,39,,,,,,,,,,,,,,,462.0635461000202,None,463.0644944999949,None,463.0644944999949,None,463.0644944999949,None,463.0644944999949,None,None,None,None,None,None,,,,,,,,,,,,,,,,,,,,,,,,,,,,,,,,,,,,,,,,,,,ST02_112522,2022-11-25_14h18.28.134,Hippopolis_Learning,2021.1.4,60.21132973258861,
Hippopolis,stimuli/subj_files/ST02_112522_cityA.csv,./stimuli/seattle.jpg,./stimuli/street_plate1.png,TOBOZ UTCA,stimuli/objects/034a.jpg,object,0,stimuli/objects/034a.jpg,stimuli/objects/034b.jpg,stimuli/objects/034a.jpg,stimuli/scenes/119a.jpg,stimuli/scenes/119b.jpg,lure,target,dist1,dist2,0,0,0,0,0,42,42,46,,,,,,,,,,,,,,,466.06416790001094,None,467.06492000000435,None,467.06492000000435,None,467.06492000000435,None,467.06492000000435,None,None,None,None,None,None,,,,,,,,,,,,,,,,,,,,,,,,,,,,,,,,,,,,,,,,,,,ST02_112522,2022-11-25_14h18.28.134,Hippopolis_Learning,2021.1.4,60.21132973258861,
Hippopolis,stimuli/subj_files/ST02_112522_cityA.csv,./stimuli/seattle.jpg,./stimuli/street_plate1.png,KARTON UTCA,stimuli/objects/020a.jpg,object,0,stimuli/objects/020a.jpg,stimuli/objects/020b.jpg,stimuli/objects/081b.jpg,stimuli/objects/020a.jpg,stimuli/objects/081a.jpg,lure,dist2,target,dist1,0,0,0,0,0,43,43,57,,,,,,,,,,,,,,,470.063624500006,None,471.0666860000056,None,471.0666860000056,None,471.0666860000056,None,471.0666860000056,None,None,None,None,None,None,,,,,,,,,,,,,,,,,,,,,,,,,,,,,,,,,,,,,,,,,,,ST02_112522,2022-11-25_14h18.28.134,Hippopolis_Learning,2021.1.4,60.21132973258861,
Hippopolis,stimuli/subj_files/ST02_112522_cityA.csv,./stimuli/seattle.jpg,./stimuli/street_plate1.png,RÁDIÓ UTCA,stimuli/scenes/007a.jpg,scene,0,stimuli/scenes/007a.jpg,stimuli/scenes/114b.jpg,stimuli/scenes/114a.jpg,stimuli/scenes/007a.jpg,stimuli/scenes/007b.jpg,dist2,dist1,target,lure,0,0,0,0,0,44,44,41,,,,,,,,,,,,,,,474.0801499999943,None,475.0810281000158,None,475.0810281000158,None,475.0810281000158,None,475.0810281000158,None,478.080564200005,None,space,478.080564200005,None,19.927587399986805,,,,,,,,,,,,,,,,,,,,,,,,,,,,,,,,,,,,,,,,,,ST02_112522,2022-11-25_14h18.28.134,Hippopolis_Learning,2021.1.4,60.21132973258861,
Hippopolis,stimuli/subj_files/ST02_112522_cityA.csv,./stimuli/seattle.jpg,./stimuli/street_plate1.png,HAJÓ UTCA,stimuli/scenes/032a.jpg,scene,2,stimuli/objects/056a.jpg,stimuli/scenes/088b.jpg,stimuli/scenes/088a.jpg,stimuli/objects/056a.jpg,stimuli/objects/056b.jpg,dist2,dist1,target,lure,0,0,0,0,0,45,45,34,,,,,,,,,,,,,,,498.0297598000034,None,499.03347799999756,None,499.03347799999756,None,499.03347799999756,None,499.03347799999756,None,None,None,None,None,None,,,,,,,,,,,,,,,,,,,,,,,,,,,,,,,,,,,,,,,,,,,ST02_112522,2022-11-25_14h18.28.134,Hippopolis_Learning,2021.1.4,60.21132973258861,
Hippopolis,stimuli/subj_files/ST02_112522_cityA.csv,./stimuli/seattle.jpg,./stimuli/street_plate1.png,BANÁN UTCA,stimuli/objects/015a.jpg,object,2,stimuli/scenes/073a.jpg,stimuli/scenes/073a.jpg,stimuli/objects/009a.jpg,stimuli/objects/009b.jpg,stimuli/scenes/073b.jpg,target,dist1,dist2,lure,0,0,0,0,0,46,46,43,,,,,,,,,,,,,,,502.04690200000186,None,503.0497641999973,None,503.0497641999973,None,503.0497641999973,None,503.0497641999973,None,None,None,None,None,None,,,,,,,,,,,,,,,,,,,,,,,,,,,,,,,,,,,,,,,,,,,ST02_112522,2022-11-25_14h18.28.134,Hippopolis_Learning,2021.1.4,60.21132973258861,
Hippopolis,stimuli/subj_files/ST02_112522_cityA.csv,./stimuli/seattle.jpg,./stimuli/street_plate1.png,HEGESZTŐ UTCA,stimuli/objects/053a.jpg,object,2,stimuli/scenes/051a.jpg,stimuli/scenes/051a.jpg,stimuli/scenes/046b.jpg,stimuli/scenes/046a.jpg,stimuli/scenes/051b.jpg,target,dist2,dist1,lure,0,0,0,0,0,47,47,10,,,,,,,,,,,,,,,506.063498500007,None,507.06639970000833,None,507.06639970000833,None,507.06639970000833,None,507.06639970000833,None,None,None,None,None,None,,,,,,,,,,,,,,,,,,,,,,,,,,,,,,,,,,,,,,,,,,,ST02_112522,2022-11-25_14h18.28.134,Hippopolis_Learning,2021.1.4,60.21132973258861,
Hippopolis,stimuli/subj_files/ST02_112522_cityA.csv,./stimuli/seattle.jpg,./stimuli/street_plate1.png,TELEFON UTCA,stimuli/objects/113a.jpg,object,2,stimuli/scenes/088a.jpg,stimuli/scenes/088b.jpg,stimuli/scenes/094b.jpg,stimuli/scenes/094a.jpg,stimuli/scenes/088a.jpg,lure,dist2,dist1,target,0,0,0,0,0,48,48,7,,,,,,,,,,,,,,,510.0802096000116,None,511.0806835000112,None,511.0806835000112,None,511.0806835000112,None,511.0806835000112,None,None,None,None,None,None,,,,,,,,,,,,,,,,,,,,,,,,,,,,,,,,,,,,,,,,,,,ST02_112522,2022-11-25_14h18.28.134,Hippopolis_Learning,2021.1.4,60.21132973258861,
Hippopolis,stimuli/subj_files/ST02_112522_cityA.csv,./stimuli/seattle.jpg,./stimuli/street_plate1.png,OLDAL UTCA,stimuli/objects/079a.jpg,object,0,stimuli/objects/079a.jpg,stimuli/objects/079a.jpg,stimuli/scenes/120a.jpg,stimuli/objects/079b.jpg,stimuli/scenes/120b.jpg,target,dist1,lure,dist2,0,0,0,0,0,49,49,70,,,,,,,,,,,,,,,514.079528000002,None,515.0806739999971,None,515.0806739999971,None,515.0806739999971,None,515.0806739999971,None,None,None,None,None,None,,,,,,,,,,,,,,,,,,,,,,,,,,,,,,,,,,,,,,,,,,,ST02_112522,2022-11-25_14h18.28.134,Hippopolis_Learning,2021.1.4,60.21132973258861,
Hippopolis,stimuli/subj_files/ST02_112522_cityA.csv,./stimuli/seattle.jpg,./stimuli/street_plate1.png,ZONGORA UTCA,stimuli/scenes/056a.jpg,scene,0,stimuli/scenes/056a.jpg,stimuli/objects/011a.jpg,stimuli/scenes/056b.jpg,stimuli/objects/011b.jpg,stimuli/scenes/056a.jpg,dist1,lure,dist2,target,0,0,0,0,0,50,50,37,,,,,,,,,,,,,,,518.0965765000146,None,519.096681199997,None,519.096681199997,None,519.096681199997,None,519.096681199997,None,None,None,None,None,None,,,,,,,,,,,,,,,,,,,,,,,,,,,,,,,,,,,,,,,,,,,ST02_112522,2022-11-25_14h18.28.134,Hippopolis_Learning,2021.1.4,60.21132973258861,
Hippopolis,stimuli/subj_files/ST02_112522_cityA.csv,./stimuli/seattle.jpg,./stimuli/street_plate1.png,SAJTÓ UTCA,stimuli/objects/102a.jpg,object,1,stimuli/objects/051a.jpg,stimuli/objects/108b.jpg,stimuli/objects/051a.jpg,stimuli/objects/051b.jpg,stimuli/objects/108a.jpg,dist2,target,lure,dist1,0,0,0,0,0,51,51,13,,,,,,,,,,,,,,,522.0960901000071,None,523.0968201000069,None,523.0968201000069,None,523.0968201000069,None,523.0968201000069,None,None,None,None,None,None,,,,,,,,,,,,,,,,,,,,,,,,,,,,,,,,,,,,,,,,,,,ST02_112522,2022-11-25_14h18.28.134,Hippopolis_Learning,2021.1.4,60.21132973258861,
Hippopolis,stimuli/subj_files/ST02_112522_cityA.csv,./stimuli/seattle.jpg,./stimuli/street_plate1.png,KÍGYÓ UTCA,stimuli/scenes/117a.jpg,scene,0,stimuli/scenes/117a.jpg,stimuli/objects/020b.jpg,stimuli/scenes/117b.jpg,stimuli/objects/020a.jpg,stimuli/scenes/117a.jpg,dist2,lure,dist1,target,0,0,0,0,0,52,52,5,,,,,,,,,,,,,,,526.095917300001,None,527.0989800000098,None,527.0989800000098,None,527.0989800000098,None,527.0989800000098,None,None,None,None,None,None,,,,,,,,,,,,,,,,,,,,,,,,,,,,,,,,,,,,,,,,,,,ST02_112522,2022-11-25_14h18.28.134,Hippopolis_Learning,2021.1.4,60.21132973258861,
Hippopolis,stimuli/subj_files/ST02_112522_cityA.csv,./stimuli/seattle.jpg,./stimuli/street_plate1.png,MARTINI UTCA,stimuli/scenes/078a.jpg,scene,1,stimuli/scenes/080a.jpg,stimuli/scenes/080a.jpg,stimuli/scenes/080b.jpg,stimuli/scenes/106b.jpg,stimuli/scenes/106a.jpg,target,lure,dist2,dist1,0,0,0,0,0,53,53,45,,,,,,,,,,,,,,,530.1125079000194,None,531.1138991000189,None,531.1138991000189,None,531.1138991000189,None,531.1138991000189,None,None,None,None,None,None,,,,,,,,,,,,,,,,,,,,,,,,,,,,,,,,,,,,,,,,,,,ST02_112522,2022-11-25_14h18.28.134,Hippopolis_Learning,2021.1.4,60.21132973258861,
Hippopolis,stimuli/subj_files/ST02_112522_cityA.csv,./stimuli/seattle.jpg,./stimuli/street_plate1.png,TÜKÖR UTCA,stimuli/objects/025a.jpg,object,1,stimuli/objects/108a.jpg,stimuli/objects/108a.jpg,stimuli/objects/108b.jpg,stimuli/scenes/011b.jpg,stimuli/scenes/011a.jpg,target,lure,dist2,dist1,0,0,0,0,0,54,54,21,,,,,,,,,,,,,,,534.112557800021,None,535.1151231999975,None,535.1151231999975,None,535.1151231999975,None,535.1151231999975,None,None,None,None,None,None,,,,,,,,,,,,,,,,,,,,,,,,,,,,,,,,,,,,,,,,,,,ST02_112522,2022-11-25_14h18.28.134,Hippopolis_Learning,2021.1.4,60.21132973258861,
Hippopolis,stimuli/subj_files/ST02_112522_cityA.csv,./stimuli/seattle.jpg,./stimuli/street_plate1.png,KOCKA UTCA,stimuli/scenes/002a.jpg,scene,2,stimuli/objects/111a.jpg,stimuli/objects/111a.jpg,stimuli/objects/072a.jpg,stimuli/objects/072b.jpg,stimuli/objects/111b.jpg,target,dist1,dist2,lure,0,0,0,0,0,55,55,16,,,,,,,,,,,,,,,538.1291601000121,None,539.1304900000105,None,539.1304900000105,None,539.1304900000105,None,539.1304900000105,None,None,None,None,None,None,,,,,,,,,,,,,,,,,,,,,,,,,,,,,,,,,,,,,,,,,,,ST02_112522,2022-11-25_14h18.28.134,Hippopolis_Learning,2021.1.4,60.21132973258861,
Hippopolis,stimuli/subj_files/ST02_112522_cityA.csv,./stimuli/seattle.jpg,./stimuli/street_plate1.png,PIZSAMA UTCA,stimuli/scenes/008a.jpg,scene,2,stimuli/objects/006a.jpg,stimuli/objects/006b.jpg,stimuli/objects/091a.jpg,stimuli/objects/006a.jpg,stimuli/objects/091b.jpg,lure,dist1,target,dist2,0,0,0,0,0,56,56,11,,,,,,,,,,,,,,,542.1289644000062,None,543.1295705999946,None,543.1295705999946,None,543.1295705999946,None,543.1295705999946,None,None,None,None,None,None,,,,,,,,,,,,,,,,,,,,,,,,,,,,,,,,,,,,,,,,,,,ST02_112522,2022-11-25_14h18.28.134,Hippopolis_Learning,2021.1.4,60.21132973258861,
Hippopolis,stimuli/subj_files/ST02_112522_cityA.csv,./stimuli/seattle.jpg,./stimuli/street_plate1.png,ÁLOM UTCA,stimuli/scenes/083a.jpg,scene,0,stimuli/scenes/083a.jpg,stimuli/objects/031b.jpg,stimuli/scenes/083b.jpg,stimuli/objects/031a.jpg,stimuli/scenes/083a.jpg,dist2,lure,dist1,target,0,0,0,0,0,57,57,30,,,,,,,,,,,,,,,546.1289891000197,None,547.130264700012,None,547.130264700012,None,547.130264700012,None,547.130264700012,None,None,None,None,None,None,,,,,,,,,,,,,,,,,,,,,,,,,,,,,,,,,,,,,,,,,,,ST02_112522,2022-11-25_14h18.28.134,Hippopolis_Learning,2021.1.4,60.21132973258861,
Hippopolis,stimuli/subj_files/ST02_112522_cityA.csv,./stimuli/seattle.jpg,./stimuli/street_plate1.png,MENTA UTCA,stimuli/objects/109a.jpg,object,2,stimuli/scenes/038a.jpg,stimuli/scenes/038a.jpg,stimuli/scenes/038b.jpg,stimuli/objects/061b.jpg,stimuli/objects/061a.jpg,target,lure,dist2,dist1,0,0,0,0,0,58,58,66,,,,,,,,,,,,,,,550.1459016000153,None,551.1477530999982,None,551.1477530999982,None,551.1477530999982,None,551.1477530999982,None,None,None,None,None,None,,,,,,,,,,,,,,,,,,,,,,,,,,,,,,,,,,,,,,,,,,,ST02_112522,2022-11-25_14h18.28.134,Hippopolis_Learning,2021.1.4,60.21132973258861,
Hippopolis,stimuli/subj_files/ST02_112522_cityA.csv,./stimuli/seattle.jpg,./stimuli/street_plate1.png,TRIATLON UTCA,stimuli/scenes/006a.jpg,scene,2,stimuli/objects/103a.jpg,stimuli/objects/103b.jpg,stimuli/scenes/041a.jpg,stimuli/objects/103a.jpg,stimuli/scenes/041b.jpg,lure,dist1,target,dist2,0,0,0,0,0,59,59,31,,,,,,,,,,,,,,,554.1625952000031,None,555.1626845000137,None,555.1626845000137,None,555.1626845000137,None,555.1626845000137,None,None,None,None,None,None,,,,,,,,,,,,,,,,,,,,,,,,,,,,,,,,,,,,,,,,,,,ST02_112522,2022-11-25_14h18.28.134,Hippopolis_Learning,2021.1.4,60.21132973258861,
Hippopolis,stimuli/subj_files/ST02_112522_cityA.csv,./stimuli/seattle.jpg,./stimuli/street_plate1.png,KULLANCS UTCA,stimuli/scenes/057a.jpg,scene,1,stimuli/scenes/066a.jpg,stimuli/scenes/080a.jpg,stimuli/scenes/066b.jpg,stimuli/scenes/080b.jpg,stimuli/scenes/066a.jpg,dist1,lure,dist2,target,0,0,0,0,0,60,60,71,,,,,,,,,,,,,,,558.1623948000197,None,559.163263800001,None,559.163263800001,None,559.163263800001,None,559.163263800001,None,None,None,None,None,None,,,,,,,,,,,,,,,,,,,,,,,,,,,,,,,,,,,,,,,,,,,ST02_112522,2022-11-25_14h18.28.134,Hippopolis_Learning,2021.1.4,60.21132973258861,
Hippopolis,stimuli/subj_files/ST02_112522_cityA.csv,./stimuli/seattle.jpg,./stimuli/street_plate1.png,KERÉK UTCA,stimuli/objects/039a.jpg,object,1,stimuli/objects/097a.jpg,stimuli/objects/019a.jpg,stimuli/objects/097b.jpg,stimuli/objects/019b.jpg,stimuli/objects/097a.jpg,dist1,lure,dist2,target,0,0,0,0,0,61,61,15,,,,,,,,,,,,,,,562.162080900016,None,563.1624070999969,None,563.1624070999969,None,563.1624070999969,None,563.1624070999969,None,None,None,None,None,None,,,,,,,,,,,,,,,,,,,,,,,,,,,,,,,,,,,,,,,,,,,ST02_112522,2022-11-25_14h18.28.134,Hippopolis_Learning,2021.1.4,60.21132973258861,
Hippopolis,stimuli/subj_files/ST02_112522_cityA.csv,./stimuli/seattle.jpg,./stimuli/street_plate1.png,SZILVA UTCA,stimuli/objects/045a.jpg,object,1,stimuli/objects/092a.jpg,stimuli/objects/092b.jpg,stimuli/objects/097b.jpg,stimuli/objects/092a.jpg,stimuli/objects/097a.jpg,lure,dist2,target,dist1,0,0,0,0,0,62,62,0,,,,,,,,,,,,,,,566.1623100000143,None,567.1651767000149,None,567.1651767000149,None,567.1651767000149,None,567.1651767000149,None,None,None,None,None,None,,,,,,,,,,,,,,,,,,,,,,,,,,,,,,,,,,,,,,,,,,,ST02_112522,2022-11-25_14h18.28.134,Hippopolis_Learning,2021.1.4,60.21132973258861,
Hippopolis,stimuli/subj_files/ST02_112522_cityA.csv,./stimuli/seattle.jpg,./stimuli/street_plate1.png,REPÜLŐ UTCA,stimuli/objects/048a.jpg,object,1,stimuli/objects/095a.jpg,stimuli/objects/095a.jpg,stimuli/scenes/042b.jpg,stimuli/scenes/042a.jpg,stimuli/objects/095b.jpg,target,dist2,dist1,lure,0,0,0,0,0,63,63,60,,,,,,,,,,,,,,,570.1788900000101,None,571.1815576000081,None,571.1815576000081,None,571.1815576000081,None,571.1815576000081,None,None,None,None,None,None,,,,,,,,,,,,,,,,,,,,,,,,,,,,,,,,,,,,,,,,,,,ST02_112522,2022-11-25_14h18.28.134,Hippopolis_Learning,2021.1.4,60.21132973258861,
Hippopolis,stimuli/subj_files/ST02_112522_cityA.csv,./stimuli/seattle.jpg,./stimuli/street_plate1.png,FEJSZE UTCA,stimuli/scenes/114a.jpg,scene,0,stimuli/scenes/114a.jpg,stimuli/scenes/114b.jpg,stimuli/objects/114a.jpg,stimuli/objects/114b.jpg,stimuli/scenes/114a.jpg,lure,dist1,dist2,target,0,0,0,0,0,64,64,72,,,,,,,,,,,,,,,574.1951797000074,None,575.1958090999979,None,575.1958090999979,None,575.1958090999979,None,575.1958090999979,None,None,None,None,None,None,,,,,,,,,,,,,,,,,,,,,,,,,,,,,,,,,,,,,,,,,,,ST02_112522,2022-11-25_14h18.28.134,Hippopolis_Learning,2021.1.4,60.21132973258861,
Hippopolis,stimuli/subj_files/ST02_112522_cityA.csv,./stimuli/seattle.jpg,./stimuli/street_plate1.png,PÉKSÉG UTCA,stimuli/scenes/014a.jpg,scene,1,stimuli/scenes/020a.jpg,stimuli/scenes/104a.jpg,stimuli/scenes/104b.jpg,stimuli/scenes/020a.jpg,stimuli/scenes/020b.jpg,dist1,dist2,target,lure,0,0,0,0,0,65,65,52,,,,,,,,,,,,,,,578.1949832999962,None,579.1958149000129,None,579.1958149000129,None,579.1958149000129,None,579.1958149000129,None,None,None,None,None,None,,,,,,,,,,,,,,,,,,,,,,,,,,,,,,,,,,,,,,,,,,,ST02_112522,2022-11-25_14h18.28.134,Hippopolis_Learning,2021.1.4,60.21132973258861,
Hippopolis,stimuli/subj_files/ST02_112522_cityA.csv,./stimuli/seattle.jpg,./stimuli/street_plate1.png,KORONA UTCA,stimuli/scenes/116a.jpg,scene,1,stimuli/scenes/104a.jpg,stimuli/scenes/104b.jpg,stimuli/scenes/018a.jpg,stimuli/scenes/104a.jpg,stimuli/scenes/018b.jpg,lure,dist1,target,dist2,0,0,0,0,0,66,66,56,,,,,,,,,,,,,,,582.1950200000138,None,583.1973885000043,None,583.1973885000043,None,583.1973885000043,None,583.1973885000043,None,None,None,None,None,None,,,,,,,,,,,,,,,,,,,,,,,,,,,,,,,,,,,,,,,,,,,ST02_112522,2022-11-25_14h18.28.134,Hippopolis_Learning,2021.1.4,60.21132973258861,
Hippopolis,stimuli/subj_files/ST02_112522_cityA.csv,./stimuli/seattle.jpg,./stimuli/street_plate1.png,HARMONIKA UTCA,stimuli/objects/023a.jpg,object,1,stimuli/objects/090a.jpg,stimuli/objects/090a.jpg,stimuli/objects/092b.jpg,stimuli/objects/092a.jpg,stimuli/objects/090b.jpg,target,dist2,dist1,lure,0,0,0,0,0,67,67,25,,,,,,,,,,,,,,,586.2115318000142,None,587.2122514999937,None,587.2122514999937,None,587.2122514999937,None,587.2122514999937,None,None,None,None,None,None,,,,,,,,,,,,,,,,,,,,,,,,,,,,,,,,,,,,,,,,,,,ST02_112522,2022-11-25_14h18.28.134,Hippopolis_Learning,2021.1.4,60.21132973258861,
Hippopolis,stimuli/subj_files/ST02_112522_cityA.csv,./stimuli/seattle.jpg,./stimuli/street_plate1.png,LABDA UTCA,stimuli/objects/063a.jpg,object,1,stimuli/objects/016a.jpg,stimuli/objects/095b.jpg,stimuli/objects/016b.jpg,stimuli/objects/095a.jpg,stimuli/objects/016a.jpg,dist2,lure,dist1,target,0,0,0,0,0,68,68,47,,,,,,,,,,,,,,,590.211460200022,None,591.2121102999954,None,591.2121102999954,None,591.2121102999954,None,591.2121102999954,None,None,None,None,None,None,,,,,,,,,,,,,,,,,,,,,,,,,,,,,,,,,,,,,,,,,,,ST02_112522,2022-11-25_14h18.28.134,Hippopolis_Learning,2021.1.4,60.21132973258861,
Hippopolis,stimuli/subj_files/ST02_112522_cityA.csv,./stimuli/seattle.jpg,./stimuli/street_plate1.png,KESZTYŰ UTCA,stimuli/scenes/089a.jpg,scene,1,stimuli/scenes/106a.jpg,stimuli/scenes/106a.jpg,stimuli/scenes/029a.jpg,stimuli/scenes/106b.jpg,stimuli/scenes/029b.jpg,target,dist1,lure,dist2,0,0,0,0,0,69,69,1,,,,,,,,,,,,,,,594.2115242000145,None,595.2122301000054,None,595.2122301000054,None,595.2122301000054,None,595.2122301000054,None,None,None,None,None,None,,,,,,,,,,,,,,,,,,,,,,,,,,,,,,,,,,,,,,,,,,,ST02_112522,2022-11-25_14h18.28.134,Hippopolis_Learning,2021.1.4,60.21132973258861,
Hippopolis,stimuli/subj_files/ST02_112522_cityA.csv,./stimuli/seattle.jpg,./stimuli/street_plate1.png,TISZTÁS UTCA,stimuli/scenes/031a.jpg,scene,2,stimuli/objects/068a.jpg,stimuli/objects/068b.jpg,stimuli/scenes/047b.jpg,stimuli/objects/068a.jpg,stimuli/scenes/047a.jpg,lure,dist2,target,dist1,0,0,0,0,0,70,70,51,,,,,,,,,,,,,,,598.211549700005,None,599.2123584999936,None,599.2123584999936,None,599.2123584999936,None,599.2123584999936,None,None,None,None,None,None,,,,,,,,,,,,,,,,,,,,,,,,,,,,,,,,,,,,,,,,,,,ST02_112522,2022-11-25_14h18.28.134,Hippopolis_Learning,2021.1.4,60.21132973258861,
Hippopolis,stimuli/subj_files/ST02_112522_cityA.csv,./stimuli/seattle.jpg,./stimuli/street_plate1.png,FOLYÓ UTCA,stimuli/objects/104a.jpg,object,2,stimuli/scenes/033a.jpg,stimuli/scenes/033b.jpg,stimuli/objects/111a.jpg,stimuli/scenes/033a.jpg,stimuli/objects/111b.jpg,lure,dist1,target,dist2,0,0,0,0,0,71,71,27,,,,,,,,,,,,,,,602.2114200000069,None,603.2118515000038,None,603.2118515000038,None,603.2118515000038,None,603.2118515000038,None,None,None,None,None,None,,,,,,,,,,,,,,,,,,,,,,,,,,,,,,,,,,,,,,,,,,,ST02_112522,2022-11-25_14h18.28.134,Hippopolis_Learning,2021.1.4,60.21132973258861,
Hippopolis,stimuli/subj_files/ST02_112522_cityA.csv,./stimuli/seattle.jpg,./stimuli/street_plate1.png,VASALÓ UTCA,stimuli/objects/057a.jpg,object,0,stimuli/objects/057a.jpg,stimuli/scenes/016b.jpg,stimuli/objects/057b.jpg,stimuli/scenes/016a.jpg,stimuli/objects/057a.jpg,dist2,lure,dist1,target,0,0,0,0,0,72,72,64,,,,,,,,,,,,,,,606.2112993000192,None,607.2122772000148,None,607.2122772000148,None,607.2122772000148,None,607.2122772000148,None,None,None,None,None,None,,,,,,,,,,,,,,,,,,,,,,,,,,,,,,,,,,,,,,,,,,,ST02_112522,2022-11-25_14h18.28.134,Hippopolis_Learning,2021.1.4,60.21132973258861,
Hippopolis,stimuli/subj_files/ST02_112522_cityA.csv,./stimuli/seattle.jpg,./stimuli/street_plate1.png,PAPAGÁJ UTCA,stimuli/objects/114a.jpg,object,0,stimuli/objects/114a.jpg,stimuli/objects/114a.jpg,stimuli/objects/052b.jpg,stimuli/objects/052a.jpg,stimuli/objects/114b.jpg,target,dist2,dist1,lure,0,0,0,0,0,73,73,48,,,,,,,,,,,,,,,610.2111403000017,None,611.213502700004,None,611.213502700004,None,611.213502700004,None,611.213502700004,None,None,None,None,None,None,,,,,,,,,,,,,,,,,,,,,,,,,,,,,,,,,,,,,,,,,,,ST02_112522,2022-11-25_14h18.28.134,Hippopolis_Learning,2021.1.4,60.21132973258861,
Hippopolis,stimuli/subj_files/ST02_112522_cityA.csv,./stimuli/seattle.jpg,./stimuli/street_plate1.png,TENISZ UTCA,stimuli/scenes/039a.jpg,scene,1,stimuli/scenes/011a.jpg,stimuli/scenes/011a.jpg,stimuli/objects/051b.jpg,stimuli/scenes/011b.jpg,stimuli/objects/051a.jpg,target,dist2,lure,dist1,0,0,0,0,0,74,74,23,,,,,,,,,,,,,,,614.227818400017,None,615.2292242000112,None,615.2292242000112,None,615.2292242000112,None,615.2292242000112,None,None,None,None,None,None,,,,,,,,,,,,,,,,,,,,,,,,,,,,,,,,,,,,,,,,,,,ST02_112522,2022-11-25_14h18.28.134,Hippopolis_Learning,2021.1.4,60.21132973258861,
Hippopolis,stimuli/subj_files/ST02_112522_cityA.csv,./stimuli/seattle.jpg,./stimuli/street_plate1.png,HORGONY UTCA,stimuli/objects/031a.jpg,object,0,stimuli/objects/031a.jpg,stimuli/objects/031a.jpg,stimuli/objects/031b.jpg,stimuli/scenes/085a.jpg,stimuli/scenes/085b.jpg,target,lure,dist1,dist2,0,0,0,0,0,75,75,75,,,,,,,,,,,,,,,618.2275667000213,None,619.2283852999972,None,619.2283852999972,None,619.2283852999972,None,619.2283852999972,None,None,None,None,None,None,,,,,,,,,,,,,,,,,,,,,,,,,,,,,,,,,,,,,,,,,,,ST02_112522,2022-11-25_14h18.28.134,Hippopolis_Learning,2021.1.4,60.21132973258861,
Hippopolis,stimuli/subj_files/ST02_112522_cityA.csv,./stimuli/seattle.jpg,./stimuli/street_plate1.png,CITROM UTCA,stimuli/scenes/043a.jpg,scene,2,stimuli/objects/117a.jpg,stimuli/objects/117a.jpg,stimuli/objects/022a.jpg,stimuli/objects/022b.jpg,stimuli/objects/117b.jpg,target,dist1,dist2,lure,0,0,0,0,0,76,76,29,,,,,,,,,,,,,,,622.2275193000096,None,623.2288163000194,None,623.2288163000194,None,623.2288163000194,None,623.2288163000194,None,None,None,None,None,None,,,,,,,,,,,,,,,,,,,,,,,,,,,,,,,,,,,,,,,,,,,ST02_112522,2022-11-25_14h18.28.134,Hippopolis_Learning,2021.1.4,60.21132973258861,
Hippopolis,stimuli/subj_files/ST02_112522_cityA.csv,./stimuli/seattle.jpg,./stimuli/street_plate1.png,PAPRIKA UTCA,stimuli/scenes/082a.jpg,scene,2,stimuli/objects/009a.jpg,stimuli/objects/106b.jpg,stimuli/objects/106a.jpg,stimuli/objects/009a.jpg,stimuli/objects/009b.jpg,dist2,dist1,target,lure,0,0,0,0,0,77,77,59,,,,,,,,,,,,,,,626.2276029000059,None,627.227885500004,None,627.227885500004,None,627.227885500004,None,627.227885500004,None,None,None,None,None,None,,,,,,,,,,,,,,,,,,,,,,,,,,,,,,,,,,,,,,,,,,,ST02_112522,2022-11-25_14h18.28.134,Hippopolis_Learning,2021.1.4,60.21132973258861,
Hippopolis,stimuli/subj_files/ST02_112522_cityA.csv,./stimuli/seattle.jpg,./stimuli/street_plate1.png,KÖNYVTÁR UTCA,stimuli/objects/094a.jpg,object,1,stimuli/objects/062a.jpg,stimuli/objects/062b.jpg,stimuli/objects/062a.jpg,stimuli/objects/099a.jpg,stimuli/objects/099b.jpg,lure,target,dist1,dist2,0,0,0,0,0,78,78,33,,,,,,,,,,,,,,,630.2279175000149,None,631.2279459999991,None,631.2279459999991,None,631.2279459999991,None,631.2279459999991,None,None,None,None,None,None,,,,,,,,,,,,,,,,,,,,,,,,,,,,,,,,,,,,,,,,,,,ST02_112522,2022-11-25_14h18.28.134,Hippopolis_Learning,2021.1.4,60.21132973258861,
Hippopolis,stimuli/subj_files/ST02_112522_cityA.csv,./stimuli/seattle.jpg,./stimuli/street_plate1.png,TÁSKA UTCA,stimuli/scenes/049a.jpg,scene,1,stimuli/scenes/112a.jpg,stimuli/objects/030b.jpg,stimuli/objects/030a.jpg,stimuli/scenes/112a.jpg,stimuli/scenes/112b.jpg,dist2,dist1,target,lure,0,0,0,0,0,79,79,9,,,,,,,,,,,,,,,634.2273083000036,None,635.2278500999964,None,635.2278500999964,None,635.2278500999964,None,635.2278500999964,None,None,None,None,None,None,,,,,,,,,,,,,,,,,,,,,,,,,,,,,,,,,,,,,,,,,,,ST02_112522,2022-11-25_14h18.28.134,Hippopolis_Learning,2021.1.4,60.21132973258861,
Hippopolis,stimuli/subj_files/ST02_112522_cityA.csv,./stimuli/seattle.jpg,./stimuli/street_plate1.png,KOCKA UTCA,stimuli/scenes/002a.jpg,scene,2,stimuli/objects/111a.jpg,stimuli/objects/111a.jpg,stimuli/objects/072a.jpg,stimuli/objects/072b.jpg,stimuli/objects/111b.jpg,target,dist1,dist2,lure,0,0,0,0,,,,,0,0,0,16,,,,,,,,,,,682.9610065000015,None,,,,,,,,,,,,,,,638.2273843000003,None,space,41.725262699997984,638.2273843000003,None,679.991508200008,None,679.991508200008,None,679.991508200008,None,679.991508200008,None,left,2.9442857000103686,679.991508200008,None,679.991508200008,None,None,None,None,None,None,None,None,None,None,None,None,,,,,,,,,,,ST02_112522,2022-11-25_14h18.28.134,Hippopolis_Learning,2021.1.4,60.21132973258861,
Hippopolis,stimuli/subj_files/ST02_112522_cityA.csv,./stimuli/seattle.jpg,./stimuli/street_plate1.png,FÉSŰ UTCA,stimuli/scenes/092a.jpg,scene,1,stimuli/scenes/091a.jpg,stimuli/scenes/020b.jpg,stimuli/scenes/091b.jpg,stimuli/scenes/091a.jpg,stimuli/scenes/020a.jpg,dist2,lure,target,dist1,0,0,0,0,,,,,0,1,1,54,,,,,,,,,,,687.7100992000196,None,,,,,,,,,,,,,,,,,,,,,683.9602283000131,None,683.9602283000131,None,683.9602283000131,None,683.9602283000131,None,left,3.7296224999881815,683.9602283000131,None,683.9602283000131,None,None,None,None,None,None,None,None,None,None,None,None,,,,,,,,,,,ST02_112522,2022-11-25_14h18.28.134,Hippopolis_Learning,2021.1.4,60.21132973258861,
Hippopolis,stimuli/subj_files/ST02_112522_cityA.csv,./stimuli/seattle.jpg,./stimuli/street_plate1.png,KERÉK UTCA,stimuli/objects/039a.jpg,object,1,stimuli/objects/097a.jpg,stimuli/objects/019a.jpg,stimuli/objects/097b.jpg,stimuli/objects/019b.jpg,stimuli/objects/097a.jpg,dist1,lure,dist2,target,0,0,0,0,,,,,0,2,2,15,,,,,,,,,,,691.4594358000031,None,,,,,,,,,,,,,,,,,,,,,688.7102293000207,None,688.7102293000207,None,688.7102293000207,None,688.7102293000207,None,right,2.7176589999871794,688.7102293000207,None,688.7102293000207,None,None,None,None,None,None,None,None,None,None,None,None,,,,,,,,,,,ST02_112522,2022-11-25_14h18.28.134,Hippopolis_Learning,2021.1.4,60.21132973258861,
Hippopolis,stimuli/subj_files/ST02_112522_cityA.csv,./stimuli/seattle.jpg,./stimuli/street_plate1.png,OLDAL UTCA,stimuli/objects/079a.jpg,object,0,stimuli/objects/079a.jpg,stimuli/objects/079a.jpg,stimuli/scenes/120a.jpg,stimuli/objects/079b.jpg,stimuli/scenes/120b.jpg,target,dist1,lure,dist2,0,0,0,0,,,,,0,3,3,70,,,,,,,,,,,694.5601438000158,None,,,,,,,,,,,,,,,,,,,,,692.4603082000103,None,692.4603082000103,None,692.4603082000103,None,692.4603082000103,None,left,2.078402899991488,692.4603082000103,None,692.4603082000103,None,None,None,None,None,None,None,None,None,None,None,None,,,,,,,,,,,ST02_112522,2022-11-25_14h18.28.134,Hippopolis_Learning,2021.1.4,60.21132973258861,
Hippopolis,stimuli/subj_files/ST02_112522_cityA.csv,./stimuli/seattle.jpg,./stimuli/street_plate1.png,KOSÁR UTCA,stimuli/objects/081a.jpg,object,0,stimuli/objects/081a.jpg,stimuli/objects/081a.jpg,stimuli/scenes/083a.jpg,stimuli/scenes/083b.jpg,stimuli/objects/081b.jpg,target,dist1,dist2,lure,0,0,0,0,,,,,0,4,4,77,,,,,,,,,,,698.1929211000097,None,,,,,,,,,,,,,,,,,,,,,695.5605938000081,None,695.5605938000081,None,695.5605938000081,None,695.5605938000081,None,right,2.603651500015985,695.5605938000081,None,695.5605938000081,None,None,None,None,None,None,None,None,None,None,None,None,,,,,,,,,,,ST02_112522,2022-11-25_14h18.28.134,Hippopolis_Learning,2021.1.4,60.21132973258861,
Hippopolis,stimuli/subj_files/ST02_112522_cityA.csv,./stimuli/seattle.jpg,./stimuli/street_plate1.png,PAPAGÁJ UTCA,stimuli/objects/114a.jpg,object,0,stimuli/objects/114a.jpg,stimuli/objects/114a.jpg,stimuli/objects/052b.jpg,stimuli/objects/052a.jpg,stimuli/objects/114b.jpg,target,dist2,dist1,lure,0,0,0,0,,,,,0,5,5,48,,,,,,,,,,,701.5263797999942,None,,,,,,,,,,,,,,,,,,,,,699.1937330999936,None,699.1937330999936,None,699.1937330999936,None,699.1937330999936,None,left,2.306799999991199,699.1937330999936,None,699.1937330999936,None,None,None,None,None,None,None,None,None,None,None,None,,,,,,,,,,,ST02_112522,2022-11-25_14h18.28.134,Hippopolis_Learning,2021.1.4,60.21132973258861,
Hippopolis,stimuli/subj_files/ST02_112522_cityA.csv,./stimuli/seattle.jpg,./stimuli/street_plate1.png,REPÜLŐ UTCA,stimuli/objects/048a.jpg,object,1,stimuli/objects/095a.jpg,stimuli/objects/095a.jpg,stimuli/scenes/042b.jpg,stimuli/scenes/042a.jpg,stimuli/objects/095b.jpg,target,dist2,dist1,lure,0,0,0,0,,,,,0,6,6,60,,,,,,,,,,,704.7267229999998,None,,,,,,,,,,,,,,,,,,,,,702.5265730000101,None,702.5265730000101,None,702.5265730000101,None,702.5265730000101,None,left,2.1825456999940798,702.5265730000101,None,702.5265730000101,None,None,None,None,None,None,None,None,None,None,None,None,,,,,,,,,,,ST02_112522,2022-11-25_14h18.28.134,Hippopolis_Learning,2021.1.4,60.21132973258861,
Hippopolis,stimuli/subj_files/ST02_112522_cityA.csv,./stimuli/seattle.jpg,./stimuli/street_plate1.png,FEJSZE UTCA,stimuli/scenes/114a.jpg,scene,0,stimuli/scenes/114a.jpg,stimuli/scenes/114b.jpg,stimuli/objects/114a.jpg,stimuli/objects/114b.jpg,stimuli/scenes/114a.jpg,lure,dist1,dist2,target,0,0,0,0,,,,,0,7,7,72,,,,,,,,,,,709.0592776999983,None,,,,,,,,,,,,,,,,,,,,,705.7269429000153,None,705.7269429000153,None,705.7269429000153,None,705.7269429000153,None,left,3.308951999992132,705.7269429000153,None,705.7269429000153,None,None,None,None,None,None,None,None,None,None,None,None,,,,,,,,,,,ST02_112522,2022-11-25_14h18.28.134,Hippopolis_Learning,2021.1.4,60.21132973258861,
Hippopolis,stimuli/subj_files/ST02_112522_cityA.csv,./stimuli/seattle.jpg,./stimuli/street_plate1.png,LABDA UTCA,stimuli/objects/063a.jpg,object,1,stimuli/objects/016a.jpg,stimuli/objects/095b.jpg,stimuli/objects/016b.jpg,stimuli/objects/095a.jpg,stimuli/objects/016a.jpg,dist2,lure,dist1,target,0,0,0,0,,,,,0,8,8,47,,,,,,,,,,,714.0592382000177,None,,,,,,,,,,,,,,,,,,,,,710.0604337000113,None,710.0604337000113,None,710.0604337000113,None,710.0604337000113,None,None,,710.0604337000113,None,710.0604337000113,None,None,None,None,None,None,None,None,None,None,None,None,,,,,,,,,,,ST02_112522,2022-11-25_14h18.28.134,Hippopolis_Learning,2021.1.4,60.21132973258861,
Hippopolis,stimuli/subj_files/ST02_112522_cityA.csv,./stimuli/seattle.jpg,./stimuli/street_plate1.png,KESELYŰ UTCA,stimuli/objects/119a.jpg,object,2,stimuli/scenes/065a.jpg,stimuli/scenes/065a.jpg,stimuli/scenes/065b.jpg,stimuli/scenes/033b.jpg,stimuli/scenes/033a.jpg,target,lure,dist2,dist1,0,0,0,0,,,,,0,9,9,6,,,,,,,,,,,717.0759330000146,None,,,,,,,,,,,,,,,,,,,,,715.0600128000078,None,715.0600128000078,None,715.0600128000078,None,715.0600128000078,None,left,1.9832601999805775,715.0600128000078,None,715.0600128000078,None,None,None,None,None,None,None,None,None,None,None,None,,,,,,,,,,,ST02_112522,2022-11-25_14h18.28.134,Hippopolis_Learning,2021.1.4,60.21132973258861,
Hippopolis,stimuli/subj_files/ST02_112522_cityA.csv,./stimuli/seattle.jpg,./stimuli/street_plate1.png,KÓKUSZ UTCA,stimuli/scenes/070a.jpg,scene,2,stimuli/objects/091a.jpg,stimuli/objects/117b.jpg,stimuli/objects/117a.jpg,stimuli/objects/091a.jpg,stimuli/objects/091b.jpg,dist2,dist1,target,lure,0,0,0,0,,,,,0,10,10,39,,,,,,,,,,,720.126459799998,None,,,,,,,,,,,,,,,,,,,,,718.0768540000136,None,718.0768540000136,None,718.0768540000136,None,718.0768540000136,None,left,2.028592699993169,718.0768540000136,None,718.0768540000136,None,None,None,None,None,None,None,None,None,None,None,None,,,,,,,,,,,ST02_112522,2022-11-25_14h18.28.134,Hippopolis_Learning,2021.1.4,60.21132973258861,
Hippopolis,stimuli/subj_files/ST02_112522_cityA.csv,./stimuli/seattle.jpg,./stimuli/street_plate1.png,HORGONY UTCA,stimuli/objects/031a.jpg,object,0,stimuli/objects/031a.jpg,stimuli/objects/031a.jpg,stimuli/objects/031b.jpg,stimuli/scenes/085a.jpg,stimuli/scenes/085b.jpg,target,lure,dist1,dist2,0,0,0,0,,,,,0,11,11,75,,,,,,,,,,,735.9588908000151,None,,,,,,,,,,,,,,,,,,,,,721.126642999996,None,721.126642999996,None,721.126642999996,None,721.126642999996,None,right,2.4555354999902193,721.126642999996,None,721.126642999996,None,723.6131636000064,None,723.6131636000064,None,723.6131636000064,None,723.6131636000064,None,space,723.6131636000064,None,12.314008199988166,,,,,,,,,,ST02_112522,2022-11-25_14h18.28.134,Hippopolis_Learning,2021.1.4,60.21132973258861,
Hippopolis,stimuli/subj_files/ST02_112522_cityA.csv,./stimuli/seattle.jpg,./stimuli/street_plate1.png,FOLYÓ UTCA,stimuli/objects/104a.jpg,object,2,stimuli/scenes/033a.jpg,stimuli/scenes/033b.jpg,stimuli/objects/111a.jpg,stimuli/scenes/033a.jpg,stimuli/objects/111b.jpg,lure,dist1,target,dist2,0,0,0,0,,,,,0,12,12,27,,,,,,,,,,,738.342529400019,None,,,,,,,,,,,,,,,,,,,,,736.9590029999963,None,736.9590029999963,None,736.9590029999963,None,736.9590029999963,None,left,1.3537791999988258,736.9590029999963,None,736.9590029999963,None,None,None,None,None,None,None,None,None,None,None,None,,,,,,,,,,,ST02_112522,2022-11-25_14h18.28.134,Hippopolis_Learning,2021.1.4,60.21132973258861,
Hippopolis,stimuli/subj_files/ST02_112522_cityA.csv,./stimuli/seattle.jpg,./stimuli/street_plate1.png,BANÁN UTCA,stimuli/objects/015a.jpg,object,2,stimuli/scenes/073a.jpg,stimuli/scenes/073a.jpg,stimuli/objects/009a.jpg,stimuli/objects/009b.jpg,stimuli/scenes/073b.jpg,target,dist1,dist2,lure,0,0,0,0,,,,,0,13,13,43,,,,,,,,,,,741.82602030001,None,,,,,,,,,,,,,,,,,,,,,739.3426413999987,None,739.3426413999987,None,739.3426413999987,None,739.3426413999987,None,left,2.453369399998337,739.3426413999987,None,739.3426413999987,None,None,None,None,None,None,None,None,None,None,None,None,,,,,,,,,,,ST02_112522,2022-11-25_14h18.28.134,Hippopolis_Learning,2021.1.4,60.21132973258861,
Hippopolis,stimuli/subj_files/ST02_112522_cityA.csv,./stimuli/seattle.jpg,./stimuli/street_plate1.png,TÜKÖR UTCA,stimuli/objects/025a.jpg,object,1,stimuli/objects/108a.jpg,stimuli/objects/108a.jpg,stimuli/objects/108b.jpg,stimuli/scenes/011b.jpg,stimuli/scenes/011a.jpg,target,lure,dist2,dist1,0,0,0,0,,,,,0,14,14,21,,,,,,,,,,,744.3423836000147,None,,,,,,,,,,,,,,,,,,,,,742.8262770000147,None,742.8262770000147,None,742.8262770000147,None,742.8262770000147,None,left,1.4935298999771476,742.8262770000147,None,742.8262770000147,None,None,None,None,None,None,None,None,None,None,None,None,,,,,,,,,,,ST02_112522,2022-11-25_14h18.28.134,Hippopolis_Learning,2021.1.4,60.21132973258861,
Hippopolis,stimuli/subj_files/ST02_112522_cityA.csv,./stimuli/seattle.jpg,./stimuli/street_plate1.png,PIZSAMA UTCA,stimuli/scenes/008a.jpg,scene,2,stimuli/objects/006a.jpg,stimuli/objects/006b.jpg,stimuli/objects/091a.jpg,stimuli/objects/006a.jpg,stimuli/objects/091b.jpg,lure,dist1,target,dist2,0,0,0,0,,,,,0,15,15,11,,,,,,,,,,,747.5591399999976,None,,,,,,,,,,,,,,,,,,,,,745.3426429000101,None,745.3426429000101,None,745.3426429000101,None,745.3426429000101,None,left,2.185725299990736,745.3426429000101,None,745.3426429000101,None,None,None,None,None,None,None,None,None,None,None,None,,,,,,,,,,,ST02_112522,2022-11-25_14h18.28.134,Hippopolis_Learning,2021.1.4,60.21132973258861,
Hippopolis,stimuli/subj_files/ST02_112522_cityA.csv,./stimuli/seattle.jpg,./stimuli/street_plate1.png,PALACK UTCA,stimuli/objects/010a.jpg,object,2,stimuli/scenes/041a.jpg,stimuli/scenes/090a.jpg,stimuli/scenes/041b.jpg,stimuli/scenes/041a.jpg,stimuli/scenes/090b.jpg,dist1,lure,target,dist2,0,0,0,0,,,,,0,16,16,3,,,,,,,,,,,749.9592259000055,None,,,,,,,,,,,,,,,,,,,,,748.559046600014,None,748.559046600014,None,748.559046600014,None,748.559046600014,None,left,1.3788474000175484,748.559046600014,None,748.559046600014,None,None,None,None,None,None,None,None,None,None,None,None,,,,,,,,,,,ST02_112522,2022-11-25_14h18.28.134,Hippopolis_Learning,2021.1.4,60.21132973258861,
Hippopolis,stimuli/subj_files/ST02_112522_cityA.csv,./stimuli/seattle.jpg,./stimuli/street_plate1.png,KÁRTYA UTCA,stimuli/objects/018a.jpg,object,1,stimuli/objects/003a.jpg,stimuli/objects/003b.jpg,stimuli/objects/016b.jpg,stimuli/objects/003a.jpg,stimuli/objects/016a.jpg,lure,dist2,target,dist1,0,0,0,0,,,,,0,17,17,68,,,,,,,,,,,753.2419674000121,None,,,,,,,,,,,,,,,,,,,,,750.9604668999964,None,750.9604668999964,None,750.9604668999964,None,750.9604668999964,None,left,2.261732500017388,750.9604668999964,None,750.9604668999964,None,None,None,None,None,None,None,None,None,None,None,None,,,,,,,,,,,ST02_112522,2022-11-25_14h18.28.134,Hippopolis_Learning,2021.1.4,60.21132973258861,
Hippopolis,stimuli/subj_files/ST02_112522_cityA.csv,./stimuli/seattle.jpg,./stimuli/street_plate1.png,ÁLLOMÁS UTCA,stimuli/scenes/053a.jpg,scene,1,stimuli/scenes/015a.jpg,stimuli/objects/038b.jpg,stimuli/scenes/015b.jpg,stimuli/scenes/015a.jpg,stimuli/objects/038a.jpg,dist2,lure,target,dist1,0,0,0,0,,,,,0,18,18,67,,,,,,,,,,,756.5590319000185,None,,,,,,,,,,,,,,,,,,,,,754.2426322000101,None,754.2426322000101,None,754.2426322000101,None,754.2426322000101,None,left,2.293988499994157,754.2426322000101,None,754.2426322000101,None,None,None,None,None,None,None,None,None,None,None,None,,,,,,,,,,,ST02_112522,2022-11-25_14h18.28.134,Hippopolis_Learning,2021.1.4,60.21132973258861,
Hippopolis,stimuli/subj_files/ST02_112522_cityA.csv,./stimuli/seattle.jpg,./stimuli/street_plate1.png,TENISZ UTCA,stimuli/scenes/039a.jpg,scene,1,stimuli/scenes/011a.jpg,stimuli/scenes/011a.jpg,stimuli/objects/051b.jpg,stimuli/scenes/011b.jpg,stimuli/objects/051a.jpg,target,dist2,lure,dist1,0,0,0,0,,,,,0,19,19,23,,,,,,,,,,,759.9588870000152,None,,,,,,,,,,,,,,,,,,,,,757.5595439000172,None,757.5595439000172,None,757.5595439000172,None,757.5595439000172,None,left,2.3698122999921907,757.5595439000172,None,757.5595439000172,None,None,None,None,None,None,None,None,None,None,None,None,,,,,,,,,,,ST02_112522,2022-11-25_14h18.28.134,Hippopolis_Learning,2021.1.4,60.21132973258861,
Hippopolis,stimuli/subj_files/ST02_112522_cityA.csv,./stimuli/seattle.jpg,./stimuli/street_plate1.png,RÁDIÓ UTCA,stimuli/scenes/007a.jpg,scene,0,stimuli/scenes/007a.jpg,stimuli/scenes/114b.jpg,stimuli/scenes/114a.jpg,stimuli/scenes/007a.jpg,stimuli/scenes/007b.jpg,dist2,dist1,target,lure,0,0,0,0,,,,,0,20,20,41,,,,,,,,,,,763.1419750000059,None,,,,,,,,,,,,,,,,,,,,,760.9593763000157,None,760.9593763000157,None,760.9593763000157,None,760.9593763000157,None,left,2.157029300025897,760.9593763000157,None,760.9593763000157,None,None,None,None,None,None,None,None,None,None,None,None,,,,,,,,,,,ST02_112522,2022-11-25_14h18.28.134,Hippopolis_Learning,2021.1.4,60.21132973258861,
Hippopolis,stimuli/subj_files/ST02_112522_cityA.csv,./stimuli/seattle.jpg,./stimuli/street_plate1.png,PÁFRÁNY UTCA,stimuli/objects/037a.jpg,object,1,stimuli/objects/070a.jpg,stimuli/objects/070a.jpg,stimuli/scenes/066a.jpg,stimuli/objects/070b.jpg,stimuli/scenes/066b.jpg,target,dist1,lure,dist2,0,0,0,0,,,,,0,21,21,73,,,,,,,,,,,766.8753645000106,None,,,,,,,,,,,,,,,,,,,,,764.1427071000217,None,764.1427071000217,None,764.1427071000217,None,764.1427071000217,None,left,2.71395930001745,764.1427071000217,None,764.1427071000217,None,None,None,None,None,None,None,None,None,None,None,None,,,,,,,,,,,ST02_112522,2022-11-25_14h18.28.134,Hippopolis_Learning,2021.1.4,60.21132973258861,
Hippopolis,stimuli/subj_files/ST02_112522_cityA.csv,./stimuli/seattle.jpg,./stimuli/street_plate1.png,BÚJÓCSKA UTCA,stimuli/objects/035a.jpg,object,0,stimuli/objects/035a.jpg,stimuli/objects/034b.jpg,stimuli/objects/035a.jpg,stimuli/objects/034a.jpg,stimuli/objects/035b.jpg,dist2,target,dist1,lure,0,0,0,0,,,,,0,22,22,2,,,,,,,,,,,770.8086833000125,None,,,,,,,,,,,,,,,,,,,,,767.8755943000142,None,767.8755943000142,None,767.8755943000142,None,767.8755943000142,None,left,2.905442299990682,767.8755943000142,None,767.8755943000142,None,None,None,None,None,None,None,None,None,None,None,None,,,,,,,,,,,ST02_112522,2022-11-25_14h18.28.134,Hippopolis_Learning,2021.1.4,60.21132973258861,
Hippopolis,stimuli/subj_files/ST02_112522_cityA.csv,./stimuli/seattle.jpg,./stimuli/street_plate1.png,PÁRNA UTCA,stimuli/objects/021a.jpg,object,2,stimuli/scenes/046a.jpg,stimuli/scenes/073b.jpg,stimuli/scenes/046a.jpg,stimuli/scenes/046b.jpg,stimuli/scenes/073a.jpg,dist2,target,lure,dist1,0,0,0,0,,,,,0,23,23,40,,,,,,,,,,,773.9921035000007,None,,,,,,,,,,,,,,,,,,,,,771.8088686999981,None,771.8088686999981,None,771.8088686999981,None,771.8088686999981,None,left,2.1578692000184674,771.8088686999981,None,771.8088686999981,None,None,None,None,None,None,None,None,None,None,None,None,,,,,,,,,,,ST02_112522,2022-11-25_14h18.28.134,Hippopolis_Learning,2021.1.4,60.21132973258861,
Hippopolis,stimuli/subj_files/ST02_112522_cityA.csv,./stimuli/seattle.jpg,./stimuli/street_plate1.png,MÁRVÁNY UTCA,stimuli/scenes/035a.jpg,scene,1,stimuli/scenes/042a.jpg,stimuli/scenes/112a.jpg,stimuli/scenes/042b.jpg,stimuli/scenes/112b.jpg,stimuli/scenes/042a.jpg,dist1,lure,dist2,target,0,0,0,0,,,,,0,24,24,61,,,,,,,,,,,777.2079354000161,None,,,,,,,,,,,,,,,,,,,,,774.9924040000187,None,774.9924040000187,None,774.9924040000187,None,774.9924040000187,None,right,2.1901734999846667,774.9924040000187,None,774.9924040000187,None,None,None,None,None,None,None,None,None,None,None,None,,,,,,,,,,,ST02_112522,2022-11-25_14h18.28.134,Hippopolis_Learning,2021.1.4,60.21132973258861,
Hippopolis,stimuli/subj_files/ST02_112522_cityA.csv,./stimuli/seattle.jpg,./stimuli/street_plate1.png,KESZTYŰ UTCA,stimuli/scenes/089a.jpg,scene,1,stimuli/scenes/106a.jpg,stimuli/scenes/106a.jpg,stimuli/scenes/029a.jpg,stimuli/scenes/106b.jpg,stimuli/scenes/029b.jpg,target,dist1,lure,dist2,0,0,0,0,,,,,0,25,25,1,,,,,,,,,,,780.3253782000102,None,,,,,,,,,,,,,,,,,,,,,778.2092100000009,None,778.2092100000009,None,778.2092100000009,None,778.2092100000009,None,left,2.0852394999819808,778.2092100000009,None,778.2092100000009,None,None,None,None,None,None,None,None,None,None,None,None,,,,,,,,,,,ST02_112522,2022-11-25_14h18.28.134,Hippopolis_Learning,2021.1.4,60.21132973258861,
Hippopolis,stimuli/subj_files/ST02_112522_cityA.csv,./stimuli/seattle.jpg,./stimuli/street_plate1.png,LEMEZ UTCA,stimuli/scenes/111a.jpg,scene,2,stimuli/objects/106a.jpg,stimuli/scenes/065a.jpg,stimuli/objects/106a.jpg,stimuli/objects/106b.jpg,stimuli/scenes/065b.jpg,dist1,target,lure,dist2,0,0,0,0,,,,,0,26,26,49,,,,,,,,,,,782.7248067000182,None,,,,,,,,,,,,,,,,,,,,,781.3258130000031,None,781.3258130000031,None,781.3258130000031,None,781.3258130000031,None,left,1.3753506999928504,781.3258130000031,None,781.3258130000031,None,None,None,None,None,None,None,None,None,None,None,None,,,,,,,,,,,ST02_112522,2022-11-25_14h18.28.134,Hippopolis_Learning,2021.1.4,60.21132973258861,
Hippopolis,stimuli/subj_files/ST02_112522_cityA.csv,./stimuli/seattle.jpg,./stimuli/street_plate1.png,MENTA UTCA,stimuli/objects/109a.jpg,object,2,stimuli/scenes/038a.jpg,stimuli/scenes/038a.jpg,stimuli/scenes/038b.jpg,stimuli/objects/061b.jpg,stimuli/objects/061a.jpg,target,lure,dist2,dist1,0,0,0,0,,,,,0,27,27,66,,,,,,,,,,,800.0079335000191,None,,,,,,,,,,,,,,,,,,,,,783.7258916000137,None,783.7258916000137,None,783.7258916000137,None,783.7258916000137,None,right,3.7553376000141725,783.7258916000137,None,783.7258916000137,None,787.5087685000035,None,787.5087685000035,None,787.5087685000035,None,787.5087685000035,None,space,787.5087685000035,None,12.474256199988304,,,,,,,,,,ST02_112522,2022-11-25_14h18.28.134,Hippopolis_Learning,2021.1.4,60.21132973258861,
Hippopolis,stimuli/subj_files/ST02_112522_cityA.csv,./stimuli/seattle.jpg,./stimuli/street_plate1.png,CITROM UTCA,stimuli/scenes/043a.jpg,scene,2,stimuli/objects/117a.jpg,stimuli/objects/117a.jpg,stimuli/objects/022a.jpg,stimuli/objects/022b.jpg,stimuli/objects/117b.jpg,target,dist1,dist2,lure,0,0,0,0,,,,,0,28,28,29,,,,,,,,,,,802.6248553000041,None,,,,,,,,,,,,,,,,,,,,,801.0086878000002,None,801.0086878000002,None,801.0086878000002,None,801.0086878000002,None,left,1.5912337999907322,801.0086878000002,None,801.0086878000002,None,None,None,None,None,None,None,None,None,None,None,None,,,,,,,,,,,ST02_112522,2022-11-25_14h18.28.134,Hippopolis_Learning,2021.1.4,60.21132973258861,
Hippopolis,stimuli/subj_files/ST02_112522_cityA.csv,./stimuli/seattle.jpg,./stimuli/street_plate1.png,FÉNYKÉP UTCA,stimuli/objects/036a.jpg,object,0,stimuli/objects/036a.jpg,stimuli/scenes/036a.jpg,stimuli/scenes/036b.jpg,stimuli/objects/036b.jpg,stimuli/objects/036a.jpg,dist1,dist2,lure,target,0,0,0,0,,,,,0,29,29,24,,,,,,,,,,,805.7746964000107,None,,,,,,,,,,,,,,,,,,,,,803.6254407000088,None,803.6254407000088,None,803.6254407000088,None,803.6254407000088,None,left,2.1212549000047147,803.6254407000088,None,803.6254407000088,None,None,None,None,None,None,None,None,None,None,None,None,,,,,,,,,,,ST02_112522,2022-11-25_14h18.28.134,Hippopolis_Learning,2021.1.4,60.21132973258861,
Hippopolis,stimuli/subj_files/ST02_112522_cityA.csv,./stimuli/seattle.jpg,./stimuli/street_plate1.png,RÓZSA UTCA,stimuli/scenes/102a.jpg,scene,2,stimuli/objects/061a.jpg,stimuli/objects/061b.jpg,stimuli/objects/001b.jpg,stimuli/objects/061a.jpg,stimuli/objects/001a.jpg,lure,dist2,target,dist1,0,0,0,0,,,,,0,30,30,38,,,,,,,,,,,809.5913896000129,None,,,,,,,,,,,,,,,,,,,,,806.7752584000118,None,806.7752584000118,None,806.7752584000118,None,806.7752584000118,None,left,2.791841199999908,806.7752584000118,None,806.7752584000118,None,None,None,None,None,None,None,None,None,None,None,None,,,,,,,,,,,ST02_112522,2022-11-25_14h18.28.134,Hippopolis_Learning,2021.1.4,60.21132973258861,
Hippopolis,stimuli/subj_files/ST02_112522_cityA.csv,./stimuli/seattle.jpg,./stimuli/street_plate1.png,KORONA UTCA,stimuli/scenes/116a.jpg,scene,1,stimuli/scenes/104a.jpg,stimuli/scenes/104b.jpg,stimuli/scenes/018a.jpg,stimuli/scenes/104a.jpg,stimuli/scenes/018b.jpg,lure,dist1,target,dist2,0,0,0,0,,,,,0,31,31,56,,,,,,,,,,,812.6741163000115,None,,,,,,,,,,,,,,,,,,,,,810.591892299999,None,810.591892299999,None,810.591892299999,None,810.591892299999,None,right,2.0646292999736033,810.591892299999,None,810.591892299999,None,None,None,None,None,None,None,None,None,None,None,None,,,,,,,,,,,ST02_112522,2022-11-25_14h18.28.134,Hippopolis_Learning,2021.1.4,60.21132973258861,
Hippopolis,stimuli/subj_files/ST02_112522_cityA.csv,./stimuli/seattle.jpg,./stimuli/street_plate1.png,TISZTÁS UTCA,stimuli/scenes/031a.jpg,scene,2,stimuli/objects/068a.jpg,stimuli/objects/068b.jpg,stimuli/scenes/047b.jpg,stimuli/objects/068a.jpg,stimuli/scenes/047a.jpg,lure,dist2,target,dist1,0,0,0,0,,,,,0,32,32,51,,,,,,,,,,,815.3912666999968,None,,,,,,,,,,,,,,,,,,,,,813.6750818,None,813.6750818,None,813.6750818,None,813.6750818,None,left,1.687421800015727,813.6750818,None,813.6750818,None,None,None,None,None,None,None,None,None,None,None,None,,,,,,,,,,,ST02_112522,2022-11-25_14h18.28.134,Hippopolis_Learning,2021.1.4,60.21132973258861,
Hippopolis,stimuli/subj_files/ST02_112522_cityA.csv,./stimuli/seattle.jpg,./stimuli/street_plate1.png,LÁNDZSA UTCA,stimuli/objects/065a.jpg,object,1,stimuli/objects/038a.jpg,stimuli/objects/003a.jpg,stimuli/objects/038a.jpg,stimuli/objects/003b.jpg,stimuli/objects/038b.jpg,dist1,target,dist2,lure,0,0,0,0,,,,,0,33,33,18,,,,,,,,,,,818.057907600014,None,,,,,,,,,,,,,,,,,,,,,816.3913132000016,None,816.3913132000016,None,816.3913132000016,None,816.3913132000016,None,left,1.6486214000033215,816.3913132000016,None,816.3913132000016,None,None,None,None,None,None,None,None,None,None,None,None,,,,,,,,,,,ST02_112522,2022-11-25_14h18.28.134,Hippopolis_Learning,2021.1.4,60.21132973258861,
Hippopolis,stimuli/subj_files/ST02_112522_cityA.csv,./stimuli/seattle.jpg,./stimuli/street_plate1.png,KÖNYVTÁR UTCA,stimuli/objects/094a.jpg,object,1,stimuli/objects/062a.jpg,stimuli/objects/062b.jpg,stimuli/objects/062a.jpg,stimuli/objects/099a.jpg,stimuli/objects/099b.jpg,lure,target,dist1,dist2,0,0,0,0,,,,,0,34,34,33,,,,,,,,,,,821.2246194000181,None,,,,,,,,,,,,,,,,,,,,,819.0580167000007,None,819.0580167000007,None,819.0580167000007,None,819.0580167000007,None,left,2.1357975999999326,819.0580167000007,None,819.0580167000007,None,None,None,None,None,None,None,None,None,None,None,None,,,,,,,,,,,ST02_112522,2022-11-25_14h18.28.134,Hippopolis_Learning,2021.1.4,60.21132973258861,
Hippopolis,stimuli/subj_files/ST02_112522_cityA.csv,./stimuli/seattle.jpg,./stimuli/street_plate1.png,SZAXOFON UTCA,stimuli/scenes/103a.jpg,scene,1,stimuli/scenes/018a.jpg,stimuli/scenes/071b.jpg,stimuli/scenes/018a.jpg,stimuli/scenes/071a.jpg,stimuli/scenes/018b.jpg,dist2,target,dist1,lure,0,0,0,0,,,,,0,35,35,55,,,,,,,,,,,824.1746024000167,None,,,,,,,,,,,,,,,,,,,,,822.2250402000209,None,822.2250402000209,None,822.2250402000209,None,822.2250402000209,None,left,1.9189962999953423,822.2250402000209,None,822.2250402000209,None,None,None,None,None,None,None,None,None,None,None,None,,,,,,,,,,,ST02_112522,2022-11-25_14h18.28.134,Hippopolis_Learning,2021.1.4,60.21132973258861,
Hippopolis,stimuli/subj_files/ST02_112522_cityA.csv,./stimuli/seattle.jpg,./stimuli/street_plate1.png,VITORLA UTCA,stimuli/objects/027a.jpg,object,2,stimuli/scenes/094a.jpg,stimuli/objects/056a.jpg,stimuli/scenes/094a.jpg,stimuli/objects/056b.jpg,stimuli/scenes/094b.jpg,dist1,target,dist2,lure,0,0,0,0,,,,,0,36,36,17,,,,,,,,,,,827.6911019000108,None,,,,,,,,,,,,,,,,,,,,,825.1748151000065,None,825.1748151000065,None,825.1748151000065,None,825.1748151000065,None,left,2.494464200019138,825.1748151000065,None,825.1748151000065,None,None,None,None,None,None,None,None,None,None,None,None,,,,,,,,,,,ST02_112522,2022-11-25_14h18.28.134,Hippopolis_Learning,2021.1.4,60.21132973258861,
Hippopolis,stimuli/subj_files/ST02_112522_cityA.csv,./stimuli/seattle.jpg,./stimuli/street_plate1.png,TÁSKA UTCA,stimuli/scenes/049a.jpg,scene,1,stimuli/scenes/112a.jpg,stimuli/objects/030b.jpg,stimuli/objects/030a.jpg,stimuli/scenes/112a.jpg,stimuli/scenes/112b.jpg,dist2,dist1,target,lure,0,0,0,0,,,,,0,37,37,9,,,,,,,,,,,840.5068384000042,None,,,,,,,,,,,,,,,,,,,,,828.6910695999977,None,828.6910695999977,None,828.6910695999977,None,828.6910695999977,None,right,3.1465426000067964,828.6910695999977,None,828.6910695999977,None,831.8575425000163,None,831.8575425000163,None,831.8575425000163,None,831.8575425000163,None,space,831.8575425000163,None,8.618963000015356,,,,,,,,,,ST02_112522,2022-11-25_14h18.28.134,Hippopolis_Learning,2021.1.4,60.21132973258861,
Hippopolis,stimuli/subj_files/ST02_112522_cityA.csv,./stimuli/seattle.jpg,./stimuli/street_plate1.png,SZŐNYEG UTCA,stimuli/scenes/036a.jpg,scene,0,stimuli/scenes/036a.jpg,stimuli/scenes/007a.jpg,stimuli/scenes/036a.jpg,stimuli/scenes/036b.jpg,stimuli/scenes/007b.jpg,dist1,target,lure,dist2,0,0,0,0,,,,,0,38,38,26,,,,,,,,,,,843.2572598000115,None,,,,,,,,,,,,,,,,,,,,,841.5071891999978,None,841.5071891999978,None,841.5071891999978,None,841.5071891999978,None,left,1.7310412999941036,841.5071891999978,None,841.5071891999978,None,None,None,None,None,None,None,None,None,None,None,None,,,,,,,,,,,ST02_112522,2022-11-25_14h18.28.134,Hippopolis_Learning,2021.1.4,60.21132973258861,
Hippopolis,stimuli/subj_files/ST02_112522_cityA.csv,./stimuli/seattle.jpg,./stimuli/street_plate1.png,HARMONIKA UTCA,stimuli/objects/023a.jpg,object,1,stimuli/objects/090a.jpg,stimuli/objects/090a.jpg,stimuli/objects/092b.jpg,stimuli/objects/092a.jpg,stimuli/objects/090b.jpg,target,dist2,dist1,lure,0,0,0,0,,,,,0,39,39,25,,,,,,,,,,,846.3069185000204,None,,,,,,,,,,,,,,,,,,,,,844.2580337999971,None,844.2580337999971,None,844.2580337999971,None,844.2580337999971,None,left,2.0180394000199158,844.2580337999971,None,844.2580337999971,None,None,None,None,None,None,None,None,None,None,None,None,,,,,,,,,,,ST02_112522,2022-11-25_14h18.28.134,Hippopolis_Learning,2021.1.4,60.21132973258861,
Hippopolis,stimuli/subj_files/ST02_112522_cityA.csv,./stimuli/seattle.jpg,./stimuli/street_plate1.png,ÁLOM UTCA,stimuli/scenes/083a.jpg,scene,0,stimuli/scenes/083a.jpg,stimuli/objects/031b.jpg,stimuli/scenes/083b.jpg,stimuli/objects/031a.jpg,stimuli/scenes/083a.jpg,dist2,lure,dist1,target,0,0,0,0,,,,,0,40,40,30,,,,,,,,,,,848.7742633000016,None,,,,,,,,,,,,,,,,,,,,,847.3070583000081,None,847.3070583000081,None,847.3070583000081,None,847.3070583000081,None,left,1.4376710000215098,847.3070583000081,None,847.3070583000081,None,None,None,None,None,None,None,None,None,None,None,None,,,,,,,,,,,ST02_112522,2022-11-25_14h18.28.134,Hippopolis_Learning,2021.1.4,60.21132973258861,
Hippopolis,stimuli/subj_files/ST02_112522_cityA.csv,./stimuli/seattle.jpg,./stimuli/street_plate1.png,AKÁC UTCA,stimuli/scenes/063a.jpg,scene,1,stimuli/scenes/071a.jpg,stimuli/scenes/071a.jpg,stimuli/scenes/071b.jpg,stimuli/scenes/091b.jpg,stimuli/scenes/091a.jpg,target,lure,dist2,dist1,0,0,0,0,,,,,0,41,41,50,,,,,,,,,,,851.5739580999943,None,,,,,,,,,,,,,,,,,,,,,849.7744237000006,None,849.7744237000006,None,849.7744237000006,None,849.7744237000006,None,left,1.7669059000036214,849.7744237000006,None,849.7744237000006,None,None,None,None,None,None,None,None,None,None,None,None,,,,,,,,,,,ST02_112522,2022-11-25_14h18.28.134,Hippopolis_Learning,2021.1.4,60.21132973258861,
Hippopolis,stimuli/subj_files/ST02_112522_cityA.csv,./stimuli/seattle.jpg,./stimuli/street_plate1.png,TRIATLON UTCA,stimuli/scenes/006a.jpg,scene,2,stimuli/objects/103a.jpg,stimuli/objects/103b.jpg,stimuli/scenes/041a.jpg,stimuli/objects/103a.jpg,stimuli/scenes/041b.jpg,lure,dist1,target,dist2,0,0,0,0,,,,,0,42,42,31,,,,,,,,,,,854.5071839000157,None,,,,,,,,,,,,,,,,,,,,,852.5744203000213,None,852.5744203000213,None,852.5744203000213,None,852.5744203000213,None,right,1.908285600016825,852.5744203000213,None,852.5744203000213,None,None,None,None,None,None,None,None,None,None,None,None,,,,,,,,,,,ST02_112522,2022-11-25_14h18.28.134,Hippopolis_Learning,2021.1.4,60.21132973258861,
Hippopolis,stimuli/subj_files/ST02_112522_cityA.csv,./stimuli/seattle.jpg,./stimuli/street_plate1.png,MARTINI UTCA,stimuli/scenes/078a.jpg,scene,1,stimuli/scenes/080a.jpg,stimuli/scenes/080a.jpg,stimuli/scenes/080b.jpg,stimuli/scenes/106b.jpg,stimuli/scenes/106a.jpg,target,lure,dist2,dist1,0,0,0,0,,,,,0,43,43,45,,,,,,,,,,,858.0401351000182,None,,,,,,,,,,,,,,,,,,,,,855.5072722000186,None,855.5072722000186,None,855.5072722000186,None,855.5072722000186,None,right,2.501571900007548,855.5072722000186,None,855.5072722000186,None,None,None,None,None,None,None,None,None,None,None,None,,,,,,,,,,,ST02_112522,2022-11-25_14h18.28.134,Hippopolis_Learning,2021.1.4,60.21132973258861,
Hippopolis,stimuli/subj_files/ST02_112522_cityA.csv,./stimuli/seattle.jpg,./stimuli/street_plate1.png,VÖDÖR UTCA,stimuli/scenes/016a.jpg,scene,0,stimuli/scenes/016a.jpg,stimuli/objects/054b.jpg,stimuli/objects/054a.jpg,stimuli/scenes/016b.jpg,stimuli/scenes/016a.jpg,dist2,dist1,lure,target,0,0,0,0,,,,,0,44,44,8,,,,,,,,,,,860.3566981000185,None,,,,,,,,,,,,,,,,,,,,,859.0409800000198,None,859.0409800000198,None,859.0409800000198,None,859.0409800000198,None,left,1.283658500004094,859.0409800000198,None,859.0409800000198,None,None,None,None,None,None,None,None,None,None,None,None,,,,,,,,,,,ST02_112522,2022-11-25_14h18.28.134,Hippopolis_Learning,2021.1.4,60.21132973258861,
Hippopolis,stimuli/subj_files/ST02_112522_cityA.csv,./stimuli/seattle.jpg,./stimuli/street_plate1.png,SAJTÓ UTCA,stimuli/objects/102a.jpg,object,1,stimuli/objects/051a.jpg,stimuli/objects/108b.jpg,stimuli/objects/051a.jpg,stimuli/objects/051b.jpg,stimuli/objects/108a.jpg,dist2,target,lure,dist1,0,0,0,0,,,,,0,45,45,13,,,,,,,,,,,862.8734526000044,None,,,,,,,,,,,,,,,,,,,,,861.3571416000195,None,861.3571416000195,None,861.3571416000195,None,861.3571416000195,None,left,1.4969661999784876,861.3571416000195,None,861.3571416000195,None,None,None,None,None,None,None,None,None,None,None,None,,,,,,,,,,,ST02_112522,2022-11-25_14h18.28.134,Hippopolis_Learning,2021.1.4,60.21132973258861,
Hippopolis,stimuli/subj_files/ST02_112522_cityA.csv,./stimuli/seattle.jpg,./stimuli/street_plate1.png,ORVOS UTCA,stimuli/scenes/060a.jpg,scene,0,stimuli/scenes/060a.jpg,stimuli/scenes/060b.jpg,stimuli/scenes/060a.jpg,stimuli/scenes/060a.jpg,stimuli/scenes/060b.jpg,lure,dist1,target,dist2,0,0,0,0,,,,,0,46,46,20,,,,,,,,,,,865.1736289999972,None,,,,,,,,,,,,,,,,,,,,,863.8736138000095,None,863.8736138000095,None,863.8736138000095,None,863.8736138000095,None,right,1.2678258999949321,863.8736138000095,None,863.8736138000095,None,None,None,None,None,None,None,None,None,None,None,None,,,,,,,,,,,ST02_112522,2022-11-25_14h18.28.134,Hippopolis_Learning,2021.1.4,60.21132973258861,
Hippopolis,stimuli/subj_files/ST02_112522_cityA.csv,./stimuli/seattle.jpg,./stimuli/street_plate1.png,KIRAKÓ UTCA,stimuli/objects/024a.jpg,object,2,stimuli/scenes/047a.jpg,stimuli/objects/068a.jpg,stimuli/scenes/047b.jpg,stimuli/objects/068b.jpg,stimuli/scenes/047a.jpg,dist1,lure,dist2,target,0,0,0,0,,,,,0,47,47,19,,,,,,,,,,,867.5564256999933,None,,,,,,,,,,,,,,,,,,,,,866.1742384000099,None,866.1742384000099,None,866.1742384000099,None,866.1742384000099,None,left,1.3568976999958977,866.1742384000099,None,866.1742384000099,None,None,None,None,None,None,None,None,None,None,None,None,,,,,,,,,,,ST02_112522,2022-11-25_14h18.28.134,Hippopolis_Learning,2021.1.4,60.21132973258861,
Hippopolis,stimuli/subj_files/ST02_112522_cityA.csv,./stimuli/seattle.jpg,./stimuli/street_plate1.png,EGÉR UTCA,stimuli/scenes/120a.jpg,scene,0,stimuli/scenes/120a.jpg,stimuli/scenes/056b.jpg,stimuli/scenes/120a.jpg,stimuli/scenes/056a.jpg,stimuli/scenes/120b.jpg,dist2,target,dist1,lure,0,0,0,0,,,,,0,48,48,35,,,,,,,,,,,870.039866200008,None,,,,,,,,,,,,,,,,,,,,,868.5574197999958,None,868.5574197999958,None,868.5574197999958,None,868.5574197999958,None,left,1.4621892000141088,868.5574197999958,None,868.5574197999958,None,None,None,None,None,None,None,None,None,None,None,None,,,,,,,,,,,ST02_112522,2022-11-25_14h18.28.134,Hippopolis_Learning,2021.1.4,60.21132973258861,
Hippopolis,stimuli/subj_files/ST02_112522_cityA.csv,./stimuli/seattle.jpg,./stimuli/street_plate1.png,SZILVA UTCA,stimuli/objects/045a.jpg,object,1,stimuli/objects/092a.jpg,stimuli/objects/092b.jpg,stimuli/objects/097b.jpg,stimuli/objects/092a.jpg,stimuli/objects/097a.jpg,lure,dist2,target,dist1,0,0,0,0,,,,,0,49,49,0,,,,,,,,,,,873.6731132999994,None,,,,,,,,,,,,,,,,,,,,,871.0402162999962,None,871.0402162999962,None,871.0402162999962,None,871.0402162999962,None,left,2.6163518000103068,871.0402162999962,None,871.0402162999962,None,None,None,None,None,None,None,None,None,None,None,None,,,,,,,,,,,ST02_112522,2022-11-25_14h18.28.134,Hippopolis_Learning,2021.1.4,60.21132973258861,
Hippopolis,stimuli/subj_files/ST02_112522_cityA.csv,./stimuli/seattle.jpg,./stimuli/street_plate1.png,MUNKA UTCA,stimuli/scenes/004a.jpg,scene,2,stimuli/objects/022a.jpg,stimuli/objects/022b.jpg,stimuli/objects/022a.jpg,stimuli/scenes/051a.jpg,stimuli/scenes/051b.jpg,lure,target,dist1,dist2,0,0,0,0,,,,,0,50,50,58,,,,,,,,,,,877.3567896000168,None,,,,,,,,,,,,,,,,,,,,,874.6737398999976,None,874.6737398999976,None,874.6737398999976,None,874.6737398999976,None,right,2.658506599982502,874.6737398999976,None,874.6737398999976,None,None,None,None,None,None,None,None,None,None,None,None,,,,,,,,,,,ST02_112522,2022-11-25_14h18.28.134,Hippopolis_Learning,2021.1.4,60.21132973258861,
Hippopolis,stimuli/subj_files/ST02_112522_cityA.csv,./stimuli/seattle.jpg,./stimuli/street_plate1.png,SZAPPAN UTCA,stimuli/objects/011a.jpg,object,0,stimuli/objects/011a.jpg,stimuli/objects/011b.jpg,stimuli/scenes/010a.jpg,stimuli/scenes/010b.jpg,stimuli/objects/011a.jpg,lure,dist1,dist2,target,0,0,0,0,,,,,0,51,51,76,,,,,,,,,,,880.3235541000031,None,,,,,,,,,,,,,,,,,,,,,878.3573562999954,None,878.3573562999954,None,878.3573562999954,None,878.3573562999954,None,left,1.9348174999759067,878.3573562999954,None,878.3573562999954,None,None,None,None,None,None,None,None,None,None,None,None,,,,,,,,,,,ST02_112522,2022-11-25_14h18.28.134,Hippopolis_Learning,2021.1.4,60.21132973258861,
Hippopolis,stimuli/subj_files/ST02_112522_cityA.csv,./stimuli/seattle.jpg,./stimuli/street_plate1.png,KULLANCS UTCA,stimuli/scenes/057a.jpg,scene,1,stimuli/scenes/066a.jpg,stimuli/scenes/080a.jpg,stimuli/scenes/066b.jpg,stimuli/scenes/080b.jpg,stimuli/scenes/066a.jpg,dist1,lure,dist2,target,0,0,0,0,,,,,0,52,52,71,,,,,,,,,,,883.3562048000167,None,,,,,,,,,,,,,,,,,,,,,881.3234545000014,None,881.3234545000014,None,881.3234545000014,None,881.3234545000014,None,left,2.006725400016876,881.3234545000014,None,881.3234545000014,None,None,None,None,None,None,None,None,None,None,None,None,,,,,,,,,,,ST02_112522,2022-11-25_14h18.28.134,Hippopolis_Learning,2021.1.4,60.21132973258861,
Hippopolis,stimuli/subj_files/ST02_112522_cityA.csv,./stimuli/seattle.jpg,./stimuli/street_plate1.png,GYŰRŰ UTCA,stimuli/objects/012a.jpg,object,1,stimuli/objects/019a.jpg,stimuli/objects/019a.jpg,stimuli/objects/019b.jpg,stimuli/scenes/013b.jpg,stimuli/scenes/013a.jpg,target,lure,dist2,dist1,0,0,0,0,,,,,0,53,53,28,,,,,,,,,,,886.7730463000189,None,,,,,,,,,,,,,,,,,,,,,884.3572835999948,None,884.3572835999948,None,884.3572835999948,None,884.3572835999948,None,right,2.3850761000066996,884.3572835999948,None,884.3572835999948,None,None,None,None,None,None,None,None,None,None,None,None,,,,,,,,,,,ST02_112522,2022-11-25_14h18.28.134,Hippopolis_Learning,2021.1.4,60.21132973258861,
Hippopolis,stimuli/subj_files/ST02_112522_cityA.csv,./stimuli/seattle.jpg,./stimuli/street_plate1.png,VASALÓ UTCA,stimuli/objects/057a.jpg,object,0,stimuli/objects/057a.jpg,stimuli/scenes/016b.jpg,stimuli/objects/057b.jpg,stimuli/scenes/016a.jpg,stimuli/objects/057a.jpg,dist2,lure,dist1,target,0,0,0,0,,,,,0,54,54,64,,,,,,,,,,,889.5897803000116,None,,,,,,,,,,,,,,,,,,,,,887.7739198000054,None,887.7739198000054,None,887.7739198000054,None,887.7739198000054,None,left,1.7969501999905333,887.7739198000054,None,887.7739198000054,None,None,None,None,None,None,None,None,None,None,None,None,,,,,,,,,,,ST02_112522,2022-11-25_14h18.28.134,Hippopolis_Learning,2021.1.4,60.21132973258861,
Hippopolis,stimuli/subj_files/ST02_112522_cityA.csv,./stimuli/seattle.jpg,./stimuli/street_plate1.png,KRÉTA UTCA,stimuli/scenes/119a.jpg,scene,0,stimuli/scenes/119a.jpg,stimuli/objects/035b.jpg,stimuli/scenes/119b.jpg,stimuli/objects/035a.jpg,stimuli/scenes/119a.jpg,dist2,lure,dist1,target,0,0,0,0,,,,,0,55,55,79,,,,,,,,,,,892.4064050000161,None,,,,,,,,,,,,,,,,,,,,,890.5902876000036,None,890.5902876000036,None,890.5902876000036,None,890.5902876000036,None,left,1.7954639999952633,890.5902876000036,None,890.5902876000036,None,None,None,None,None,None,None,None,None,None,None,None,,,,,,,,,,,ST02_112522,2022-11-25_14h18.28.134,Hippopolis_Learning,2021.1.4,60.21132973258861,
Hippopolis,stimuli/subj_files/ST02_112522_cityA.csv,./stimuli/seattle.jpg,./stimuli/street_plate1.png,TOJÁS UTCA,stimuli/scenes/001a.jpg,scene,2,stimuli/objects/072a.jpg,stimuli/scenes/108b.jpg,stimuli/scenes/108a.jpg,stimuli/objects/072a.jpg,stimuli/objects/072b.jpg,dist2,dist1,target,lure,0,0,0,0,,,,,0,56,56,65,,,,,,,,,,,895.6898947000154,None,,,,,,,,,,,,,,,,,,,,,893.407000200008,None,893.407000200008,None,893.407000200008,None,893.407000200008,None,left,2.2640147999918554,893.407000200008,None,893.407000200008,None,None,None,None,None,None,None,None,None,None,None,None,,,,,,,,,,,ST02_112522,2022-11-25_14h18.28.134,Hippopolis_Learning,2021.1.4,60.21132973258861,
Hippopolis,stimuli/subj_files/ST02_112522_cityA.csv,./stimuli/seattle.jpg,./stimuli/street_plate1.png,TELEFON UTCA,stimuli/objects/113a.jpg,object,2,stimuli/scenes/088a.jpg,stimuli/scenes/088b.jpg,stimuli/scenes/094b.jpg,stimuli/scenes/094a.jpg,stimuli/scenes/088a.jpg,lure,dist2,dist1,target,0,0,0,0,,,,,0,57,57,7,,,,,,,,,,,898.3225794000027,None,,,,,,,,,,,,,,,,,,,,,896.6898420999933,None,896.6898420999933,None,896.6898420999933,None,896.6898420999933,None,left,1.6053200000023935,896.6898420999933,None,896.6898420999933,None,None,None,None,None,None,None,None,None,None,None,None,,,,,,,,,,,ST02_112522,2022-11-25_14h18.28.134,Hippopolis_Learning,2021.1.4,60.21132973258861,
Hippopolis,stimuli/subj_files/ST02_112522_cityA.csv,./stimuli/seattle.jpg,./stimuli/street_plate1.png,FÜGE UTCA,stimuli/objects/080a.jpg,object,1,stimuli/objects/030a.jpg,stimuli/objects/030b.jpg,stimuli/objects/030a.jpg,stimuli/objects/070a.jpg,stimuli/objects/070b.jpg,lure,target,dist1,dist2,0,0,0,0,,,,,0,58,58,22,,,,,,,,,,,901.3396574000071,None,,,,,,,,,,,,,,,,,,,,,899.3238061000011,None,899.3238061000011,None,899.3238061000011,None,899.3238061000011,None,right,1.9982880000025034,899.3238061000011,None,899.3238061000011,None,None,None,None,None,None,None,None,None,None,None,None,,,,,,,,,,,ST02_112522,2022-11-25_14h18.28.134,Hippopolis_Learning,2021.1.4,60.21132973258861,
Hippopolis,stimuli/subj_files/ST02_112522_cityA.csv,./stimuli/seattle.jpg,./stimuli/street_plate1.png,PÉKSÉG UTCA,stimuli/scenes/014a.jpg,scene,1,stimuli/scenes/020a.jpg,stimuli/scenes/104a.jpg,stimuli/scenes/104b.jpg,stimuli/scenes/020a.jpg,stimuli/scenes/020b.jpg,dist1,dist2,target,lure,0,0,0,0,,,,,0,59,59,52,,,,,,,,,,,906.3392127999978,None,,,,,,,,,,,,,,,,,,,,,902.3400634000136,None,902.3400634000136,None,902.3400634000136,None,902.3400634000136,None,None,,902.3400634000136,None,902.3400634000136,None,None,None,None,None,None,None,None,None,None,None,None,,,,,,,,,,,ST02_112522,2022-11-25_14h18.28.134,Hippopolis_Learning,2021.1.4,60.21132973258861,
Hippopolis,stimuli/subj_files/ST02_112522_cityA.csv,./stimuli/seattle.jpg,./stimuli/street_plate1.png,SZIKLA UTCA,stimuli/scenes/055a.jpg,scene,1,stimuli/scenes/029a.jpg,stimuli/objects/090a.jpg,stimuli/objects/090b.jpg,stimuli/scenes/029b.jpg,stimuli/scenes/029a.jpg,dist1,dist2,lure,target,0,0,0,0,,,,,0,60,60,4,,,,,,,,,,,909.2896715000097,None,,,,,,,,,,,,,,,,,,,,,907.34016230001,None,907.34016230001,None,907.34016230001,None,907.34016230001,None,left,1.9191059000149835,907.34016230001,None,907.34016230001,None,None,None,None,None,None,None,None,None,None,None,None,,,,,,,,,,,ST02_112522,2022-11-25_14h18.28.134,Hippopolis_Learning,2021.1.4,60.21132973258861,
Hippopolis,stimuli/subj_files/ST02_112522_cityA.csv,./stimuli/seattle.jpg,./stimuli/street_plate1.png,HAJÓ UTCA,stimuli/scenes/032a.jpg,scene,2,stimuli/objects/056a.jpg,stimuli/scenes/088b.jpg,stimuli/scenes/088a.jpg,stimuli/objects/056a.jpg,stimuli/objects/056b.jpg,dist2,dist1,target,lure,0,0,0,0,,,,,0,61,61,34,,,,,,,,,,,912.2563282000192,None,,,,,,,,,,,,,,,,,,,,,910.2899691000057,None,910.2899691000057,None,910.2899691000057,None,910.2899691000057,None,left,1.9468811000115238,910.2899691000057,None,910.2899691000057,None,None,None,None,None,None,None,None,None,None,None,None,,,,,,,,,,,ST02_112522,2022-11-25_14h18.28.134,Hippopolis_Learning,2021.1.4,60.21132973258861,
Hippopolis,stimuli/subj_files/ST02_112522_cityA.csv,./stimuli/seattle.jpg,./stimuli/street_plate1.png,BOHÓC UTCA,stimuli/objects/120a.jpg,object,2,stimuli/scenes/079a.jpg,stimuli/scenes/038b.jpg,stimuli/scenes/079a.jpg,stimuli/scenes/038a.jpg,stimuli/scenes/079b.jpg,dist2,target,dist1,lure,0,0,0,0,,,,,0,62,62,36,,,,,,,,,,,915.4389090000186,None,,,,,,,,,,,,,,,,,,,,,913.2563363999943,None,913.2563363999943,None,913.2563363999943,None,913.2563363999943,None,left,2.1583527000038885,913.2563363999943,None,913.2563363999943,None,None,None,None,None,None,None,None,None,None,None,None,,,,,,,,,,,ST02_112522,2022-11-25_14h18.28.134,Hippopolis_Learning,2021.1.4,60.21132973258861,
Hippopolis,stimuli/subj_files/ST02_112522_cityA.csv,./stimuli/seattle.jpg,./stimuli/street_plate1.png,KOKTÉL UTCA,stimuli/scenes/010a.jpg,scene,0,stimuli/scenes/010a.jpg,stimuli/scenes/010a.jpg,stimuli/objects/079a.jpg,stimuli/scenes/010b.jpg,stimuli/objects/079b.jpg,target,dist1,lure,dist2,0,0,0,0,,,,,0,63,63,62,,,,,,,,,,,919.1892881999956,None,,,,,,,,,,,,,,,,,,,,,916.4397973000014,None,916.4397973000014,None,916.4397973000014,None,916.4397973000014,None,left,2.717409200005932,916.4397973000014,None,916.4397973000014,None,None,None,None,None,None,None,None,None,None,None,None,,,,,,,,,,,ST02_112522,2022-11-25_14h18.28.134,Hippopolis_Learning,2021.1.4,60.21132973258861,
Hippopolis,stimuli/subj_files/ST02_112522_cityA.csv,./stimuli/seattle.jpg,./stimuli/street_plate1.png,KÍGYÓ UTCA,stimuli/scenes/117a.jpg,scene,0,stimuli/scenes/117a.jpg,stimuli/objects/020b.jpg,stimuli/scenes/117b.jpg,stimuli/objects/020a.jpg,stimuli/scenes/117a.jpg,dist2,lure,dist1,target,0,0,0,0,,,,,0,64,64,5,,,,,,,,,,,922.5056740000146,None,,,,,,,,,,,,,,,,,,,,,920.1892891000025,None,920.1892891000025,None,920.1892891000025,None,920.1892891000025,None,right,2.2859829000080936,920.1892891000025,None,920.1892891000025,None,None,None,None,None,None,None,None,None,None,None,None,,,,,,,,,,,ST02_112522,2022-11-25_14h18.28.134,Hippopolis_Learning,2021.1.4,60.21132973258861,
Hippopolis,stimuli/subj_files/ST02_112522_cityA.csv,./stimuli/seattle.jpg,./stimuli/street_plate1.png,HEGESZTŐ UTCA,stimuli/objects/053a.jpg,object,2,stimuli/scenes/051a.jpg,stimuli/scenes/051a.jpg,stimuli/scenes/046b.jpg,stimuli/scenes/046a.jpg,stimuli/scenes/051b.jpg,target,dist2,dist1,lure,0,0,0,0,,,,,0,65,65,10,,,,,,,,,,,925.4727160000184,None,,,,,,,,,,,,,,,,,,,,,923.5061593000137,None,923.5061593000137,None,923.5061593000137,None,923.5061593000137,None,left,1.9384883000166155,923.5061593000137,None,923.5061593000137,None,None,None,None,None,None,None,None,None,None,None,None,,,,,,,,,,,ST02_112522,2022-11-25_14h18.28.134,Hippopolis_Learning,2021.1.4,60.21132973258861,
Hippopolis,stimuli/subj_files/ST02_112522_cityA.csv,./stimuli/seattle.jpg,./stimuli/street_plate1.png,ZONGORA UTCA,stimuli/scenes/056a.jpg,scene,0,stimuli/scenes/056a.jpg,stimuli/objects/011a.jpg,stimuli/scenes/056b.jpg,stimuli/objects/011b.jpg,stimuli/scenes/056a.jpg,dist1,lure,dist2,target,0,0,0,0,,,,,0,66,66,37,,,,,,,,,,,928.3055068000103,None,,,,,,,,,,,,,,,,,,,,,926.4729711000109,None,926.4729711000109,None,926.4729711000109,None,926.4729711000109,None,left,1.8153190000157338,926.4729711000109,None,926.4729711000109,None,None,None,None,None,None,None,None,None,None,None,None,,,,,,,,,,,ST02_112522,2022-11-25_14h18.28.134,Hippopolis_Learning,2021.1.4,60.21132973258861,
Hippopolis,stimuli/subj_files/ST02_112522_cityA.csv,./stimuli/seattle.jpg,./stimuli/street_plate1.png,PADLÓ UTCA,stimuli/scenes/062a.jpg,scene,2,stimuli/objects/028a.jpg,stimuli/objects/028a.jpg,stimuli/objects/028b.jpg,stimuli/objects/103b.jpg,stimuli/objects/103a.jpg,target,lure,dist2,dist1,0,0,0,0,,,,,0,67,67,32,,,,,,,,,,,931.2226263000048,None,,,,,,,,,,,,,,,,,,,,,929.3059114000062,None,929.3059114000062,None,929.3059114000062,None,929.3059114000062,None,left,1.885666799993487,929.3059114000062,None,929.3059114000062,None,None,None,None,None,None,None,None,None,None,None,None,,,,,,,,,,,ST02_112522,2022-11-25_14h18.28.134,Hippopolis_Learning,2021.1.4,60.21132973258861,
Hippopolis,stimuli/subj_files/ST02_112522_cityA.csv,./stimuli/seattle.jpg,./stimuli/street_plate1.png,SZOMSZÉD UTCA,stimuli/scenes/017a.jpg,scene,1,stimuli/scenes/013a.jpg,stimuli/scenes/015a.jpg,stimuli/scenes/015b.jpg,stimuli/scenes/013b.jpg,stimuli/scenes/013a.jpg,dist1,dist2,lure,target,0,0,0,0,,,,,0,68,68,12,,,,,,,,,,,933.4219388000201,None,,,,,,,,,,,,,,,,,,,,,932.2230409000185,None,932.2230409000185,None,932.2230409000185,None,932.2230409000185,None,left,1.1747691000055056,932.2230409000185,None,932.2230409000185,None,None,None,None,None,None,None,None,None,None,None,None,,,,,,,,,,,ST02_112522,2022-11-25_14h18.28.134,Hippopolis_Learning,2021.1.4,60.21132973258861,
Hippopolis,stimuli/subj_files/ST02_112522_cityA.csv,./stimuli/seattle.jpg,./stimuli/street_plate1.png,KÖMÉNYMAG UTCA,stimuli/objects/026a.jpg,object,2,stimuli/scenes/108a.jpg,stimuli/scenes/108b.jpg,stimuli/objects/006b.jpg,stimuli/scenes/108a.jpg,stimuli/objects/006a.jpg,lure,dist2,target,dist1,0,0,0,0,,,,,0,69,69,14,,,,,,,,,,,935.7552892999956,None,,,,,,,,,,,,,,,,,,,,,934.4224987000052,None,934.4224987000052,None,934.4224987000052,None,934.4224987000052,None,left,1.3011584000196308,934.4224987000052,None,934.4224987000052,None,None,None,None,None,None,None,None,None,None,None,None,,,,,,,,,,,ST02_112522,2022-11-25_14h18.28.134,Hippopolis_Learning,2021.1.4,60.21132973258861,
Hippopolis,stimuli/subj_files/ST02_112522_cityA.csv,./stimuli/seattle.jpg,./stimuli/street_plate1.png,ASZTAL UTCA,stimuli/scenes/072a.jpg,scene,2,stimuli/objects/001a.jpg,stimuli/objects/001a.jpg,stimuli/scenes/079b.jpg,stimuli/scenes/079a.jpg,stimuli/objects/001b.jpg,target,dist2,dist1,lure,0,0,0,0,,,,,0,70,70,42,,,,,,,,,,,938.2891041999974,None,,,,,,,,,,,,,,,,,,,,,936.7562371999957,None,936.7562371999957,None,936.7562371999957,None,936.7562371999957,None,left,1.504228800011333,936.7562371999957,None,936.7562371999957,None,None,None,None,None,None,None,None,None,None,None,None,,,,,,,,,,,ST02_112522,2022-11-25_14h18.28.134,Hippopolis_Learning,2021.1.4,60.21132973258861,
Hippopolis,stimuli/subj_files/ST02_112522_cityA.csv,./stimuli/seattle.jpg,./stimuli/street_plate1.png,KORONG UTCA,stimuli/objects/046a.jpg,object,1,stimuli/objects/099a.jpg,stimuli/objects/099a.jpg,stimuli/objects/099b.jpg,stimuli/objects/062a.jpg,stimuli/objects/062b.jpg,target,lure,dist1,dist2,0,0,0,0,,,,,0,71,71,53,,,,,,,,,,,942.8723750000063,None,,,,,,,,,,,,,,,,,,,,,939.2894239000161,None,939.2894239000161,None,939.2894239000161,None,939.2894239000161,None,left,3.5580829000100493,939.2894239000161,None,939.2894239000161,None,None,None,None,None,None,None,None,None,None,None,None,,,,,,,,,,,ST02_112522,2022-11-25_14h18.28.134,Hippopolis_Learning,2021.1.4,60.21132973258861,
Hippopolis,stimuli/subj_files/ST02_112522_cityA.csv,./stimuli/seattle.jpg,./stimuli/street_plate1.png,HARCSA UTCA,stimuli/objects/098a.jpg,object,2,stimuli/scenes/090a.jpg,stimuli/scenes/090b.jpg,stimuli/scenes/090a.jpg,stimuli/scenes/110a.jpg,stimuli/scenes/110b.jpg,lure,target,dist1,dist2,0,0,0,0,,,,,0,72,72,78,,,,,,,,,,,945.2889068000077,None,,,,,,,,,,,,,,,,,,,,,943.8722837000096,None,943.8722837000096,None,943.8722837000096,None,943.8722837000096,None,left,1.3968883999914397,943.8722837000096,None,943.8722837000096,None,None,None,None,None,None,None,None,None,None,None,None,,,,,,,,,,,ST02_112522,2022-11-25_14h18.28.134,Hippopolis_Learning,2021.1.4,60.21132973258861,
