CityName,StimuliFile,CityImage,StreetSign,VideoFile,Cue,Image,Category,Novelty,UpdateImage,TestImage1,TestImage2,TestImage3,TestImage4,TestImage1Type,TestImage2Type,TestImage3Type,TestImage4Type,CityBlock.thisRepN,CityBlock.thisTrialN,CityBlock.thisN,CityBlock.thisIndex,LearningTrials.thisRepN,LearningTrials.thisTrialN,LearningTrials.thisN,LearningTrials.thisIndex,learning_instructions_text.started,intro_key.started,intro_key.keys,intro_key.rt,cityname_text.started,city_image.started,fx_cross.started,plate.started,city_text.started,street_text.started,fx_cross_prediction.started,plate_updating.started,city_text_updating.started,street_text_updating.started,updating_image.started,short_break_key.keys,fx_cross.stopped,short_break_text.started,short_break_key.started,short_break_key.rt,break_text.started,break_key_resp.started,break_key_resp.keys,break_key_resp.rt,end_text.started,participant,date,expName,psychopyVersion,frameRate,
,,,,,,,,,,,,,,,,,,,,,,,,,,25.444548493251204,25.444548493251204,space,29.51951947249472,,,,,,,,,,,,,,,,,,,,,,ST02_112822,2022-11-29_11h51.19.781,Hippopolis_Updating,2022.2.2,59.89490256945426,
Hippopolis,stimuli/subj_files/ST02_112822_cityA.csv,./stimuli/seattle.jpg,./stimuli/street_plate1.png,./stimuli/videos/hippopolis_part1.mp4,BÚJÓCSKA UTCA,stimuli/scenes/027a.jpg,scene,1,stimuli/scenes/003a.jpg,stimuli/scenes/003a.jpg,stimuli/objects/038a.jpg,stimuli/scenes/003b.jpg,stimuli/objects/038b.jpg,target,dist1,lure,dist2,0,0,0,0,0,0,0,33,,,,,55.02911206521094,55.02911206521094,58.00614299811423,59.01239484921098,59.01239484921098,59.01239484921098,59.01239484921098,62.03376689739525,62.03376689739525,62.03376689739525,62.03376689739525,None,,,,,,,,,,ST02_112822,2022-11-29_11h51.19.781,Hippopolis_Updating,2022.2.2,59.89490256945426,
Hippopolis,stimuli/subj_files/ST02_112822_cityA.csv,./stimuli/seattle.jpg,./stimuli/street_plate1.png,./stimuli/videos/hippopolis_part1.mp4,PAPUCS UTCA,stimuli/objects/099a.jpg,object,1,stimuli/objects/115a.jpg,stimuli/objects/115b.jpg,stimuli/objects/103b.jpg,stimuli/objects/103a.jpg,stimuli/objects/115a.jpg,lure,dist2,dist1,target,0,0,0,0,0,1,1,30,,,,,,,64.00207752361894,65.03492663986981,65.03492663986981,65.03492663986981,65.03492663986981,68.04208165407181,68.04208165407181,68.04208165407181,68.04208165407181,None,,,,,,,,,,ST02_112822,2022-11-29_11h51.19.781,Hippopolis_Updating,2022.2.2,59.89490256945426,
Hippopolis,stimuli/subj_files/ST02_112822_cityA.csv,./stimuli/seattle.jpg,./stimuli/street_plate1.png,./stimuli/videos/hippopolis_part1.mp4,ÁLOM UTCA,stimuli/scenes/018a.jpg,scene,2,stimuli/objects/011a.jpg,stimuli/objects/040a.jpg,stimuli/objects/040b.jpg,stimuli/objects/011b.jpg,stimuli/objects/011a.jpg,dist1,dist2,lure,target,0,0,0,0,0,2,2,54,,,,,,,70.01759238727391,71.03546965681016,71.03546965681016,71.03546965681016,71.03546965681016,74.08238777145743,74.08238777145743,74.08238777145743,74.08238777145743,None,,,,,,,,,,ST02_112822,2022-11-29_11h51.19.781,Hippopolis_Updating,2022.2.2,59.89490256945426,
Hippopolis,stimuli/subj_files/ST02_112822_cityA.csv,./stimuli/seattle.jpg,./stimuli/street_plate1.png,./stimuli/videos/hippopolis_part1.mp4,LABDA UTCA,stimuli/scenes/058a.jpg,scene,1,stimuli/scenes/055a.jpg,stimuli/scenes/091b.jpg,stimuli/scenes/091a.jpg,stimuli/scenes/055b.jpg,stimuli/scenes/055a.jpg,dist2,dist1,lure,target,0,0,0,0,0,3,3,75,,,,,,,76.02160250395536,77.03923221305013,77.03923221305013,77.03923221305013,77.03923221305013,80.03743397444487,80.03743397444487,80.03743397444487,80.03743397444487,None,,,,,,,,,,ST02_112822,2022-11-29_11h51.19.781,Hippopolis_Updating,2022.2.2,59.89490256945426,
Hippopolis,stimuli/subj_files/ST02_112822_cityA.csv,./stimuli/seattle.jpg,./stimuli/street_plate1.png,./stimuli/videos/hippopolis_part1.mp4,SAJTÓ UTCA,stimuli/objects/094a.jpg,object,1,stimuli/objects/063a.jpg,stimuli/objects/063b.jpg,stimuli/objects/082a.jpg,stimuli/objects/063a.jpg,stimuli/objects/082b.jpg,lure,dist1,target,dist2,0,0,0,0,0,4,4,44,,,,,,,82.02264872938395,83.0469234008342,83.0469234008342,83.0469234008342,83.0469234008342,86.05631050653756,86.05631050653756,86.05631050653756,86.05631050653756,None,,,,,,,,,,ST02_112822,2022-11-29_11h51.19.781,Hippopolis_Updating,2022.2.2,59.89490256945426,
Hippopolis,stimuli/subj_files/ST02_112822_cityA.csv,./stimuli/seattle.jpg,./stimuli/street_plate1.png,./stimuli/videos/hippopolis_part1.mp4,KOKTÉL UTCA,stimuli/scenes/001a.jpg,scene,2,stimuli/objects/077a.jpg,stimuli/scenes/015a.jpg,stimuli/scenes/015b.jpg,stimuli/objects/077a.jpg,stimuli/objects/077b.jpg,dist1,dist2,target,lure,0,0,0,0,0,5,5,23,,,,,,,88.02733963914216,89.0595698542893,89.0595698542893,89.0595698542893,89.0595698542893,92.0540955197066,92.0540955197066,92.0540955197066,92.0540955197066,None,,,,,,,,,,ST02_112822,2022-11-29_11h51.19.781,Hippopolis_Updating,2022.2.2,59.89490256945426,
Hippopolis,stimuli/subj_files/ST02_112822_cityA.csv,./stimuli/seattle.jpg,./stimuli/street_plate1.png,./stimuli/videos/hippopolis_part1.mp4,ZÁSZLÓ UTCA,stimuli/scenes/010a.jpg,scene,1,stimuli/scenes/084a.jpg,stimuli/objects/005a.jpg,stimuli/objects/005b.jpg,stimuli/scenes/084b.jpg,stimuli/scenes/084a.jpg,dist1,dist2,lure,target,0,0,0,0,0,6,6,3,,,,,,,94.03679858706892,95.05918327346444,95.05918327346444,95.05918327346444,95.05918327346444,98.05711352452636,98.05711352452636,98.05711352452636,98.05711352452636,None,,,,,,,,,,ST02_112822,2022-11-29_11h51.19.781,Hippopolis_Updating,2022.2.2,59.89490256945426,
Hippopolis,stimuli/subj_files/ST02_112822_cityA.csv,./stimuli/seattle.jpg,./stimuli/street_plate1.png,./stimuli/videos/hippopolis_part1.mp4,SZŐNYEG UTCA,stimuli/scenes/062a.jpg,scene,1,stimuli/scenes/111a.jpg,stimuli/scenes/111a.jpg,stimuli/scenes/044a.jpg,stimuli/scenes/111b.jpg,stimuli/scenes/044b.jpg,target,dist1,lure,dist2,0,0,0,0,0,7,7,53,,,,,,,100.04724933579564,101.0786448083818,101.0786448083818,101.0786448083818,101.0786448083818,104.10064446739852,104.10064446739852,104.10064446739852,104.10064446739852,None,,,,,,,,,,ST02_112822,2022-11-29_11h51.19.781,Hippopolis_Updating,2022.2.2,59.89490256945426,
Hippopolis,stimuli/subj_files/ST02_112822_cityA.csv,./stimuli/seattle.jpg,./stimuli/street_plate1.png,./stimuli/videos/hippopolis_part1.mp4,MOTOR UTCA,stimuli/objects/024a.jpg,object,2,stimuli/scenes/004a.jpg,stimuli/scenes/004b.jpg,stimuli/scenes/004a.jpg,stimuli/objects/077b.jpg,stimuli/objects/077a.jpg,lure,target,dist2,dist1,0,0,0,0,0,8,8,48,,,,,,,106.05574758537114,107.08508046343923,107.08508046343923,107.08508046343923,107.08508046343923,110.08005926571786,110.08005926571786,110.08005926571786,110.08005926571786,None,,,,,,,,,,ST02_112822,2022-11-29_11h51.19.781,Hippopolis_Updating,2022.2.2,59.89490256945426,
Hippopolis,stimuli/subj_files/ST02_112822_cityA.csv,./stimuli/seattle.jpg,./stimuli/street_plate1.png,./stimuli/videos/hippopolis_part1.mp4,LEVÉL UTCA,stimuli/scenes/032a.jpg,scene,2,stimuli/objects/098a.jpg,stimuli/objects/098a.jpg,stimuli/objects/003b.jpg,stimuli/objects/003a.jpg,stimuli/objects/098b.jpg,target,dist2,dist1,lure,0,0,0,0,0,9,9,72,,,,,,,112.06596632115543,113.09547336399555,113.09547336399555,113.09547336399555,113.09547336399555,116.120106626302,116.120106626302,116.120106626302,116.120106626302,None,,,,,,,,,,ST02_112822,2022-11-29_11h51.19.781,Hippopolis_Updating,2022.2.2,59.89490256945426,
Hippopolis,stimuli/subj_files/ST02_112822_cityA.csv,./stimuli/seattle.jpg,./stimuli/street_plate1.png,./stimuli/videos/hippopolis_part1.mp4,TOJÁS UTCA,stimuli/scenes/047a.jpg,scene,1,stimuli/scenes/039a.jpg,stimuli/scenes/039b.jpg,stimuli/objects/028a.jpg,stimuli/objects/028b.jpg,stimuli/scenes/039a.jpg,lure,dist1,dist2,target,0,0,0,0,0,10,10,9,,,,,,,118.06944461725652,119.09912457875907,119.09912457875907,119.09912457875907,119.09912457875907,122.08994242735207,122.08994242735207,122.08994242735207,122.08994242735207,None,,,,,,,,,,ST02_112822,2022-11-29_11h51.19.781,Hippopolis_Updating,2022.2.2,59.89490256945426,
Hippopolis,stimuli/subj_files/ST02_112822_cityA.csv,./stimuli/seattle.jpg,./stimuli/street_plate1.png,./stimuli/videos/hippopolis_part1.mp4,AJÁNDÉK UTCA,stimuli/scenes/042a.jpg,scene,2,stimuli/objects/022a.jpg,stimuli/objects/022b.jpg,stimuli/objects/011b.jpg,stimuli/objects/022a.jpg,stimuli/objects/011a.jpg,lure,dist2,target,dist1,0,0,0,0,0,11,11,45,,,,,,,124.08350925892591,125.09239782206714,125.09239782206714,125.09239782206714,125.09239782206714,128.11422176286578,128.11422176286578,128.11422176286578,128.11422176286578,None,,,,,,,,,,ST02_112822,2022-11-29_11h51.19.781,Hippopolis_Updating,2022.2.2,59.89490256945426,
Hippopolis,stimuli/subj_files/ST02_112822_cityA.csv,./stimuli/seattle.jpg,./stimuli/street_plate1.png,./stimuli/videos/hippopolis_part1.mp4,KIRAKÓ UTCA,stimuli/objects/104a.jpg,object,2,stimuli/scenes/059a.jpg,stimuli/objects/108b.jpg,stimuli/scenes/059b.jpg,stimuli/objects/108a.jpg,stimuli/scenes/059a.jpg,dist2,lure,dist1,target,0,0,0,0,0,12,12,4,,,,,,,130.08893787674606,131.11335840821266,131.11335840821266,131.11335840821266,131.11335840821266,134.12177455238998,134.12177455238998,134.12177455238998,134.12177455238998,None,,,,,,,,,,ST02_112822,2022-11-29_11h51.19.781,Hippopolis_Updating,2022.2.2,59.89490256945426,
Hippopolis,stimuli/subj_files/ST02_112822_cityA.csv,./stimuli/seattle.jpg,./stimuli/street_plate1.png,./stimuli/videos/hippopolis_part1.mp4,LIGET UTCA,stimuli/scenes/063a.jpg,scene,2,stimuli/objects/108a.jpg,stimuli/scenes/008a.jpg,stimuli/objects/108b.jpg,stimuli/objects/108a.jpg,stimuli/scenes/008b.jpg,dist1,lure,target,dist2,0,0,0,0,0,13,13,21,,,,,,,136.0969279408455,137.11446559242904,137.11446559242904,137.11446559242904,137.11446559242904,140.1215720884502,140.1215720884502,140.1215720884502,140.1215720884502,None,,,,,,,,,,ST02_112822,2022-11-29_11h51.19.781,Hippopolis_Updating,2022.2.2,59.89490256945426,
Hippopolis,stimuli/subj_files/ST02_112822_cityA.csv,./stimuli/seattle.jpg,./stimuli/street_plate1.png,./stimuli/videos/hippopolis_part1.mp4,TULIPÁN UTCA,stimuli/scenes/094a.jpg,scene,0,stimuli/scenes/094a.jpg,stimuli/scenes/014a.jpg,stimuli/scenes/094b.jpg,stimuli/scenes/014b.jpg,stimuli/scenes/094a.jpg,dist1,lure,dist2,target,0,0,0,0,0,14,14,62,,,,,,,142.1012506186962,143.12559122405946,143.12559122405946,143.12559122405946,143.12559122405946,146.12568172626197,146.12568172626197,146.12568172626197,146.12568172626197,None,,,,,,,,,,ST02_112822,2022-11-29_11h51.19.781,Hippopolis_Updating,2022.2.2,59.89490256945426,
Hippopolis,stimuli/subj_files/ST02_112822_cityA.csv,./stimuli/seattle.jpg,./stimuli/street_plate1.png,./stimuli/videos/hippopolis_part1.mp4,PALACK UTCA,stimuli/objects/014a.jpg,object,2,stimuli/scenes/008a.jpg,stimuli/scenes/059a.jpg,stimuli/scenes/008b.jpg,stimuli/scenes/059b.jpg,stimuli/scenes/008a.jpg,dist1,lure,dist2,target,0,0,0,0,0,15,15,2,,,,,,,148.10519946739078,149.12850317545235,149.12850317545235,149.12850317545235,149.12850317545235,152.1333492770791,152.1333492770791,152.1333492770791,152.1333492770791,None,,,,,,,,,,ST02_112822,2022-11-29_11h51.19.781,Hippopolis_Updating,2022.2.2,59.89490256945426,
Hippopolis,stimuli/subj_files/ST02_112822_cityA.csv,./stimuli/seattle.jpg,./stimuli/street_plate1.png,./stimuli/videos/hippopolis_part1.mp4,HARCSA UTCA,stimuli/objects/047a.jpg,object,2,stimuli/scenes/073a.jpg,stimuli/scenes/023b.jpg,stimuli/scenes/023a.jpg,stimuli/scenes/073b.jpg,stimuli/scenes/073a.jpg,dist2,dist1,lure,target,0,0,0,0,0,16,16,69,,,,,,,154.12172945775092,155.14917079545557,155.14917079545557,155.14917079545557,155.14917079545557,158.17201359197497,158.17201359197497,158.17201359197497,158.17201359197497,None,,,,,,,,,,ST02_112822,2022-11-29_11h51.19.781,Hippopolis_Updating,2022.2.2,59.89490256945426,
Hippopolis,stimuli/subj_files/ST02_112822_cityA.csv,./stimuli/seattle.jpg,./stimuli/street_plate1.png,./stimuli/videos/hippopolis_part1.mp4,KÁRTYA UTCA,stimuli/objects/023a.jpg,object,0,stimuli/objects/023a.jpg,stimuli/objects/023b.jpg,stimuli/objects/023a.jpg,stimuli/scenes/100b.jpg,stimuli/scenes/100a.jpg,lure,target,dist2,dist1,0,0,0,0,0,17,17,37,,,,,,,160.13367863371968,161.1630873978138,161.1630873978138,161.1630873978138,161.1630873978138,164.16444058716297,164.16444058716297,164.16444058716297,164.16444058716297,None,,,,,,,,,,ST02_112822,2022-11-29_11h51.19.781,Hippopolis_Updating,2022.2.2,59.89490256945426,
Hippopolis,stimuli/subj_files/ST02_112822_cityA.csv,./stimuli/seattle.jpg,./stimuli/street_plate1.png,./stimuli/videos/hippopolis_part1.mp4,KOCKA UTCA,stimuli/scenes/053a.jpg,scene,1,stimuli/scenes/107a.jpg,stimuli/scenes/105b.jpg,stimuli/scenes/107b.jpg,stimuli/scenes/107a.jpg,stimuli/scenes/105a.jpg,dist2,lure,target,dist1,0,0,0,0,0,18,18,55,,,,,,,166.13835274800658,167.16276395134628,167.16276395134628,167.16276395134628,167.16276395134628,170.1606466192752,170.1606466192752,170.1606466192752,170.1606466192752,None,,,,,,,,,,ST02_112822,2022-11-29_11h51.19.781,Hippopolis_Updating,2022.2.2,59.89490256945426,
Hippopolis,stimuli/subj_files/ST02_112822_cityA.csv,./stimuli/seattle.jpg,./stimuli/street_plate1.png,./stimuli/videos/hippopolis_part1.mp4,MÁRVÁNY UTCA,stimuli/scenes/100a.jpg,scene,0,stimuli/scenes/100a.jpg,stimuli/objects/025a.jpg,stimuli/scenes/100a.jpg,stimuli/scenes/100b.jpg,stimuli/objects/025b.jpg,dist1,target,lure,dist2,0,0,0,0,0,19,19,24,,,,,,,172.15491259470582,173.17968985252082,173.17968985252082,173.17968985252082,173.17968985252082,176.18818219192326,176.18818219192326,176.18818219192326,176.18818219192326,None,,,,,,,,,,ST02_112822,2022-11-29_11h51.19.781,Hippopolis_Updating,2022.2.2,59.89490256945426,
Hippopolis,stimuli/subj_files/ST02_112822_cityA.csv,./stimuli/seattle.jpg,./stimuli/street_plate1.png,./stimuli/videos/hippopolis_part1.mp4,KATONA UTCA,stimuli/scenes/028a.jpg,scene,1,stimuli/scenes/091a.jpg,stimuli/scenes/003b.jpg,stimuli/scenes/091a.jpg,stimuli/scenes/091b.jpg,stimuli/scenes/003a.jpg,dist2,target,lure,dist1,0,0,0,0,0,20,20,73,,,,,,,178.15961812250316,179.18263974785805,179.18263974785805,179.18263974785805,179.18263974785805,182.1971450857818,182.1971450857818,182.1971450857818,182.1971450857818,None,,,,,,,,,,ST02_112822,2022-11-29_11h51.19.781,Hippopolis_Updating,2022.2.2,59.89490256945426,
Hippopolis,stimuli/subj_files/ST02_112822_cityA.csv,./stimuli/seattle.jpg,./stimuli/street_plate1.png,./stimuli/videos/hippopolis_part1.mp4,KOCSI UTCA,stimuli/objects/029a.jpg,object,2,stimuli/scenes/119a.jpg,stimuli/scenes/068b.jpg,stimuli/scenes/119b.jpg,stimuli/scenes/068a.jpg,stimuli/scenes/119a.jpg,dist2,lure,dist1,target,0,0,0,0,0,21,21,76,,,,,,,184.16905498877168,185.19705551676452,185.19705551676452,185.19705551676452,185.19705551676452,188.1929054465145,188.1929054465145,188.1929054465145,188.1929054465145,None,,,,,,,,,,ST02_112822,2022-11-29_11h51.19.781,Hippopolis_Updating,2022.2.2,59.89490256945426,
Hippopolis,stimuli/subj_files/ST02_112822_cityA.csv,./stimuli/seattle.jpg,./stimuli/street_plate1.png,./stimuli/videos/hippopolis_part1.mp4,TOLLTARTÓ UTCA,stimuli/scenes/052a.jpg,scene,0,stimuli/scenes/052a.jpg,stimuli/scenes/052a.jpg,stimuli/objects/079b.jpg,stimuli/scenes/052b.jpg,stimuli/objects/079a.jpg,target,dist2,lure,dist1,0,0,0,0,0,22,22,43,,,,,,,190.1836051121354,191.2115434370935,191.2115434370935,191.2115434370935,191.2115434370935,194.222630193457,194.222630193457,194.222630193457,194.222630193457,None,,,,,,,,,,ST02_112822,2022-11-29_11h51.19.781,Hippopolis_Updating,2022.2.2,59.89490256945426,
Hippopolis,stimuli/subj_files/ST02_112822_cityA.csv,./stimuli/seattle.jpg,./stimuli/street_plate1.png,./stimuli/videos/hippopolis_part1.mp4,BANÁN UTCA,stimuli/scenes/048a.jpg,scene,0,stimuli/scenes/048a.jpg,stimuli/objects/041a.jpg,stimuli/scenes/048b.jpg,stimuli/scenes/048a.jpg,stimuli/objects/041b.jpg,dist1,lure,target,dist2,0,0,0,0,0,23,23,25,,,,,,,196.18826989643276,197.2143512032926,197.2143512032926,197.2143512032926,197.2143512032926,200.21566302888095,200.21566302888095,200.21566302888095,200.21566302888095,None,,,,,,,,,,ST02_112822,2022-11-29_11h51.19.781,Hippopolis_Updating,2022.2.2,59.89490256945426,
Hippopolis,stimuli/subj_files/ST02_112822_cityA.csv,./stimuli/seattle.jpg,./stimuli/street_plate1.png,./stimuli/videos/hippopolis_part1.mp4,PETÁRDA UTCA,stimuli/objects/117a.jpg,object,0,stimuli/objects/117a.jpg,stimuli/objects/117a.jpg,stimuli/objects/055b.jpg,stimuli/objects/055a.jpg,stimuli/objects/117b.jpg,target,dist2,dist1,lure,0,0,0,0,0,24,24,74,,,,,,,202.19951806403697,203.23153772763908,203.23153772763908,203.23153772763908,203.23153772763908,206.22155504487455,206.22155504487455,206.22155504487455,206.22155504487455,None,,,,,,,,,,ST02_112822,2022-11-29_11h51.19.781,Hippopolis_Updating,2022.2.2,59.89490256945426,
Hippopolis,stimuli/subj_files/ST02_112822_cityA.csv,./stimuli/seattle.jpg,./stimuli/street_plate1.png,./stimuli/videos/hippopolis_part1.mp4,TELEFON UTCA,stimuli/objects/050a.jpg,object,1,stimuli/objects/067a.jpg,stimuli/scenes/055b.jpg,stimuli/scenes/055a.jpg,stimuli/objects/067b.jpg,stimuli/objects/067a.jpg,dist2,dist1,lure,target,0,0,0,0,0,25,25,50,,,,,,,208.20686745643616,209.22925120964646,209.22925120964646,209.22925120964646,209.22925120964646,212.22629913687706,212.22629913687706,212.22629913687706,212.22629913687706,None,209.22925120964646,,,,,,,,,ST02_112822,2022-11-29_11h51.19.781,Hippopolis_Updating,2022.2.2,59.89490256945426,
Hippopolis,stimuli/subj_files/ST02_112822_cityA.csv,./stimuli/seattle.jpg,./stimuli/street_plate1.png,./stimuli/videos/hippopolis_part1.mp4,KÓKUSZ UTCA,stimuli/scenes/113a.jpg,scene,2,stimuli/objects/046a.jpg,stimuli/objects/022a.jpg,stimuli/objects/046a.jpg,stimuli/objects/046b.jpg,stimuli/objects/022b.jpg,dist1,target,lure,dist2,0,0,0,0,0,26,26,31,,,,,,,214.21610154770315,215.2447800692171,215.2447800692171,215.2447800692171,215.2447800692171,218.26679621078074,218.26679621078074,218.26679621078074,218.26679621078074,None,,,,,,,,,,ST02_112822,2022-11-29_11h51.19.781,Hippopolis_Updating,2022.2.2,59.89490256945426,
Hippopolis,stimuli/subj_files/ST02_112822_cityA.csv,./stimuli/seattle.jpg,./stimuli/street_plate1.png,./stimuli/videos/hippopolis_part1.mp4,SZALVÉTA UTCA,stimuli/scenes/035a.jpg,scene,1,stimuli/scenes/099a.jpg,stimuli/objects/059b.jpg,stimuli/scenes/099a.jpg,stimuli/scenes/099b.jpg,stimuli/objects/059a.jpg,dist2,target,lure,dist1,0,0,0,0,0,27,27,56,,,,,,,220.22937778756022,221.23925752937794,221.23925752937794,221.23925752937794,221.23925752937794,224.25900425761938,224.25900425761938,224.25900425761938,224.25900425761938,None,,,,,,,,,,ST02_112822,2022-11-29_11h51.19.781,Hippopolis_Updating,2022.2.2,59.89490256945426,
Hippopolis,stimuli/subj_files/ST02_112822_cityA.csv,./stimuli/seattle.jpg,./stimuli/street_plate1.png,./stimuli/videos/hippopolis_part1.mp4,KRÉTA UTCA,stimuli/objects/079a.jpg,object,0,stimuli/objects/079a.jpg,stimuli/objects/105a.jpg,stimuli/objects/079b.jpg,stimuli/objects/079a.jpg,stimuli/objects/105b.jpg,dist1,lure,target,dist2,0,0,0,0,0,28,28,65,,,,,,,226.23882460780442,227.25873181596398,227.25873181596398,227.25873181596398,227.25873181596398,230.27131264656782,230.27131264656782,230.27131264656782,230.27131264656782,None,,,,,,,,,,ST02_112822,2022-11-29_11h51.19.781,Hippopolis_Updating,2022.2.2,59.89490256945426,
Hippopolis,stimuli/subj_files/ST02_112822_cityA.csv,./stimuli/seattle.jpg,./stimuli/street_plate1.png,./stimuli/videos/hippopolis_part1.mp4,TÁSKA UTCA,stimuli/scenes/093a.jpg,scene,1,stimuli/scenes/071a.jpg,stimuli/scenes/071a.jpg,stimuli/scenes/071b.jpg,stimuli/scenes/107a.jpg,stimuli/scenes/107b.jpg,target,lure,dist1,dist2,0,0,0,0,0,29,29,41,,,,,,,232.2480201330036,233.27378763444722,233.27378763444722,233.27378763444722,233.27378763444722,236.26921024359763,236.26921024359763,236.26921024359763,236.26921024359763,None,,,,,,,,,,ST02_112822,2022-11-29_11h51.19.781,Hippopolis_Updating,2022.2.2,59.89490256945426,
Hippopolis,stimuli/subj_files/ST02_112822_cityA.csv,./stimuli/seattle.jpg,./stimuli/street_plate1.png,./stimuli/videos/hippopolis_part1.mp4,PÁLMAFA UTCA,stimuli/objects/039a.jpg,object,1,stimuli/objects/082a.jpg,stimuli/objects/082a.jpg,stimuli/objects/082b.jpg,stimuli/objects/075b.jpg,stimuli/objects/075a.jpg,target,lure,dist2,dist1,0,0,0,0,0,30,30,11,,,,,,,238.24913384765387,239.27485905215144,239.27485905215144,239.27485905215144,239.27485905215144,242.27400316298008,242.27400316298008,242.27400316298008,242.27400316298008,None,,,,,,,,,,ST02_112822,2022-11-29_11h51.19.781,Hippopolis_Updating,2022.2.2,59.89490256945426,
Hippopolis,stimuli/subj_files/ST02_112822_cityA.csv,./stimuli/seattle.jpg,./stimuli/street_plate1.png,./stimuli/videos/hippopolis_part1.mp4,HERNYÓ UTCA,stimuli/objects/006a.jpg,object,2,stimuli/scenes/046a.jpg,stimuli/objects/098a.jpg,stimuli/scenes/046b.jpg,stimuli/objects/098b.jpg,stimuli/scenes/046a.jpg,dist1,lure,dist2,target,0,0,0,0,0,31,31,13,,,,,,,244.25314116477966,245.27420500665903,245.27420500665903,245.27420500665903,245.27420500665903,248.28661416098475,248.28661416098475,248.28661416098475,248.28661416098475,None,,,,,,,,,,ST02_112822,2022-11-29_11h51.19.781,Hippopolis_Updating,2022.2.2,59.89490256945426,
Hippopolis,stimuli/subj_files/ST02_112822_cityA.csv,./stimuli/seattle.jpg,./stimuli/street_plate1.png,./stimuli/videos/hippopolis_part1.mp4,SÜTŐ UTCA,stimuli/objects/051a.jpg,object,2,stimuli/scenes/117a.jpg,stimuli/scenes/117a.jpg,stimuli/scenes/117b.jpg,stimuli/scenes/004b.jpg,stimuli/scenes/004a.jpg,target,lure,dist2,dist1,0,0,0,0,0,32,32,67,,,,,,,250.25574988685548,251.28695377893746,251.28695377893746,251.28695377893746,251.28695377893746,254.2886960376054,254.2886960376054,254.2886960376054,254.2886960376054,None,,,,,,,,,,ST02_112822,2022-11-29_11h51.19.781,Hippopolis_Updating,2022.2.2,59.89490256945426,
Hippopolis,stimuli/subj_files/ST02_112822_cityA.csv,./stimuli/seattle.jpg,./stimuli/street_plate1.png,./stimuli/videos/hippopolis_part1.mp4,SZAXOFON UTCA,stimuli/objects/061a.jpg,object,0,stimuli/objects/061a.jpg,stimuli/objects/061a.jpg,stimuli/objects/020b.jpg,stimuli/objects/020a.jpg,stimuli/objects/061b.jpg,target,dist2,dist1,lure,0,0,0,0,0,33,33,10,,,,,,,256.2705982644111,257.2888845074922,257.2888845074922,257.2888845074922,257.2888845074922,260.3024546485394,260.3024546485394,260.3024546485394,260.3024546485394,None,,,,,,,,,,ST02_112822,2022-11-29_11h51.19.781,Hippopolis_Updating,2022.2.2,59.89490256945426,
Hippopolis,stimuli/subj_files/ST02_112822_cityA.csv,./stimuli/seattle.jpg,./stimuli/street_plate1.png,./stimuli/videos/hippopolis_part1.mp4,LÁNDZSA UTCA,stimuli/scenes/011a.jpg,scene,2,stimuli/objects/064a.jpg,stimuli/objects/064a.jpg,stimuli/objects/064b.jpg,stimuli/objects/042b.jpg,stimuli/objects/042a.jpg,target,lure,dist2,dist1,0,0,0,0,0,34,34,15,,,,,,,262.28721720166504,263.30194148793817,263.30194148793817,263.30194148793817,263.30194148793817,266.3049461208284,266.3049461208284,266.3049461208284,266.3049461208284,None,,,,,,,,,,ST02_112822,2022-11-29_11h51.19.781,Hippopolis_Updating,2022.2.2,59.89490256945426,
Hippopolis,stimuli/subj_files/ST02_112822_cityA.csv,./stimuli/seattle.jpg,./stimuli/street_plate1.png,./stimuli/videos/hippopolis_part1.mp4,PAPRIKA UTCA,stimuli/scenes/025a.jpg,scene,0,stimuli/scenes/025a.jpg,stimuli/scenes/080b.jpg,stimuli/scenes/080a.jpg,stimuli/scenes/025a.jpg,stimuli/scenes/025b.jpg,dist2,dist1,target,lure,0,0,0,0,0,35,35,71,,,,,,,268.29873501323164,269.3167485035956,269.3167485035956,269.3167485035956,269.3167485035956,272.33578520454466,272.33578520454466,272.33578520454466,272.33578520454466,None,,,,,,,,,,ST02_112822,2022-11-29_11h51.19.781,Hippopolis_Updating,2022.2.2,59.89490256945426,
Hippopolis,stimuli/subj_files/ST02_112822_cityA.csv,./stimuli/seattle.jpg,./stimuli/street_plate1.png,./stimuli/videos/hippopolis_part1.mp4,CITROM UTCA,stimuli/scenes/103a.jpg,scene,1,stimuli/scenes/105a.jpg,stimuli/objects/120a.jpg,stimuli/scenes/105a.jpg,stimuli/scenes/105b.jpg,stimuli/objects/120b.jpg,dist1,target,lure,dist2,0,0,0,0,0,36,36,40,,,,,,,274.3037705179304,275.3281167205423,275.3281167205423,275.3281167205423,275.3281167205423,278.3374270070344,278.3374270070344,278.3374270070344,278.3374270070344,None,,,,,,,,,,ST02_112822,2022-11-29_11h51.19.781,Hippopolis_Updating,2022.2.2,59.89490256945426,
Hippopolis,stimuli/subj_files/ST02_112822_cityA.csv,./stimuli/seattle.jpg,./stimuli/street_plate1.png,./stimuli/videos/hippopolis_part1.mp4,KARTON UTCA,stimuli/objects/073a.jpg,object,1,stimuli/objects/075a.jpg,stimuli/objects/057a.jpg,stimuli/objects/075b.jpg,stimuli/objects/075a.jpg,stimuli/objects/057b.jpg,dist1,lure,target,dist2,0,0,0,0,0,37,37,1,,,,,,,280.31862511485815,281.3500177897513,281.3500177897513,281.3500177897513,281.3500177897513,284.3365592993796,284.3365592993796,284.3365592993796,284.3365592993796,None,,,,,,,,,,ST02_112822,2022-11-29_11h51.19.781,Hippopolis_Updating,2022.2.2,59.89490256945426,
Hippopolis,stimuli/subj_files/ST02_112822_cityA.csv,./stimuli/seattle.jpg,./stimuli/street_plate1.png,./stimuli/videos/hippopolis_part1.mp4,TERASZ UTCA,stimuli/scenes/021a.jpg,scene,0,stimuli/scenes/021a.jpg,stimuli/scenes/021a.jpg,stimuli/scenes/025b.jpg,stimuli/scenes/021b.jpg,stimuli/scenes/025a.jpg,target,dist2,lure,dist1,0,0,0,0,0,38,38,60,,,,,,,286.3311984818429,287.3635602518916,287.3635602518916,287.3635602518916,287.3635602518916,290.35944532603025,290.35944532603025,290.35944532603025,290.35944532603025,None,,,,,,,,,,ST02_112822,2022-11-29_11h51.19.781,Hippopolis_Updating,2022.2.2,59.89490256945426,
Hippopolis,stimuli/subj_files/ST02_112822_cityA.csv,./stimuli/seattle.jpg,./stimuli/street_plate1.png,./stimuli/videos/hippopolis_part1.mp4,TERÍTŐ UTCA,stimuli/scenes/038a.jpg,scene,2,stimuli/objects/040a.jpg,stimuli/objects/040a.jpg,stimuli/objects/106b.jpg,stimuli/objects/040b.jpg,stimuli/objects/106a.jpg,target,dist2,lure,dist1,0,0,0,0,0,39,39,6,,,,,,,292.34564410708845,293.3640451114625,293.3640451114625,293.3640451114625,293.3640451114625,296.36993837170303,296.36993837170303,296.36993837170303,296.36993837170303,None,,,,,,,,,,ST02_112822,2022-11-29_11h51.19.781,Hippopolis_Updating,2022.2.2,59.89490256945426,
Hippopolis,stimuli/subj_files/ST02_112822_cityA.csv,./stimuli/seattle.jpg,./stimuli/street_plate1.png,./stimuli/videos/hippopolis_part1.mp4,SZILVA UTCA,stimuli/scenes/016a.jpg,scene,1,stimuli/scenes/070a.jpg,stimuli/scenes/070b.jpg,stimuli/scenes/070a.jpg,stimuli/objects/067a.jpg,stimuli/objects/067b.jpg,lure,target,dist1,dist2,0,0,0,0,0,40,40,20,,,,,,,298.3522959109396,299.3746438976377,299.3746438976377,299.3746438976377,299.3746438976377,302.3699293527752,302.3699293527752,302.3699293527752,302.3699293527752,None,,,,,,,,,,ST02_112822,2022-11-29_11h51.19.781,Hippopolis_Updating,2022.2.2,59.89490256945426,
Hippopolis,stimuli/subj_files/ST02_112822_cityA.csv,./stimuli/seattle.jpg,./stimuli/street_plate1.png,./stimuli/videos/hippopolis_part1.mp4,ZSEMLE UTCA,stimuli/scenes/024a.jpg,scene,2,stimuli/objects/116a.jpg,stimuli/scenes/117a.jpg,stimuli/objects/116b.jpg,stimuli/objects/116a.jpg,stimuli/scenes/117b.jpg,dist1,lure,target,dist2,0,0,0,0,0,41,41,42,,,,,,,304.36329714022577,305.38994914479554,305.38994914479554,305.38994914479554,305.38994914479554,308.38587216101587,308.38587216101587,308.38587216101587,308.38587216101587,None,,,,,,,,,,ST02_112822,2022-11-29_11h51.19.781,Hippopolis_Updating,2022.2.2,59.89490256945426,
Hippopolis,stimuli/subj_files/ST02_112822_cityA.csv,./stimuli/seattle.jpg,./stimuli/street_plate1.png,./stimuli/videos/hippopolis_part1.mp4,ÜVEG UTCA,stimuli/scenes/006a.jpg,scene,2,stimuli/objects/042a.jpg,stimuli/objects/042b.jpg,stimuli/objects/116a.jpg,stimuli/objects/116b.jpg,stimuli/objects/042a.jpg,lure,dist1,dist2,target,0,0,0,0,0,42,42,52,,,,,,,310.38032380864024,311.4096212312579,311.4096212312579,311.4096212312579,311.4096212312579,314.4039562512189,314.4039562512189,314.4039562512189,314.4039562512189,None,,,,,,,,,,ST02_112822,2022-11-29_11h51.19.781,Hippopolis_Updating,2022.2.2,59.89490256945426,
Hippopolis,stimuli/subj_files/ST02_112822_cityA.csv,./stimuli/seattle.jpg,./stimuli/street_plate1.png,./stimuli/videos/hippopolis_part1.mp4,FEJSZE UTCA,stimuli/scenes/106a.jpg,scene,2,stimuli/objects/008a.jpg,stimuli/scenes/009b.jpg,stimuli/objects/008b.jpg,stimuli/scenes/009a.jpg,stimuli/objects/008a.jpg,dist2,lure,dist1,target,0,0,0,0,0,43,43,27,,,,,,,316.3864195328206,317.4126868210733,317.4126868210733,317.4126868210733,317.4126868210733,320.4103592503816,320.4103592503816,320.4103592503816,320.4103592503816,None,,,,,,,,,,ST02_112822,2022-11-29_11h51.19.781,Hippopolis_Updating,2022.2.2,59.89490256945426,
Hippopolis,stimuli/subj_files/ST02_112822_cityA.csv,./stimuli/seattle.jpg,./stimuli/street_plate1.png,./stimuli/videos/hippopolis_part1.mp4,BONBON UTCA,stimuli/objects/020a.jpg,object,0,stimuli/objects/020a.jpg,stimuli/scenes/094a.jpg,stimuli/scenes/094b.jpg,stimuli/objects/020b.jpg,stimuli/objects/020a.jpg,dist1,dist2,lure,target,0,0,0,0,0,44,44,59,,,,,,,322.39091170951724,323.413023641333,323.413023641333,323.413023641333,323.413023641333,326.42107404209673,326.42107404209673,326.42107404209673,326.42107404209673,space,,328.406626239419,328.406626239419,3.0663361977785826,,,,,,ST02_112822,2022-11-29_11h51.19.781,Hippopolis_Updating,2022.2.2,59.89490256945426,
Hippopolis,stimuli/subj_files/ST02_112822_cityA.csv,./stimuli/seattle.jpg,./stimuli/street_plate1.png,./stimuli/videos/hippopolis_part1.mp4,KÖNYVTÁR UTCA,stimuli/scenes/065a.jpg,scene,0,stimuli/scenes/065a.jpg,stimuli/scenes/065b.jpg,stimuli/scenes/118b.jpg,stimuli/scenes/065a.jpg,stimuli/scenes/118a.jpg,lure,dist2,target,dist1,0,0,0,0,0,45,45,34,,,,,,,331.4994090888649,332.52821325697005,332.52821325697005,332.52821325697005,332.52821325697005,335.51841406710446,335.51841406710446,335.51841406710446,335.51841406710446,None,,,,,,,,,,ST02_112822,2022-11-29_11h51.19.781,Hippopolis_Updating,2022.2.2,59.89490256945426,
Hippopolis,stimuli/subj_files/ST02_112822_cityA.csv,./stimuli/seattle.jpg,./stimuli/street_plate1.png,./stimuli/videos/hippopolis_part1.mp4,BAGOLY UTCA,stimuli/objects/013a.jpg,object,1,stimuli/objects/120a.jpg,stimuli/objects/068b.jpg,stimuli/objects/120a.jpg,stimuli/objects/068a.jpg,stimuli/objects/120b.jpg,dist2,target,dist1,lure,0,0,0,0,0,46,46,26,,,,,,,337.5056450776756,338.5263677444309,338.5263677444309,338.5263677444309,338.5263677444309,341.5449500642717,341.5449500642717,341.5449500642717,341.5449500642717,None,,,,,,,,,,ST02_112822,2022-11-29_11h51.19.781,Hippopolis_Updating,2022.2.2,59.89490256945426,
Hippopolis,stimuli/subj_files/ST02_112822_cityA.csv,./stimuli/seattle.jpg,./stimuli/street_plate1.png,./stimuli/videos/hippopolis_part1.mp4,FIÓK UTCA,stimuli/scenes/110a.jpg,scene,1,stimuli/scenes/078a.jpg,stimuli/objects/070b.jpg,stimuli/scenes/078b.jpg,stimuli/scenes/078a.jpg,stimuli/objects/070a.jpg,dist2,lure,target,dist1,0,0,0,0,0,47,47,47,,,,,,,343.52329189144075,344.540422745049,344.540422745049,344.540422745049,344.540422745049,347.54946338944137,347.54946338944137,347.54946338944137,347.54946338944137,None,,,,,,,,,,ST02_112822,2022-11-29_11h51.19.781,Hippopolis_Updating,2022.2.2,59.89490256945426,
Hippopolis,stimuli/subj_files/ST02_112822_cityA.csv,./stimuli/seattle.jpg,./stimuli/street_plate1.png,./stimuli/videos/hippopolis_part1.mp4,GYŰRŰ UTCA,stimuli/objects/019a.jpg,object,2,stimuli/scenes/074a.jpg,stimuli/scenes/074a.jpg,stimuli/objects/086b.jpg,stimuli/scenes/074b.jpg,stimuli/objects/086a.jpg,target,dist2,lure,dist1,0,0,0,0,0,48,48,78,,,,,,,349.53034240566194,350.5619328804314,350.5619328804314,350.5619328804314,350.5619328804314,353.54836678132415,353.54836678132415,353.54836678132415,353.54836678132415,None,,,,,,,,,,ST02_112822,2022-11-29_11h51.19.781,Hippopolis_Updating,2022.2.2,59.89490256945426,
Hippopolis,stimuli/subj_files/ST02_112822_cityA.csv,./stimuli/seattle.jpg,./stimuli/street_plate1.png,./stimuli/videos/hippopolis_part1.mp4,ECSET UTCA,stimuli/objects/025a.jpg,object,0,stimuli/objects/025a.jpg,stimuli/objects/025b.jpg,stimuli/scenes/052b.jpg,stimuli/objects/025a.jpg,stimuli/scenes/052a.jpg,lure,dist2,target,dist1,0,0,0,0,0,49,49,8,,,,,,,355.5351825989783,356.5574531443417,356.5574531443417,356.5574531443417,356.5574531443417,359.57129230722785,359.57129230722785,359.57129230722785,359.57129230722785,None,,,,,,,,,,ST02_112822,2022-11-29_11h51.19.781,Hippopolis_Updating,2022.2.2,59.89490256945426,
Hippopolis,stimuli/subj_files/ST02_112822_cityA.csv,./stimuli/seattle.jpg,./stimuli/street_plate1.png,./stimuli/videos/hippopolis_part1.mp4,HEGEDŰ UTCA,stimuli/objects/085a.jpg,object,0,stimuli/objects/085a.jpg,stimuli/scenes/021a.jpg,stimuli/objects/085a.jpg,stimuli/scenes/021b.jpg,stimuli/objects/085b.jpg,dist1,target,dist2,lure,0,0,0,0,0,50,50,46,,,,,,,361.54869396053255,362.5736096147448,362.5736096147448,362.5736096147448,362.5736096147448,365.5776598509401,365.5776598509401,365.5776598509401,365.5776598509401,None,,,,,,,,,,ST02_112822,2022-11-29_11h51.19.781,Hippopolis_Updating,2022.2.2,59.89490256945426,
Hippopolis,stimuli/subj_files/ST02_112822_cityA.csv,./stimuli/seattle.jpg,./stimuli/street_plate1.png,./stimuli/videos/hippopolis_part1.mp4,HÁRFA UTCA,stimuli/scenes/037a.jpg,scene,0,stimuli/scenes/037a.jpg,stimuli/scenes/037a.jpg,stimuli/scenes/037b.jpg,stimuli/objects/072a.jpg,stimuli/objects/072b.jpg,target,lure,dist1,dist2,0,0,0,0,0,51,51,16,,,,,,,367.55236663483083,368.57238393835723,368.57238393835723,368.57238393835723,368.57238393835723,371.58161585219204,371.58161585219204,371.58161585219204,371.58161585219204,None,,,,,,,,,,ST02_112822,2022-11-29_11h51.19.781,Hippopolis_Updating,2022.2.2,59.89490256945426,
Hippopolis,stimuli/subj_files/ST02_112822_cityA.csv,./stimuli/seattle.jpg,./stimuli/street_plate1.png,./stimuli/videos/hippopolis_part1.mp4,FÉNYKÉP UTCA,stimuli/objects/072a.jpg,object,0,stimuli/objects/072a.jpg,stimuli/objects/072b.jpg,stimuli/scenes/061b.jpg,stimuli/scenes/061a.jpg,stimuli/objects/072a.jpg,lure,dist2,dist1,target,0,0,0,0,0,52,52,22,,,,,,,373.557138716802,374.5737532991916,374.5737532991916,374.5737532991916,374.5737532991916,377.5840392149985,377.5840392149985,377.5840392149985,377.5840392149985,None,374.5737532991916,,,,,,,,,ST02_112822,2022-11-29_11h51.19.781,Hippopolis_Updating,2022.2.2,59.89490256945426,
Hippopolis,stimuli/subj_files/ST02_112822_cityA.csv,./stimuli/seattle.jpg,./stimuli/street_plate1.png,./stimuli/videos/hippopolis_part1.mp4,FÉSZEK UTCA,stimuli/scenes/014a.jpg,scene,0,stimuli/scenes/014a.jpg,stimuli/scenes/014b.jpg,stimuli/objects/023b.jpg,stimuli/objects/023a.jpg,stimuli/scenes/014a.jpg,lure,dist2,dist1,target,0,0,0,0,0,53,53,17,,,,,,,379.56449432857335,380.5825684648007,380.5825684648007,380.5825684648007,380.5825684648007,383.58171568624675,383.58171568624675,383.58171568624675,383.58171568624675,None,,,,,,,,,,ST02_112822,2022-11-29_11h51.19.781,Hippopolis_Updating,2022.2.2,59.89490256945426,
Hippopolis,stimuli/subj_files/ST02_112822_cityA.csv,./stimuli/seattle.jpg,./stimuli/street_plate1.png,./stimuli/videos/hippopolis_part1.mp4,FÜZET UTCA,stimuli/objects/071a.jpg,object,2,stimuli/scenes/009a.jpg,stimuli/scenes/009b.jpg,stimuli/scenes/074b.jpg,stimuli/scenes/009a.jpg,stimuli/scenes/074a.jpg,lure,dist2,target,dist1,0,0,0,0,0,54,54,64,,,,,,,385.5687949247658,386.59330813772976,386.59330813772976,386.59330813772976,386.59330813772976,389.59622631035745,389.59622631035745,389.59622631035745,389.59622631035745,None,,,,,,,,,,ST02_112822,2022-11-29_11h51.19.781,Hippopolis_Updating,2022.2.2,59.89490256945426,
Hippopolis,stimuli/subj_files/ST02_112822_cityA.csv,./stimuli/seattle.jpg,./stimuli/street_plate1.png,./stimuli/videos/hippopolis_part1.mp4,OLDAL UTCA,stimuli/scenes/087a.jpg,scene,2,stimuli/objects/086a.jpg,stimuli/objects/086b.jpg,stimuli/objects/046a.jpg,stimuli/objects/046b.jpg,stimuli/objects/086a.jpg,lure,dist1,dist2,target,0,0,0,0,0,55,55,61,,,,,,,391.58609963208437,392.605335066095,392.605335066095,392.605335066095,392.605335066095,395.64625573158264,395.64625573158264,395.64625573158264,395.64625573158264,None,,,,,,,,,,ST02_112822,2022-11-29_11h51.19.781,Hippopolis_Updating,2022.2.2,59.89490256945426,
Hippopolis,stimuli/subj_files/ST02_112822_cityA.csv,./stimuli/seattle.jpg,./stimuli/street_plate1.png,./stimuli/videos/hippopolis_part1.mp4,KUTYA UTCA,stimuli/objects/007a.jpg,object,2,stimuli/scenes/096a.jpg,stimuli/scenes/119a.jpg,stimuli/scenes/096a.jpg,stimuli/scenes/119b.jpg,stimuli/scenes/096b.jpg,dist1,target,dist2,lure,0,0,0,0,0,56,56,28,,,,,,,397.6017413865775,398.6244013123214,398.6244013123214,398.6244013123214,398.6244013123214,401.65755117312074,401.65755117312074,401.65755117312074,401.65755117312074,None,,,,,,,,,,ST02_112822,2022-11-29_11h51.19.781,Hippopolis_Updating,2022.2.2,59.89490256945426,
Hippopolis,stimuli/subj_files/ST02_112822_cityA.csv,./stimuli/seattle.jpg,./stimuli/street_plate1.png,./stimuli/videos/hippopolis_part1.mp4,KALAPÁCS UTCA,stimuli/objects/091a.jpg,object,1,stimuli/objects/070a.jpg,stimuli/scenes/077a.jpg,stimuli/objects/070b.jpg,stimuli/objects/070a.jpg,stimuli/scenes/077b.jpg,dist1,lure,target,dist2,0,0,0,0,0,57,57,63,,,,,,,403.61153715476394,404.6215120628476,404.6215120628476,404.6215120628476,404.6215120628476,407.6417514272034,407.6417514272034,407.6417514272034,407.6417514272034,None,,,,,,,,,,ST02_112822,2022-11-29_11h51.19.781,Hippopolis_Updating,2022.2.2,59.89490256945426,
Hippopolis,stimuli/subj_files/ST02_112822_cityA.csv,./stimuli/seattle.jpg,./stimuli/street_plate1.png,./stimuli/videos/hippopolis_part1.mp4,MUNKA UTCA,stimuli/objects/053a.jpg,object,2,stimuli/scenes/068a.jpg,stimuli/scenes/073b.jpg,stimuli/scenes/068a.jpg,stimuli/scenes/068b.jpg,stimuli/scenes/073a.jpg,dist2,target,lure,dist1,0,0,0,0,0,58,58,70,,,,,,,409.6151127964258,410.6420471929014,410.6420471929014,410.6420471929014,410.6420471929014,413.6342826075852,413.6342826075852,413.6342826075852,413.6342826075852,None,,,,,,,,,,ST02_112822,2022-11-29_11h51.19.781,Hippopolis_Updating,2022.2.2,59.89490256945426,
Hippopolis,stimuli/subj_files/ST02_112822_cityA.csv,./stimuli/seattle.jpg,./stimuli/street_plate1.png,./stimuli/videos/hippopolis_part1.mp4,TÉRKÉP UTCA,stimuli/scenes/051a.jpg,scene,2,stimuli/objects/106a.jpg,stimuli/objects/106a.jpg,stimuli/objects/064a.jpg,stimuli/objects/064b.jpg,stimuli/objects/106b.jpg,target,dist1,dist2,lure,0,0,0,0,0,59,59,77,,,,,,,415.62682218663394,416.6374937482178,416.6374937482178,416.6374937482178,416.6374937482178,419.67636581510305,419.67636581510305,419.67636581510305,419.67636581510305,None,,,,,,,,,,ST02_112822,2022-11-29_11h51.19.781,Hippopolis_Updating,2022.2.2,59.89490256945426,
Hippopolis,stimuli/subj_files/ST02_112822_cityA.csv,./stimuli/seattle.jpg,./stimuli/street_plate1.png,./stimuli/videos/hippopolis_part1.mp4,TÁNYÉR UTCA,stimuli/objects/105a.jpg,object,0,stimuli/objects/105a.jpg,stimuli/scenes/048b.jpg,stimuli/objects/105b.jpg,stimuli/scenes/048a.jpg,stimuli/objects/105a.jpg,dist2,lure,dist1,target,0,0,0,0,0,60,60,36,,,,,,,421.63334181346,422.66004544496536,422.66004544496536,422.66004544496536,422.66004544496536,425.65186286717653,425.65186286717653,425.65186286717653,425.65186286717653,None,,,,,,,,,,ST02_112822,2022-11-29_11h51.19.781,Hippopolis_Updating,2022.2.2,59.89490256945426,
Hippopolis,stimuli/subj_files/ST02_112822_cityA.csv,./stimuli/seattle.jpg,./stimuli/street_plate1.png,./stimuli/videos/hippopolis_part1.mp4,LAKAT UTCA,stimuli/objects/087a.jpg,object,0,stimuli/objects/087a.jpg,stimuli/objects/087b.jpg,stimuli/objects/087a.jpg,stimuli/objects/117a.jpg,stimuli/objects/117b.jpg,lure,target,dist1,dist2,0,0,0,0,0,61,61,49,,,,,,,427.6433416027576,428.65286835096776,428.65286835096776,428.65286835096776,428.65286835096776,431.6647036988288,431.6647036988288,431.6647036988288,431.6647036988288,None,,,,,,,,,,ST02_112822,2022-11-29_11h51.19.781,Hippopolis_Updating,2022.2.2,59.89490256945426,
Hippopolis,stimuli/subj_files/ST02_112822_cityA.csv,./stimuli/seattle.jpg,./stimuli/street_plate1.png,./stimuli/videos/hippopolis_part1.mp4,OROSZLÁN UTCA,stimuli/objects/002a.jpg,object,1,stimuli/objects/103a.jpg,stimuli/objects/103a.jpg,stimuli/scenes/071b.jpg,stimuli/scenes/071a.jpg,stimuli/objects/103b.jpg,target,dist2,dist1,lure,0,0,0,0,0,62,62,38,,,,,,,433.65193159878254,434.6805329900235,434.6805329900235,434.6805329900235,434.6805329900235,437.68773932009935,437.68773932009935,437.68773932009935,437.68773932009935,None,,,,,,,,,,ST02_112822,2022-11-29_11h51.19.781,Hippopolis_Updating,2022.2.2,59.89490256945426,
Hippopolis,stimuli/subj_files/ST02_112822_cityA.csv,./stimuli/seattle.jpg,./stimuli/street_plate1.png,./stimuli/videos/hippopolis_part1.mp4,ÁRNYÉK UTCA,stimuli/objects/035a.jpg,object,1,stimuli/objects/059a.jpg,stimuli/objects/059a.jpg,stimuli/scenes/078b.jpg,stimuli/objects/059b.jpg,stimuli/scenes/078a.jpg,target,dist2,lure,dist1,0,0,0,0,0,63,63,29,,,,,,,439.6590698175132,440.67941088043153,440.67941088043153,440.67941088043153,440.67941088043153,443.68511940166354,443.68511940166354,443.68511940166354,443.68511940166354,None,,,,,,,,,,ST02_112822,2022-11-29_11h51.19.781,Hippopolis_Updating,2022.2.2,59.89490256945426,
Hippopolis,stimuli/subj_files/ST02_112822_cityA.csv,./stimuli/seattle.jpg,./stimuli/street_plate1.png,./stimuli/videos/hippopolis_part1.mp4,HAJÓ UTCA,stimuli/objects/021a.jpg,object,2,stimuli/scenes/015a.jpg,stimuli/scenes/015b.jpg,stimuli/scenes/090b.jpg,stimuli/scenes/015a.jpg,stimuli/scenes/090a.jpg,lure,dist2,target,dist1,0,0,0,0,0,64,64,57,,,,,,,445.66277048178017,446.6726813223213,446.6726813223213,446.6726813223213,446.6726813223213,449.69913334958255,449.69913334958255,449.69913334958255,449.69913334958255,None,,,,,,,,,,ST02_112822,2022-11-29_11h51.19.781,Hippopolis_Updating,2022.2.2,59.89490256945426,
Hippopolis,stimuli/subj_files/ST02_112822_cityA.csv,./stimuli/seattle.jpg,./stimuli/street_plate1.png,./stimuli/videos/hippopolis_part1.mp4,BETON UTCA,stimuli/scenes/022a.jpg,scene,1,stimuli/scenes/077a.jpg,stimuli/scenes/084b.jpg,stimuli/scenes/077b.jpg,stimuli/scenes/084a.jpg,stimuli/scenes/077a.jpg,dist2,lure,dist1,target,0,0,0,0,0,65,65,0,,,,,,,451.6702243722975,452.6961178313941,452.6961178313941,452.6961178313941,452.6961178313941,455.70168360322714,455.70168360322714,455.70168360322714,455.70168360322714,None,,,,,,,,,,ST02_112822,2022-11-29_11h51.19.781,Hippopolis_Updating,2022.2.2,59.89490256945426,
Hippopolis,stimuli/subj_files/ST02_112822_cityA.csv,./stimuli/seattle.jpg,./stimuli/street_plate1.png,./stimuli/videos/hippopolis_part1.mp4,KÖTÉL UTCA,stimuli/scenes/118a.jpg,scene,0,stimuli/scenes/118a.jpg,stimuli/scenes/118b.jpg,stimuli/scenes/037a.jpg,stimuli/scenes/037b.jpg,stimuli/scenes/118a.jpg,lure,dist1,dist2,target,0,0,0,0,0,66,66,32,,,,,,,457.6839761417359,458.7022617626935,458.7022617626935,458.7022617626935,458.7022617626935,461.72699579037726,461.72699579037726,461.72699579037726,461.72699579037726,None,,,,,,,,,,ST02_112822,2022-11-29_11h51.19.781,Hippopolis_Updating,2022.2.2,59.89490256945426,
Hippopolis,stimuli/subj_files/ST02_112822_cityA.csv,./stimuli/seattle.jpg,./stimuli/street_plate1.png,./stimuli/videos/hippopolis_part1.mp4,RIBIZLI UTCA,stimuli/objects/118a.jpg,object,2,stimuli/scenes/023a.jpg,stimuli/scenes/023a.jpg,stimuli/objects/008b.jpg,stimuli/scenes/023b.jpg,stimuli/objects/008a.jpg,target,dist2,lure,dist1,0,0,0,0,0,67,67,79,,,,,,,463.69294774346054,464.7209855914116,464.7209855914116,464.7209855914116,464.7209855914116,467.7084374167025,467.7084374167025,467.7084374167025,467.7084374167025,None,,,,,,,,,,ST02_112822,2022-11-29_11h51.19.781,Hippopolis_Updating,2022.2.2,59.89490256945426,
Hippopolis,stimuli/subj_files/ST02_112822_cityA.csv,./stimuli/seattle.jpg,./stimuli/street_plate1.png,./stimuli/videos/hippopolis_part1.mp4,FÓKA UTCA,stimuli/objects/041a.jpg,object,0,stimuli/objects/041a.jpg,stimuli/objects/061a.jpg,stimuli/objects/041b.jpg,stimuli/objects/061b.jpg,stimuli/objects/041a.jpg,dist1,lure,dist2,target,0,0,0,0,0,68,68,39,,,,,,,469.70440552942455,470.716812197119,470.716812197119,470.716812197119,470.716812197119,473.73300132341683,473.73300132341683,473.73300132341683,473.73300132341683,None,,,,,,,,,,ST02_112822,2022-11-29_11h51.19.781,Hippopolis_Updating,2022.2.2,59.89490256945426,
Hippopolis,stimuli/subj_files/ST02_112822_cityA.csv,./stimuli/seattle.jpg,./stimuli/street_plate1.png,./stimuli/videos/hippopolis_part1.mp4,TÜKÖR UTCA,stimuli/scenes/080a.jpg,scene,0,stimuli/scenes/080a.jpg,stimuli/scenes/065a.jpg,stimuli/scenes/065b.jpg,stimuli/scenes/080b.jpg,stimuli/scenes/080a.jpg,dist1,dist2,lure,target,0,0,0,0,0,69,69,5,,,,,,,475.71797878295183,476.74641813896596,476.74641813896596,476.74641813896596,476.74641813896596,479.74790537171066,479.74790537171066,479.74790537171066,479.74790537171066,None,,,,,,,,,,ST02_112822,2022-11-29_11h51.19.781,Hippopolis_Updating,2022.2.2,59.89490256945426,
Hippopolis,stimuli/subj_files/ST02_112822_cityA.csv,./stimuli/seattle.jpg,./stimuli/street_plate1.png,./stimuli/videos/hippopolis_part1.mp4,MÁLNA UTCA,stimuli/objects/109a.jpg,object,1,stimuli/objects/028a.jpg,stimuli/objects/115a.jpg,stimuli/objects/028a.jpg,stimuli/objects/028b.jpg,stimuli/objects/115b.jpg,dist1,target,lure,dist2,0,0,0,0,0,70,70,14,,,,,,,481.7306454498321,482.75608484074473,482.75608484074473,482.75608484074473,482.75608484074473,485.77696549892426,485.77696549892426,485.77696549892426,485.77696549892426,None,,,,,,,,,,ST02_112822,2022-11-29_11h51.19.781,Hippopolis_Updating,2022.2.2,59.89490256945426,
Hippopolis,stimuli/subj_files/ST02_112822_cityA.csv,./stimuli/seattle.jpg,./stimuli/street_plate1.png,./stimuli/videos/hippopolis_part1.mp4,TRIATLON UTCA,stimuli/objects/026a.jpg,object,1,stimuli/objects/068a.jpg,stimuli/scenes/111b.jpg,stimuli/objects/068a.jpg,stimuli/scenes/111a.jpg,stimuli/objects/068b.jpg,dist2,target,dist1,lure,0,0,0,0,0,71,71,35,,,,,,,487.7313775587827,488.7581561431289,488.7581561431289,488.7581561431289,488.7581561431289,491.7672285102308,491.7672285102308,491.7672285102308,491.7672285102308,None,,,,,,,,,,ST02_112822,2022-11-29_11h51.19.781,Hippopolis_Updating,2022.2.2,59.89490256945426,
Hippopolis,stimuli/subj_files/ST02_112822_cityA.csv,./stimuli/seattle.jpg,./stimuli/street_plate1.png,./stimuli/videos/hippopolis_part1.mp4,SIVATAG UTCA,stimuli/scenes/061a.jpg,scene,0,stimuli/scenes/061a.jpg,stimuli/scenes/061b.jpg,stimuli/objects/087b.jpg,stimuli/objects/087a.jpg,stimuli/scenes/061a.jpg,lure,dist2,dist1,target,0,0,0,0,0,72,72,18,,,,,,,493.73861685581505,494.7554339040071,494.7554339040071,494.7554339040071,494.7554339040071,497.77909122779965,497.77909122779965,497.77909122779965,497.77909122779965,None,494.7554339040071,,,,,,,,,ST02_112822,2022-11-29_11h51.19.781,Hippopolis_Updating,2022.2.2,59.89490256945426,
Hippopolis,stimuli/subj_files/ST02_112822_cityA.csv,./stimuli/seattle.jpg,./stimuli/street_plate1.png,./stimuli/videos/hippopolis_part1.mp4,KOSÁR UTCA,stimuli/scenes/088a.jpg,scene,2,stimuli/objects/003a.jpg,stimuli/objects/003b.jpg,stimuli/scenes/096b.jpg,stimuli/scenes/096a.jpg,stimuli/objects/003a.jpg,lure,dist2,dist1,target,0,0,0,0,0,73,73,68,,,,,,,499.75548926368356,500.78701380454004,500.78701380454004,500.78701380454004,500.78701380454004,503.802427591756,503.802427591756,503.802427591756,503.802427591756,None,,,,,,,,,,ST02_112822,2022-11-29_11h51.19.781,Hippopolis_Updating,2022.2.2,59.89490256945426,
Hippopolis,stimuli/subj_files/ST02_112822_cityA.csv,./stimuli/seattle.jpg,./stimuli/street_plate1.png,./stimuli/videos/hippopolis_part1.mp4,HARMONIKA UTCA,stimuli/objects/092a.jpg,object,1,stimuli/objects/057a.jpg,stimuli/objects/063a.jpg,stimuli/objects/057a.jpg,stimuli/objects/063b.jpg,stimuli/objects/057b.jpg,dist1,target,dist2,lure,0,0,0,0,0,74,74,58,,,,,,,505.7632003556937,506.77269071526825,506.77269071526825,506.77269071526825,506.77269071526825,509.79390570521355,509.79390570521355,509.79390570521355,509.79390570521355,None,,,,,,,,,,ST02_112822,2022-11-29_11h51.19.781,Hippopolis_Updating,2022.2.2,59.89490256945426,
Hippopolis,stimuli/subj_files/ST02_112822_cityA.csv,./stimuli/seattle.jpg,./stimuli/street_plate1.png,./stimuli/videos/hippopolis_part1.mp4,KORONA UTCA,stimuli/scenes/115a.jpg,scene,1,stimuli/scenes/044a.jpg,stimuli/scenes/070b.jpg,stimuli/scenes/044b.jpg,stimuli/scenes/070a.jpg,stimuli/scenes/044a.jpg,dist2,lure,dist1,target,0,0,0,0,0,75,75,12,,,,,,,511.77844868786633,512.805723015219,512.805723015219,512.805723015219,512.805723015219,515.7965881358832,515.7965881358832,515.7965881358832,515.7965881358832,None,,,,,,,,,,ST02_112822,2022-11-29_11h51.19.781,Hippopolis_Updating,2022.2.2,59.89490256945426,
Hippopolis,stimuli/subj_files/ST02_112822_cityA.csv,./stimuli/seattle.jpg,./stimuli/street_plate1.png,./stimuli/videos/hippopolis_part1.mp4,SZÖCSKE UTCA,stimuli/objects/081a.jpg,object,1,stimuli/objects/038a.jpg,stimuli/scenes/099a.jpg,stimuli/objects/038b.jpg,stimuli/objects/038a.jpg,stimuli/scenes/099b.jpg,dist1,lure,target,dist2,0,0,0,0,0,76,76,66,,,,,,,517.7793338112533,518.8081709463149,518.8081709463149,518.8081709463149,518.8081709463149,521.8120647463948,521.8120647463948,521.8120647463948,521.8120647463948,None,,,,,,,,,,ST02_112822,2022-11-29_11h51.19.781,Hippopolis_Updating,2022.2.2,59.89490256945426,
Hippopolis,stimuli/subj_files/ST02_112822_cityA.csv,./stimuli/seattle.jpg,./stimuli/street_plate1.png,./stimuli/videos/hippopolis_part1.mp4,SIRÁLY UTCA,stimuli/objects/055a.jpg,object,0,stimuli/objects/055a.jpg,stimuli/objects/055b.jpg,stimuli/objects/085b.jpg,stimuli/objects/085a.jpg,stimuli/objects/055a.jpg,lure,dist2,dist1,target,0,0,0,0,0,77,77,19,,,,,,,523.7920309584588,524.8202970866114,524.8202970866114,524.8202970866114,524.8202970866114,527.8191395197064,527.8191395197064,527.8191395197064,527.8191395197064,None,,,,,,,,,,ST02_112822,2022-11-29_11h51.19.781,Hippopolis_Updating,2022.2.2,59.89490256945426,
Hippopolis,stimuli/subj_files/ST02_112822_cityA.csv,./stimuli/seattle.jpg,./stimuli/street_plate1.png,./stimuli/videos/hippopolis_part1.mp4,LÉTRA UTCA,stimuli/objects/048a.jpg,object,1,stimuli/objects/005a.jpg,stimuli/scenes/039b.jpg,stimuli/objects/005b.jpg,stimuli/scenes/039a.jpg,stimuli/objects/005a.jpg,dist2,lure,dist1,target,0,0,0,0,0,78,78,7,,,,,,,529.7941007073969,530.8034669756889,530.8034669756889,530.8034669756889,530.8034669756889,533.8450914490968,533.8450914490968,533.8450914490968,533.8450914490968,None,,,,,,,,,,ST02_112822,2022-11-29_11h51.19.781,Hippopolis_Updating,2022.2.2,59.89490256945426,
Hippopolis,stimuli/subj_files/ST02_112822_cityA.csv,./stimuli/seattle.jpg,./stimuli/street_plate1.png,./stimuli/videos/hippopolis_part1.mp4,MENTA UTCA,stimuli/objects/058a.jpg,object,2,stimuli/scenes/090a.jpg,stimuli/scenes/090a.jpg,stimuli/scenes/090b.jpg,stimuli/scenes/046a.jpg,stimuli/scenes/046b.jpg,target,lure,dist1,dist2,0,0,0,0,0,79,79,51,,,,,,,535.8087376002222,536.8380536846817,536.8380536846817,536.8380536846817,536.8380536846817,539.8305982388556,539.8305982388556,539.8305982388556,539.8305982388556,None,,,,,,,,,,ST02_112822,2022-11-29_11h51.19.781,Hippopolis_Updating,2022.2.2,59.89490256945426,
Camponello,stimuli/subj_files/ST02_112822_cityB.csv,./stimuli/arnedillo.png,./stimuli/street_plate2.png,./stimuli/videos/camponello_part1.mp4,MOSODA UTCA,stimuli/objects/045a.jpg,object,0,stimuli/objects/045a.jpg,stimuli/objects/045b.jpg,stimuli/scenes/050a.jpg,stimuli/objects/045a.jpg,stimuli/scenes/050b.jpg,lure,dist1,target,dist2,0,1,1,1,0,0,0,1,,,,,550.179715976119,550.179715976119,553.1312020905316,554.1459229551256,554.1459229551256,554.1459229551256,554.1459229551256,557.1338450219482,557.1338450219482,557.1338450219482,557.1338450219482,None,,,,,541.812767310068,541.812767310068,space,8.265131482854486,,ST02_112822,2022-11-29_11h51.19.781,Hippopolis_Updating,2022.2.2,59.89490256945426,
Camponello,stimuli/subj_files/ST02_112822_cityB.csv,./stimuli/arnedillo.png,./stimuli/street_plate2.png,./stimuli/videos/camponello_part1.mp4,TORONY UTCA,stimuli/scenes/066a.jpg,scene,0,stimuli/scenes/066a.jpg,stimuli/scenes/056b.jpg,stimuli/scenes/056a.jpg,stimuli/scenes/066b.jpg,stimuli/scenes/066a.jpg,dist2,dist1,lure,target,0,1,1,1,0,1,1,76,,,,,,,559.1251813173294,560.1528540439904,560.1528540439904,560.1528540439904,560.1528540439904,563.1510809957981,563.1510809957981,563.1510809957981,563.1510809957981,None,,,,,,,,,,ST02_112822,2022-11-29_11h51.19.781,Hippopolis_Updating,2022.2.2,59.89490256945426,
Camponello,stimuli/subj_files/ST02_112822_cityB.csv,./stimuli/arnedillo.png,./stimuli/street_plate2.png,./stimuli/videos/camponello_part1.mp4,ORVOS UTCA,stimuli/scenes/097a.jpg,scene,0,stimuli/scenes/097a.jpg,stimuli/objects/044a.jpg,stimuli/scenes/097a.jpg,stimuli/scenes/097b.jpg,stimuli/objects/044b.jpg,dist1,target,lure,dist2,0,1,1,1,0,2,2,57,,,,,,,565.1333865989,566.1570566724986,566.1570566724986,566.1570566724986,566.1570566724986,569.1650958769023,569.1650958769023,569.1650958769023,569.1650958769023,None,,,,,,,,,,ST02_112822,2022-11-29_11h51.19.781,Hippopolis_Updating,2022.2.2,59.89490256945426,
Camponello,stimuli/subj_files/ST02_112822_cityB.csv,./stimuli/arnedillo.png,./stimuli/street_plate2.png,./stimuli/videos/camponello_part1.mp4,SZOMSZÉD UTCA,stimuli/objects/034a.jpg,object,2,stimuli/scenes/017a.jpg,stimuli/objects/036a.jpg,stimuli/scenes/017a.jpg,stimuli/scenes/017b.jpg,stimuli/objects/036b.jpg,dist1,target,lure,dist2,0,1,1,1,0,3,3,7,,,,,,,571.1495237872005,572.1690596546978,572.1690596546978,572.1690596546978,572.1690596546978,575.1719367746264,575.1719367746264,575.1719367746264,575.1719367746264,None,,,,,,,,,,ST02_112822,2022-11-29_11h51.19.781,Hippopolis_Updating,2022.2.2,59.89490256945426,
Camponello,stimuli/subj_files/ST02_112822_cityB.csv,./stimuli/arnedillo.png,./stimuli/street_plate2.png,./stimuli/videos/camponello_part1.mp4,TELEP UTCA,stimuli/scenes/033a.jpg,scene,0,stimuli/scenes/033a.jpg,stimuli/scenes/033b.jpg,stimuli/objects/018a.jpg,stimuli/objects/018b.jpg,stimuli/scenes/033a.jpg,lure,dist1,dist2,target,0,1,1,1,0,4,4,67,,,,,,,577.1578540932387,578.1840793956071,578.1840793956071,578.1840793956071,578.1840793956071,581.2061888407916,581.2061888407916,581.2061888407916,581.2061888407916,None,,,,,,,,,,ST02_112822,2022-11-29_11h51.19.781,Hippopolis_Updating,2022.2.2,59.89490256945426,
Camponello,stimuli/subj_files/ST02_112822_cityB.csv,./stimuli/arnedillo.png,./stimuli/street_plate2.png,./stimuli/videos/camponello_part1.mp4,MOGYORÓ UTCA,stimuli/objects/088a.jpg,object,1,stimuli/objects/056a.jpg,stimuli/objects/056a.jpg,stimuli/objects/052b.jpg,stimuli/objects/052a.jpg,stimuli/objects/056b.jpg,target,dist2,dist1,lure,0,1,1,1,0,5,5,53,,,,,,,583.1625795252621,584.1918570436537,584.1918570436537,584.1918570436537,584.1918570436537,587.2113891784102,587.2113891784102,587.2113891784102,587.2113891784102,None,,,,,,,,,,ST02_112822,2022-11-29_11h51.19.781,Hippopolis_Updating,2022.2.2,59.89490256945426,
Camponello,stimuli/subj_files/ST02_112822_cityB.csv,./stimuli/arnedillo.png,./stimuli/street_plate2.png,./stimuli/videos/camponello_part1.mp4,SÜTEMÉNY UTCA,stimuli/scenes/102a.jpg,scene,0,stimuli/scenes/102a.jpg,stimuli/scenes/102a.jpg,stimuli/scenes/102b.jpg,stimuli/scenes/089b.jpg,stimuli/scenes/089a.jpg,target,lure,dist2,dist1,0,1,1,1,0,6,6,62,,,,,,,589.1651941556484,590.1873048432171,590.1873048432171,590.1873048432171,590.1873048432171,593.1880860924721,593.1880860924721,593.1880860924721,593.1880860924721,None,,,,,,,,,,ST02_112822,2022-11-29_11h51.19.781,Hippopolis_Updating,2022.2.2,59.89490256945426,
Camponello,stimuli/subj_files/ST02_112822_cityB.csv,./stimuli/arnedillo.png,./stimuli/street_plate2.png,./stimuli/videos/camponello_part1.mp4,SZŐLŐ UTCA,stimuli/objects/031a.jpg,object,0,stimuli/objects/031a.jpg,stimuli/scenes/097a.jpg,stimuli/scenes/097b.jpg,stimuli/objects/031b.jpg,stimuli/objects/031a.jpg,dist1,dist2,lure,target,0,1,1,1,0,7,7,46,,,,,,,595.1795769575983,596.2055148892105,596.2055148892105,596.2055148892105,596.2055148892105,599.2240082640201,599.2240082640201,599.2240082640201,599.2240082640201,None,,,,,,,,,,ST02_112822,2022-11-29_11h51.19.781,Hippopolis_Updating,2022.2.2,59.89490256945426,
Camponello,stimuli/subj_files/ST02_112822_cityB.csv,./stimuli/arnedillo.png,./stimuli/street_plate2.png,./stimuli/videos/camponello_part1.mp4,ASZTAL UTCA,stimuli/objects/049a.jpg,object,0,stimuli/objects/049a.jpg,stimuli/objects/090b.jpg,stimuli/objects/049b.jpg,stimuli/objects/049a.jpg,stimuli/objects/090a.jpg,dist2,lure,target,dist1,0,1,1,1,0,8,8,15,,,,,,,601.1957890987396,602.2172476053238,602.2172476053238,602.2172476053238,602.2172476053238,605.2269345223904,605.2269345223904,605.2269345223904,605.2269345223904,None,,,,,,,,,,ST02_112822,2022-11-29_11h51.19.781,Hippopolis_Updating,2022.2.2,59.89490256945426,
Camponello,stimuli/subj_files/ST02_112822_cityB.csv,./stimuli/arnedillo.png,./stimuli/street_plate2.png,./stimuli/videos/camponello_part1.mp4,KERET UTCA,stimuli/objects/009a.jpg,object,0,stimuli/objects/009a.jpg,stimuli/objects/066a.jpg,stimuli/objects/009b.jpg,stimuli/objects/066b.jpg,stimuli/objects/009a.jpg,dist1,lure,dist2,target,0,1,1,1,0,9,9,41,,,,,,,607.2008886691183,608.2268458846956,608.2268458846956,608.2268458846956,608.2268458846956,611.2335950359702,611.2335950359702,611.2335950359702,611.2335950359702,None,,,,,,,,,,ST02_112822,2022-11-29_11h51.19.781,Hippopolis_Updating,2022.2.2,59.89490256945426,
Camponello,stimuli/subj_files/ST02_112822_cityB.csv,./stimuli/arnedillo.png,./stimuli/street_plate2.png,./stimuli/videos/camponello_part1.mp4,KÖTÉNY UTCA,stimuli/scenes/082a.jpg,scene,1,stimuli/scenes/085a.jpg,stimuli/scenes/085a.jpg,stimuli/objects/012b.jpg,stimuli/objects/012a.jpg,stimuli/scenes/085b.jpg,target,dist2,dist1,lure,0,1,1,1,0,10,10,35,,,,,,,613.2146034296602,614.2367987111211,614.2367987111211,614.2367987111211,614.2367987111211,617.2500031106174,617.2500031106174,617.2500031106174,617.2500031106174,None,,,,,,,,,,ST02_112822,2022-11-29_11h51.19.781,Hippopolis_Updating,2022.2.2,59.89490256945426,
Camponello,stimuli/subj_files/ST02_112822_cityB.csv,./stimuli/arnedillo.png,./stimuli/street_plate2.png,./stimuli/videos/camponello_part1.mp4,PADLÓ UTCA,stimuli/scenes/043a.jpg,scene,2,stimuli/objects/043a.jpg,stimuli/scenes/120a.jpg,stimuli/objects/043a.jpg,stimuli/scenes/120b.jpg,stimuli/objects/043b.jpg,dist1,target,dist2,lure,0,1,1,1,0,11,11,29,,,,,,,619.2158997040242,620.2367268688977,620.2367268688977,620.2367268688977,620.2367268688977,623.2664180286229,623.2664180286229,623.2664180286229,623.2664180286229,None,,,,,,,,,,ST02_112822,2022-11-29_11h51.19.781,Hippopolis_Updating,2022.2.2,59.89490256945426,
Camponello,stimuli/subj_files/ST02_112822_cityB.csv,./stimuli/arnedillo.png,./stimuli/street_plate2.png,./stimuli/videos/camponello_part1.mp4,KÖMÉNYMAG UTCA,stimuli/objects/111a.jpg,object,2,stimuli/scenes/005a.jpg,stimuli/scenes/005b.jpg,stimuli/scenes/064a.jpg,stimuli/scenes/064b.jpg,stimuli/scenes/005a.jpg,lure,dist1,dist2,target,0,1,1,1,0,12,12,5,,,,,,,625.2271351218224,626.2562568262219,626.2562568262219,626.2562568262219,626.2562568262219,629.2561429981142,629.2561429981142,629.2561429981142,629.2561429981142,None,,,,,,,,,,ST02_112822,2022-11-29_11h51.19.781,Hippopolis_Updating,2022.2.2,59.89490256945426,
Camponello,stimuli/subj_files/ST02_112822_cityB.csv,./stimuli/arnedillo.png,./stimuli/street_plate2.png,./stimuli/videos/camponello_part1.mp4,SZOBOR UTCA,stimuli/objects/114a.jpg,object,0,stimuli/objects/114a.jpg,stimuli/objects/113a.jpg,stimuli/objects/113b.jpg,stimuli/objects/114b.jpg,stimuli/objects/114a.jpg,dist1,dist2,lure,target,0,1,1,1,0,13,13,18,,,,,,,631.2431786973029,632.268131673336,632.268131673336,632.268131673336,632.268131673336,635.2762573361397,635.2762573361397,635.2762573361397,635.2762573361397,None,,,,,,,,,,ST02_112822,2022-11-29_11h51.19.781,Hippopolis_Updating,2022.2.2,59.89490256945426,
Camponello,stimuli/subj_files/ST02_112822_cityB.csv,./stimuli/arnedillo.png,./stimuli/street_plate2.png,./stimuli/videos/camponello_part1.mp4,BOHÓC UTCA,stimuli/objects/044a.jpg,object,0,stimuli/objects/044a.jpg,stimuli/objects/112b.jpg,stimuli/objects/044a.jpg,stimuli/objects/112a.jpg,stimuli/objects/044b.jpg,dist2,target,dist1,lure,0,1,1,1,0,14,14,49,,,,,,,637.2487385589629,638.2749980725348,638.2749980725348,638.2749980725348,638.2749980725348,641.2650306280702,641.2650306280702,641.2650306280702,641.2650306280702,None,,,,,,,,,,ST02_112822,2022-11-29_11h51.19.781,Hippopolis_Updating,2022.2.2,59.89490256945426,
Camponello,stimuli/subj_files/ST02_112822_cityB.csv,./stimuli/arnedillo.png,./stimuli/street_plate2.png,./stimuli/videos/camponello_part1.mp4,KESZTYŰ UTCA,stimuli/objects/033a.jpg,object,0,stimuli/objects/033a.jpg,stimuli/objects/033b.jpg,stimuli/objects/027b.jpg,stimuli/objects/033a.jpg,stimuli/objects/027a.jpg,lure,dist2,target,dist1,0,1,1,1,0,15,15,37,,,,,,,643.257407238707,644.2743689063936,644.2743689063936,644.2743689063936,644.2743689063936,647.2827688772231,647.2827688772231,647.2827688772231,647.2827688772231,None,644.2743689063936,,,,,,,,,ST02_112822,2022-11-29_11h51.19.781,Hippopolis_Updating,2022.2.2,59.89490256945426,
Camponello,stimuli/subj_files/ST02_112822_cityB.csv,./stimuli/arnedillo.png,./stimuli/street_plate2.png,./stimuli/videos/camponello_part1.mp4,CSAVAR UTCA,stimuli/scenes/020a.jpg,scene,0,stimuli/scenes/020a.jpg,stimuli/objects/065a.jpg,stimuli/objects/065b.jpg,stimuli/scenes/020b.jpg,stimuli/scenes/020a.jpg,dist1,dist2,lure,target,0,1,1,1,0,16,16,10,,,,,,,649.2693128753453,650.2834456283599,650.2834456283599,650.2834456283599,650.2834456283599,653.3002225570381,653.3002225570381,653.3002225570381,653.3002225570381,None,,,,,,,,,,ST02_112822,2022-11-29_11h51.19.781,Hippopolis_Updating,2022.2.2,59.89490256945426,
Camponello,stimuli/subj_files/ST02_112822_cityB.csv,./stimuli/arnedillo.png,./stimuli/street_plate2.png,./stimuli/videos/camponello_part1.mp4,FÉSŰ UTCA,stimuli/scenes/109a.jpg,scene,0,stimuli/scenes/109a.jpg,stimuli/scenes/109a.jpg,stimuli/scenes/081a.jpg,stimuli/scenes/109b.jpg,stimuli/scenes/081b.jpg,target,dist1,lure,dist2,0,1,1,1,0,17,17,71,,,,,,,655.27033017762,656.2914801668376,656.2914801668376,656.2914801668376,656.2914801668376,659.29535965994,659.29535965994,659.29535965994,659.29535965994,None,,,,,,,,,,ST02_112822,2022-11-29_11h51.19.781,Hippopolis_Updating,2022.2.2,59.89490256945426,
Camponello,stimuli/subj_files/ST02_112822_cityB.csv,./stimuli/arnedillo.png,./stimuli/street_plate2.png,./stimuli/videos/camponello_part1.mp4,FOLYÓ UTCA,stimuli/scenes/098a.jpg,scene,0,stimuli/scenes/098a.jpg,stimuli/scenes/098a.jpg,stimuli/scenes/030a.jpg,stimuli/scenes/098b.jpg,stimuli/scenes/030b.jpg,target,dist1,lure,dist2,0,1,1,1,0,18,18,70,,,,,,,661.2824401445687,662.3126743193716,662.3126743193716,662.3126743193716,662.3126743193716,665.3221768084913,665.3221768084913,665.3221768084913,665.3221768084913,None,,,,,,,,,,ST02_112822,2022-11-29_11h51.19.781,Hippopolis_Updating,2022.2.2,59.89490256945426,
Camponello,stimuli/subj_files/ST02_112822_cityB.csv,./stimuli/arnedillo.png,./stimuli/street_plate2.png,./stimuli/videos/camponello_part1.mp4,LÉPCSŐ UTCA,stimuli/objects/018a.jpg,object,0,stimuli/objects/018a.jpg,stimuli/objects/101b.jpg,stimuli/objects/101a.jpg,stimuli/objects/018a.jpg,stimuli/objects/018b.jpg,dist2,dist1,target,lure,0,1,1,1,0,19,19,75,,,,,,,667.299208054319,668.3312112335116,668.3312112335116,668.3312112335116,668.3312112335116,671.3440623283386,671.3440623283386,671.3440623283386,671.3440623283386,None,,,,,,,,,,ST02_112822,2022-11-29_11h51.19.781,Hippopolis_Updating,2022.2.2,59.89490256945426,
Camponello,stimuli/subj_files/ST02_112822_cityB.csv,./stimuli/arnedillo.png,./stimuli/street_plate2.png,./stimuli/videos/camponello_part1.mp4,TENISZ UTCA,stimuli/objects/065a.jpg,object,0,stimuli/objects/065a.jpg,stimuli/objects/065a.jpg,stimuli/objects/065b.jpg,stimuli/objects/069a.jpg,stimuli/objects/069b.jpg,target,lure,dist1,dist2,0,1,1,1,0,20,20,45,,,,,,,673.3104182798415,674.339323213324,674.339323213324,674.339323213324,674.339323213324,677.3318910934031,677.3318910934031,677.3318910934031,677.3318910934031,None,,,,,,,,,,ST02_112822,2022-11-29_11h51.19.781,Hippopolis_Updating,2022.2.2,59.89490256945426,
Camponello,stimuli/subj_files/ST02_112822_cityB.csv,./stimuli/arnedillo.png,./stimuli/street_plate2.png,./stimuli/videos/camponello_part1.mp4,SZIKLA UTCA,stimuli/scenes/012a.jpg,scene,1,stimuli/scenes/116a.jpg,stimuli/objects/056a.jpg,stimuli/scenes/116b.jpg,stimuli/objects/056b.jpg,stimuli/scenes/116a.jpg,dist1,lure,dist2,target,0,1,1,1,0,21,21,34,,,,,,,679.3236998077482,680.3334405273199,680.3334405273199,680.3334405273199,680.3334405273199,683.34903469868,683.34903469868,683.34903469868,683.34903469868,None,,,,,,,,,,ST02_112822,2022-11-29_11h51.19.781,Hippopolis_Updating,2022.2.2,59.89490256945426,
Camponello,stimuli/subj_files/ST02_112822_cityB.csv,./stimuli/arnedillo.png,./stimuli/street_plate2.png,./stimuli/videos/camponello_part1.mp4,REPÜLŐ UTCA,stimuli/objects/119a.jpg,object,2,stimuli/scenes/101a.jpg,stimuli/objects/084a.jpg,stimuli/scenes/101a.jpg,stimuli/objects/084b.jpg,stimuli/scenes/101b.jpg,dist1,target,dist2,lure,0,1,1,1,0,22,22,4,,,,,,,685.3323196601123,686.358117017895,686.358117017895,686.358117017895,686.358117017895,689.3540994375944,689.3540994375944,689.3540994375944,689.3540994375944,None,,,,,,,,,,ST02_112822,2022-11-29_11h51.19.781,Hippopolis_Updating,2022.2.2,59.89490256945426,
Camponello,stimuli/subj_files/ST02_112822_cityB.csv,./stimuli/arnedillo.png,./stimuli/street_plate2.png,./stimuli/videos/camponello_part1.mp4,NARANCS UTCA,stimuli/objects/093a.jpg,object,2,stimuli/scenes/064a.jpg,stimuli/scenes/064a.jpg,stimuli/objects/043b.jpg,stimuli/objects/043a.jpg,stimuli/scenes/064b.jpg,target,dist2,dist1,lure,0,1,1,1,0,23,23,27,,,,,,,691.3431653864682,692.3617296684533,692.3617296684533,692.3617296684533,692.3617296684533,695.3740806654096,695.3740806654096,695.3740806654096,695.3740806654096,None,,,,,,,,,,ST02_112822,2022-11-29_11h51.19.781,Hippopolis_Updating,2022.2.2,59.89490256945426,
Camponello,stimuli/subj_files/ST02_112822_cityB.csv,./stimuli/arnedillo.png,./stimuli/street_plate2.png,./stimuli/videos/camponello_part1.mp4,LOVAGLÁS UTCA,stimuli/scenes/029a.jpg,scene,0,stimuli/scenes/029a.jpg,stimuli/scenes/029b.jpg,stimuli/scenes/083a.jpg,stimuli/scenes/083b.jpg,stimuli/scenes/029a.jpg,lure,dist1,dist2,target,0,1,1,1,0,24,24,42,,,,,,,697.3562855012715,698.3837184421718,698.3837184421718,698.3837184421718,698.3837184421718,701.3755287118256,701.3755287118256,701.3755287118256,701.3755287118256,None,,,,,,,,,,ST02_112822,2022-11-29_11h51.19.781,Hippopolis_Updating,2022.2.2,59.89490256945426,
Camponello,stimuli/subj_files/ST02_112822_cityB.csv,./stimuli/arnedillo.png,./stimuli/street_plate2.png,./stimuli/videos/camponello_part1.mp4,LEMEZ UTCA,stimuli/scenes/041a.jpg,scene,0,stimuli/scenes/041a.jpg,stimuli/objects/030b.jpg,stimuli/objects/030a.jpg,stimuli/scenes/041a.jpg,stimuli/scenes/041b.jpg,dist2,dist1,target,lure,0,1,1,1,0,25,25,51,,,,,,,703.3602225314826,704.38515031524,704.38515031524,704.38515031524,704.38515031524,707.3815270923078,707.3815270923078,707.3815270923078,707.3815270923078,None,,,,,,,,,,ST02_112822,2022-11-29_11h51.19.781,Hippopolis_Updating,2022.2.2,59.89490256945426,
Camponello,stimuli/subj_files/ST02_112822_cityB.csv,./stimuli/arnedillo.png,./stimuli/street_plate2.png,./stimuli/videos/camponello_part1.mp4,VIHAR UTCA,stimuli/objects/054a.jpg,object,0,stimuli/objects/054a.jpg,stimuli/objects/054b.jpg,stimuli/scenes/060a.jpg,stimuli/objects/054a.jpg,stimuli/scenes/060b.jpg,lure,dist1,target,dist2,0,1,1,1,0,26,26,69,,,,,,,709.3694429378957,710.3865849878639,710.3865849878639,710.3865849878639,710.3865849878639,713.3970789667219,713.3970789667219,713.3970789667219,713.3970789667219,None,710.3865849878639,,,,,,,,,ST02_112822,2022-11-29_11h51.19.781,Hippopolis_Updating,2022.2.2,59.89490256945426,
Camponello,stimuli/subj_files/ST02_112822_cityB.csv,./stimuli/arnedillo.png,./stimuli/street_plate2.png,./stimuli/videos/camponello_part1.mp4,VÁSÁR UTCA,stimuli/scenes/067a.jpg,scene,2,stimuli/objects/080a.jpg,stimuli/objects/080a.jpg,stimuli/scenes/017b.jpg,stimuli/objects/080b.jpg,stimuli/scenes/017a.jpg,target,dist2,lure,dist1,0,1,1,1,0,27,27,19,,,,,,,715.376518022269,716.4082621335983,716.4082621335983,716.4082621335983,716.4082621335983,719.4208740647882,719.4208740647882,719.4208740647882,719.4208740647882,None,,,,,,,,,,ST02_112822,2022-11-29_11h51.19.781,Hippopolis_Updating,2022.2.2,59.89490256945426,
Camponello,stimuli/subj_files/ST02_112822_cityB.csv,./stimuli/arnedillo.png,./stimuli/street_plate2.png,./stimuli/videos/camponello_part1.mp4,PULÓVER UTCA,stimuli/objects/062a.jpg,object,0,stimuli/objects/062a.jpg,stimuli/objects/076a.jpg,stimuli/objects/076b.jpg,stimuli/objects/062a.jpg,stimuli/objects/062b.jpg,dist1,dist2,target,lure,0,1,1,1,0,28,28,12,,,,,,,721.3849662002176,722.407637944445,722.407637944445,722.407637944445,722.407637944445,725.4019409287721,725.4019409287721,725.4019409287721,725.4019409287721,None,,,,,,,,,,ST02_112822,2022-11-29_11h51.19.781,Hippopolis_Updating,2022.2.2,59.89490256945426,
Camponello,stimuli/subj_files/ST02_112822_cityB.csv,./stimuli/arnedillo.png,./stimuli/street_plate2.png,./stimuli/videos/camponello_part1.mp4,DOMINÓ UTCA,stimuli/scenes/034a.jpg,scene,2,stimuli/objects/036a.jpg,stimuli/objects/036b.jpg,stimuli/objects/036a.jpg,stimuli/objects/080b.jpg,stimuli/objects/080a.jpg,lure,target,dist2,dist1,0,1,1,1,0,29,29,38,,,,,,,727.4015596359968,728.4196648728102,728.4196648728102,728.4196648728102,728.4196648728102,731.4294942300767,731.4294942300767,731.4294942300767,731.4294942300767,None,,,,,,,,,,ST02_112822,2022-11-29_11h51.19.781,Hippopolis_Updating,2022.2.2,59.89490256945426,
Camponello,stimuli/subj_files/ST02_112822_cityB.csv,./stimuli/arnedillo.png,./stimuli/street_plate2.png,./stimuli/videos/camponello_part1.mp4,BOLYGÓ UTCA,stimuli/objects/015a.jpg,object,0,stimuli/objects/015a.jpg,stimuli/scenes/066a.jpg,stimuli/objects/015a.jpg,stimuli/scenes/066b.jpg,stimuli/objects/015b.jpg,dist1,target,dist2,lure,0,1,1,1,0,30,30,13,,,,,,,733.4112241584808,734.4382422175258,734.4382422175258,734.4382422175258,734.4382422175258,737.4429881740361,737.4429881740361,737.4429881740361,737.4429881740361,None,,,,,,,,,,ST02_112822,2022-11-29_11h51.19.781,Hippopolis_Updating,2022.2.2,59.89490256945426,
Camponello,stimuli/subj_files/ST02_112822_cityB.csv,./stimuli/arnedillo.png,./stimuli/street_plate2.png,./stimuli/videos/camponello_part1.mp4,PÉKSÉG UTCA,stimuli/scenes/104a.jpg,scene,0,stimuli/scenes/104a.jpg,stimuli/scenes/104a.jpg,stimuli/objects/037b.jpg,stimuli/scenes/104b.jpg,stimuli/objects/037a.jpg,target,dist2,lure,dist1,0,1,1,1,0,31,31,50,,,,,,,739.4192723818123,740.450772665441,740.450772665441,740.450772665441,740.450772665441,743.4453795030713,743.4453795030713,743.4453795030713,743.4453795030713,None,,,,,,,,,,ST02_112822,2022-11-29_11h51.19.781,Hippopolis_Updating,2022.2.2,59.89490256945426,
Camponello,stimuli/subj_files/ST02_112822_cityB.csv,./stimuli/arnedillo.png,./stimuli/street_plate2.png,./stimuli/videos/camponello_part1.mp4,MANDARIN UTCA,stimuli/scenes/092a.jpg,scene,0,stimuli/scenes/092a.jpg,stimuli/scenes/092b.jpg,stimuli/scenes/092a.jpg,stimuli/scenes/002a.jpg,stimuli/scenes/002b.jpg,lure,target,dist1,dist2,0,1,1,1,0,32,32,79,,,,,,,745.4315356761217,746.4646491482854,746.4646491482854,746.4646491482854,746.4646491482854,749.4699614476413,749.4699614476413,749.4699614476413,749.4699614476413,None,,,,,,,,,,ST02_112822,2022-11-29_11h51.19.781,Hippopolis_Updating,2022.2.2,59.89490256945426,
Camponello,stimuli/subj_files/ST02_112822_cityB.csv,./stimuli/arnedillo.png,./stimuli/street_plate2.png,./stimuli/videos/camponello_part1.mp4,HORGONY UTCA,stimuli/scenes/054a.jpg,scene,0,stimuli/scenes/054a.jpg,stimuli/scenes/054b.jpg,stimuli/scenes/054a.jpg,stimuli/objects/062a.jpg,stimuli/objects/062b.jpg,lure,target,dist1,dist2,0,1,1,1,0,33,33,54,,,,,,,751.4441849272698,752.4720986839384,752.4720986839384,752.4720986839384,752.4720986839384,755.465068385005,755.465068385005,755.465068385005,755.465068385005,None,,,,,,,,,,ST02_112822,2022-11-29_11h51.19.781,Hippopolis_Updating,2022.2.2,59.89490256945426,
Camponello,stimuli/subj_files/ST02_112822_cityB.csv,./stimuli/arnedillo.png,./stimuli/street_plate2.png,./stimuli/videos/camponello_part1.mp4,CUKOR UTCA,stimuli/scenes/081a.jpg,scene,0,stimuli/scenes/081a.jpg,stimuli/scenes/081b.jpg,stimuli/scenes/081a.jpg,stimuli/scenes/007b.jpg,stimuli/scenes/007a.jpg,lure,target,dist2,dist1,0,1,1,1,0,34,34,23,,,,,,,757.4599697459489,758.4880156796426,758.4880156796426,758.4880156796426,758.4880156796426,761.4763722233474,761.4763722233474,761.4763722233474,761.4763722233474,None,,,,,,,,,,ST02_112822,2022-11-29_11h51.19.781,Hippopolis_Updating,2022.2.2,59.89490256945426,
Camponello,stimuli/subj_files/ST02_112822_cityB.csv,./stimuli/arnedillo.png,./stimuli/street_plate2.png,./stimuli/videos/camponello_part1.mp4,CSILLAG UTCA,stimuli/scenes/114a.jpg,scene,2,stimuli/objects/107a.jpg,stimuli/objects/110a.jpg,stimuli/objects/110b.jpg,stimuli/objects/107b.jpg,stimuli/objects/107a.jpg,dist1,dist2,lure,target,0,1,1,1,0,35,35,39,,,,,,,763.476769067347,764.5015161558986,764.5015161558986,764.5015161558986,764.5015161558986,767.4968635011464,767.4968635011464,767.4968635011464,767.4968635011464,None,,,,,,,,,,ST02_112822,2022-11-29_11h51.19.781,Hippopolis_Updating,2022.2.2,59.89490256945426,
Camponello,stimuli/subj_files/ST02_112822_cityB.csv,./stimuli/arnedillo.png,./stimuli/street_plate2.png,./stimuli/videos/camponello_part1.mp4,SALÁTA UTCA,stimuli/scenes/049a.jpg,scene,1,stimuli/scenes/086a.jpg,stimuli/scenes/086b.jpg,stimuli/scenes/085a.jpg,stimuli/scenes/086a.jpg,stimuli/scenes/085b.jpg,lure,dist1,target,dist2,0,1,1,1,0,36,36,20,,,,,,,769.4806252345443,770.5044806692749,770.5044806692749,770.5044806692749,770.5044806692749,773.5153344813734,773.5153344813734,773.5153344813734,773.5153344813734,None,,,,,,,,,,ST02_112822,2022-11-29_11h51.19.781,Hippopolis_Updating,2022.2.2,59.89490256945426,
Camponello,stimuli/subj_files/ST02_112822_cityB.csv,./stimuli/arnedillo.png,./stimuli/street_plate2.png,./stimuli/videos/camponello_part1.mp4,LEGELŐ UTCA,stimuli/objects/083a.jpg,object,1,stimuli/objects/012a.jpg,stimuli/scenes/072b.jpg,stimuli/scenes/072a.jpg,stimuli/objects/012b.jpg,stimuli/objects/012a.jpg,dist2,dist1,lure,target,0,1,1,1,0,37,37,31,,,,,,,775.497775061056,776.5213617850095,776.5213617850095,776.5213617850095,776.5213617850095,779.5513020604849,779.5513020604849,779.5513020604849,779.5513020604849,None,,,,,,,,,,ST02_112822,2022-11-29_11h51.19.781,Hippopolis_Updating,2022.2.2,59.89490256945426,
Camponello,stimuli/subj_files/ST02_112822_cityB.csv,./stimuli/arnedillo.png,./stimuli/street_plate2.png,./stimuli/videos/camponello_part1.mp4,PÁRNA UTCA,stimuli/objects/032a.jpg,object,2,stimuli/scenes/095a.jpg,stimuli/scenes/095b.jpg,stimuli/scenes/095a.jpg,stimuli/scenes/101b.jpg,stimuli/scenes/101a.jpg,lure,target,dist2,dist1,0,1,1,1,0,38,38,47,,,,,,,781.5083296839148,782.5377026833594,782.5377026833594,782.5377026833594,782.5377026833594,785.5388841964304,785.5388841964304,785.5388841964304,785.5388841964304,None,,,,,,,,,,ST02_112822,2022-11-29_11h51.19.781,Hippopolis_Updating,2022.2.2,59.89490256945426,
Camponello,stimuli/subj_files/ST02_112822_cityB.csv,./stimuli/arnedillo.png,./stimuli/street_plate2.png,./stimuli/videos/camponello_part1.mp4,KERÉK UTCA,stimuli/objects/060a.jpg,object,0,stimuli/objects/060a.jpg,stimuli/objects/060b.jpg,stimuli/objects/009a.jpg,stimuli/objects/009b.jpg,stimuli/objects/060a.jpg,lure,dist1,dist2,target,0,1,1,1,0,39,39,36,,,,,,,787.5240280423313,788.5337970647961,788.5337970647961,788.5337970647961,788.5337970647961,791.5478380713612,791.5478380713612,791.5478380713612,791.5478380713612,None,,,,,,,,,,ST02_112822,2022-11-29_11h51.19.781,Hippopolis_Updating,2022.2.2,59.89490256945426,
Camponello,stimuli/subj_files/ST02_112822_cityB.csv,./stimuli/arnedillo.png,./stimuli/street_plate2.png,./stimuli/videos/camponello_part1.mp4,KANÁL UTCA,stimuli/objects/066a.jpg,object,0,stimuli/objects/066a.jpg,stimuli/objects/066a.jpg,stimuli/scenes/079b.jpg,stimuli/objects/066b.jpg,stimuli/scenes/079a.jpg,target,dist2,lure,dist1,0,1,1,1,0,40,40,30,,,,,,,793.5392319019884,794.5499665979296,794.5499665979296,794.5499665979296,794.5499665979296,797.5703452918679,797.5703452918679,797.5703452918679,797.5703452918679,None,,,,,,,,,,ST02_112822,2022-11-29_11h51.19.781,Hippopolis_Updating,2022.2.2,59.89490256945426,
Camponello,stimuli/subj_files/ST02_112822_cityB.csv,./stimuli/arnedillo.png,./stimuli/street_plate2.png,./stimuli/videos/camponello_part1.mp4,RÁDIÓ UTCA,stimuli/scenes/079a.jpg,scene,0,stimuli/scenes/079a.jpg,stimuli/scenes/076b.jpg,stimuli/scenes/079a.jpg,stimuli/scenes/079b.jpg,stimuli/scenes/076a.jpg,dist2,target,lure,dist1,0,1,1,1,0,41,41,40,,,,,,,799.5423578266054,800.5530608016998,800.5530608016998,800.5530608016998,800.5530608016998,803.5598301663995,803.5598301663995,803.5598301663995,803.5598301663995,None,,,,,,,,,,ST02_112822,2022-11-29_11h51.19.781,Hippopolis_Updating,2022.2.2,59.89490256945426,
Camponello,stimuli/subj_files/ST02_112822_cityB.csv,./stimuli/arnedillo.png,./stimuli/street_plate2.png,./stimuli/videos/camponello_part1.mp4,TOLMÁCS UTCA,stimuli/objects/069a.jpg,object,0,stimuli/objects/069a.jpg,stimuli/objects/069b.jpg,stimuli/objects/054b.jpg,stimuli/objects/054a.jpg,stimuli/objects/069a.jpg,lure,dist2,dist1,target,0,1,1,1,0,42,42,66,,,,,,,805.5474415365607,806.574896870181,806.574896870181,806.574896870181,806.574896870181,809.5912483427674,809.5912483427674,809.5912483427674,809.5912483427674,None,,,,,,,,,,ST02_112822,2022-11-29_11h51.19.781,Hippopolis_Updating,2022.2.2,59.89490256945426,
Camponello,stimuli/subj_files/ST02_112822_cityB.csv,./stimuli/arnedillo.png,./stimuli/street_plate2.png,./stimuli/videos/camponello_part1.mp4,SUGÁR UTCA,stimuli/scenes/089a.jpg,scene,0,stimuli/scenes/089a.jpg,stimuli/scenes/041b.jpg,stimuli/scenes/089b.jpg,stimuli/scenes/089a.jpg,stimuli/scenes/041a.jpg,dist2,lure,target,dist1,0,1,1,1,0,43,43,6,,,,,,,811.5565617997199,812.5666925217956,812.5666925217956,812.5666925217956,812.5666925217956,815.5735862888396,815.5735862888396,815.5735862888396,815.5735862888396,None,,,,,,,,,,ST02_112822,2022-11-29_11h51.19.781,Hippopolis_Updating,2022.2.2,59.89490256945426,
Camponello,stimuli/subj_files/ST02_112822_cityB.csv,./stimuli/arnedillo.png,./stimuli/street_plate2.png,./stimuli/videos/camponello_part1.mp4,BÖGRE UTCA,stimuli/objects/113a.jpg,object,0,stimuli/objects/113a.jpg,stimuli/objects/113b.jpg,stimuli/objects/001b.jpg,stimuli/objects/001a.jpg,stimuli/objects/113a.jpg,lure,dist2,dist1,target,0,1,1,1,0,44,44,48,,,,,,,817.5568936429918,818.5833652634174,818.5833652634174,818.5833652634174,818.5833652634174,821.581325372681,821.581325372681,821.581325372681,821.581325372681,space,,823.5646000709385,823.5646000709385,4.765961870551109,,,,,,ST02_112822,2022-11-29_11h51.19.781,Hippopolis_Updating,2022.2.2,59.89490256945426,
Camponello,stimuli/subj_files/ST02_112822_cityB.csv,./stimuli/arnedillo.png,./stimuli/street_plate2.png,./stimuli/videos/camponello_part1.mp4,ZONGORA UTCA,stimuli/objects/076a.jpg,object,0,stimuli/objects/076a.jpg,stimuli/objects/076a.jpg,stimuli/objects/076b.jpg,stimuli/scenes/036a.jpg,stimuli/scenes/036b.jpg,target,lure,dist1,dist2,0,1,1,1,0,45,45,0,,,,,,,828.3585343882442,829.3849120847881,829.3849120847881,829.3849120847881,829.3849120847881,832.3800096921623,832.3800096921623,832.3800096921623,832.3800096921623,None,,,,,,,,,,ST02_112822,2022-11-29_11h51.19.781,Hippopolis_Updating,2022.2.2,59.89490256945426,
Camponello,stimuli/subj_files/ST02_112822_cityB.csv,./stimuli/arnedillo.png,./stimuli/street_plate2.png,./stimuli/videos/camponello_part1.mp4,ZEBRA UTCA,stimuli/scenes/031a.jpg,scene,2,stimuli/objects/110a.jpg,stimuli/scenes/005a.jpg,stimuli/scenes/005b.jpg,stimuli/objects/110b.jpg,stimuli/objects/110a.jpg,dist1,dist2,lure,target,0,1,1,1,0,46,46,58,,,,,,,834.3741630818695,835.3924502581358,835.3924502581358,835.3924502581358,835.3924502581358,838.4125338066369,838.4125338066369,838.4125338066369,838.4125338066369,None,,,,,,,,,,ST02_112822,2022-11-29_11h51.19.781,Hippopolis_Updating,2022.2.2,59.89490256945426,
Camponello,stimuli/subj_files/ST02_112822_cityB.csv,./stimuli/arnedillo.png,./stimuli/street_plate2.png,./stimuli/videos/camponello_part1.mp4,HENTES UTCA,stimuli/objects/001a.jpg,object,0,stimuli/objects/001a.jpg,stimuli/objects/001b.jpg,stimuli/scenes/045a.jpg,stimuli/objects/001a.jpg,stimuli/scenes/045b.jpg,lure,dist1,target,dist2,0,1,1,1,0,47,47,9,,,,,,,840.380326917395,841.403483832255,841.403483832255,841.403483832255,841.403483832255,844.4123711511493,844.4123711511493,844.4123711511493,844.4123711511493,None,,,,,,,,,,ST02_112822,2022-11-29_11h51.19.781,Hippopolis_Updating,2022.2.2,59.89490256945426,
Camponello,stimuli/subj_files/ST02_112822_cityB.csv,./stimuli/arnedillo.png,./stimuli/street_plate2.png,./stimuli/videos/camponello_part1.mp4,KULLANCS UTCA,stimuli/objects/074a.jpg,object,0,stimuli/objects/074a.jpg,stimuli/objects/031a.jpg,stimuli/objects/074b.jpg,stimuli/objects/074a.jpg,stimuli/objects/031b.jpg,dist1,lure,target,dist2,0,1,1,1,0,48,48,68,,,,,,,846.3828908540308,847.4133645053953,847.4133645053953,847.4133645053953,847.4133645053953,850.4083115831017,850.4083115831017,850.4083115831017,850.4083115831017,None,,,,,,,,,,ST02_112822,2022-11-29_11h51.19.781,Hippopolis_Updating,2022.2.2,59.89490256945426,
Camponello,stimuli/subj_files/ST02_112822_cityB.csv,./stimuli/arnedillo.png,./stimuli/street_plate2.png,./stimuli/videos/camponello_part1.mp4,MAJOM UTCA,stimuli/objects/010a.jpg,object,1,stimuli/objects/102a.jpg,stimuli/scenes/086b.jpg,stimuli/objects/102a.jpg,stimuli/objects/102b.jpg,stimuli/scenes/086a.jpg,dist2,target,lure,dist1,0,1,1,1,0,49,49,55,,,,,,,852.3975411206484,853.4174501951784,853.4174501951784,853.4174501951784,853.4174501951784,856.4363976381719,856.4363976381719,856.4363976381719,856.4363976381719,None,,,,,,,,,,ST02_112822,2022-11-29_11h51.19.781,Hippopolis_Updating,2022.2.2,59.89490256945426,
Camponello,stimuli/subj_files/ST02_112822_cityB.csv,./stimuli/arnedillo.png,./stimuli/street_plate2.png,./stimuli/videos/camponello_part1.mp4,POGÁCSA UTCA,stimuli/scenes/019a.jpg,scene,1,stimuli/scenes/040a.jpg,stimuli/scenes/040b.jpg,stimuli/scenes/040a.jpg,stimuli/scenes/075b.jpg,stimuli/scenes/075a.jpg,lure,target,dist2,dist1,0,1,1,1,0,50,50,3,,,,,,,858.4059746824205,859.4162525106221,859.4162525106221,859.4162525106221,859.4162525106221,862.4250054731965,862.4250054731965,862.4250054731965,862.4250054731965,None,,,,,,,,,,ST02_112822,2022-11-29_11h51.19.781,Hippopolis_Updating,2022.2.2,59.89490256945426,
Camponello,stimuli/subj_files/ST02_112822_cityB.csv,./stimuli/arnedillo.png,./stimuli/street_plate2.png,./stimuli/videos/camponello_part1.mp4,HEGESZTŐ UTCA,stimuli/scenes/056a.jpg,scene,0,stimuli/scenes/056a.jpg,stimuli/scenes/013b.jpg,stimuli/scenes/056b.jpg,stimuli/scenes/013a.jpg,stimuli/scenes/056a.jpg,dist2,lure,dist1,target,0,1,1,1,0,51,51,78,,,,,,,864.411943204701,865.4375116638839,865.4375116638839,865.4375116638839,865.4375116638839,868.4303485639393,868.4303485639393,868.4303485639393,868.4303485639393,None,,,,,,,,,,ST02_112822,2022-11-29_11h51.19.781,Hippopolis_Updating,2022.2.2,59.89490256945426,
Camponello,stimuli/subj_files/ST02_112822_cityB.csv,./stimuli/arnedillo.png,./stimuli/street_plate2.png,./stimuli/videos/camponello_part1.mp4,PIZSAMA UTCA,stimuli/objects/004a.jpg,object,0,stimuli/objects/004a.jpg,stimuli/objects/004a.jpg,stimuli/scenes/104a.jpg,stimuli/objects/004b.jpg,stimuli/scenes/104b.jpg,target,dist1,lure,dist2,0,1,1,1,0,52,52,59,,,,,,,870.420837989077,871.4485060498118,871.4485060498118,871.4485060498118,871.4485060498118,874.4555718041956,874.4555718041956,874.4555718041956,874.4555718041956,None,,,,,,,,,,ST02_112822,2022-11-29_11h51.19.781,Hippopolis_Updating,2022.2.2,59.89490256945426,
Camponello,stimuli/subj_files/ST02_112822_cityB.csv,./stimuli/arnedillo.png,./stimuli/street_plate2.png,./stimuli/videos/camponello_part1.mp4,FOGAS UTCA,stimuli/scenes/060a.jpg,scene,0,stimuli/scenes/060a.jpg,stimuli/scenes/060a.jpg,stimuli/objects/045a.jpg,stimuli/objects/045b.jpg,stimuli/scenes/060b.jpg,target,dist1,dist2,lure,0,1,1,1,0,53,53,61,,,,,,,876.4332322143018,877.4450112711638,877.4450112711638,877.4450112711638,877.4450112711638,880.4609074294567,880.4609074294567,880.4609074294567,880.4609074294567,None,,,,,,,,,,ST02_112822,2022-11-29_11h51.19.781,Hippopolis_Updating,2022.2.2,59.89490256945426,
Camponello,stimuli/subj_files/ST02_112822_cityB.csv,./stimuli/arnedillo.png,./stimuli/street_plate2.png,./stimuli/videos/camponello_part1.mp4,MUSTÁR UTCA,stimuli/objects/030a.jpg,object,0,stimuli/objects/030a.jpg,stimuli/scenes/098a.jpg,stimuli/scenes/098b.jpg,stimuli/objects/030b.jpg,stimuli/objects/030a.jpg,dist1,dist2,lure,target,0,1,1,1,0,54,54,43,,,,,,,882.458201052621,883.4776768945158,883.4776768945158,883.4776768945158,883.4776768945158,886.4800483174622,886.4800483174622,886.4800483174622,886.4800483174622,None,,,,,,,,,,ST02_112822,2022-11-29_11h51.19.781,Hippopolis_Updating,2022.2.2,59.89490256945426,
Camponello,stimuli/subj_files/ST02_112822_cityB.csv,./stimuli/arnedillo.png,./stimuli/street_plate2.png,./stimuli/videos/camponello_part1.mp4,VÖDÖR UTCA,stimuli/objects/027a.jpg,object,0,stimuli/objects/027a.jpg,stimuli/scenes/020a.jpg,stimuli/scenes/020b.jpg,stimuli/objects/027a.jpg,stimuli/objects/027b.jpg,dist1,dist2,target,lure,0,1,1,1,0,55,55,60,,,,,,,888.4671260025352,889.4873949121684,889.4873949121684,889.4873949121684,889.4873949121684,892.5100451949984,892.5100451949984,892.5100451949984,892.5100451949984,None,,,,,,,,,,ST02_112822,2022-11-29_11h51.19.781,Hippopolis_Updating,2022.2.2,59.89490256945426,
Camponello,stimuli/subj_files/ST02_112822_cityB.csv,./stimuli/arnedillo.png,./stimuli/street_plate2.png,./stimuli/videos/camponello_part1.mp4,FÜGE UTCA,stimuli/scenes/007a.jpg,scene,0,stimuli/scenes/007a.jpg,stimuli/objects/100a.jpg,stimuli/scenes/007a.jpg,stimuli/objects/100b.jpg,stimuli/scenes/007b.jpg,dist1,target,dist2,lure,0,1,1,1,0,56,56,63,,,,,,,894.4797102548182,895.510226201266,895.510226201266,895.510226201266,895.510226201266,898.5089709796011,898.5089709796011,898.5089709796011,898.5089709796011,None,,,,,,,,,,ST02_112822,2022-11-29_11h51.19.781,Hippopolis_Updating,2022.2.2,59.89490256945426,
Camponello,stimuli/subj_files/ST02_112822_cityB.csv,./stimuli/arnedillo.png,./stimuli/street_plate2.png,./stimuli/videos/camponello_part1.mp4,TISZTÁS UTCA,stimuli/objects/101a.jpg,object,0,stimuli/objects/101a.jpg,stimuli/objects/101a.jpg,stimuli/objects/060a.jpg,stimuli/objects/060b.jpg,stimuli/objects/101b.jpg,target,dist1,dist2,lure,0,1,1,1,0,57,57,77,,,,,,,900.4964647907764,901.5249713249505,901.5249713249505,901.5249713249505,901.5249713249505,904.5278773698956,904.5278773698956,904.5278773698956,904.5278773698956,None,,,,,,,,,,ST02_112822,2022-11-29_11h51.19.781,Hippopolis_Updating,2022.2.2,59.89490256945426,
Camponello,stimuli/subj_files/ST02_112822_cityB.csv,./stimuli/arnedillo.png,./stimuli/street_plate2.png,./stimuli/videos/camponello_part1.mp4,MARTINI UTCA,stimuli/objects/097a.jpg,object,1,stimuli/objects/052a.jpg,stimuli/objects/052b.jpg,stimuli/objects/052a.jpg,stimuli/objects/102a.jpg,stimuli/objects/102b.jpg,lure,target,dist1,dist2,0,1,1,1,0,58,58,56,,,,,,,906.512125518173,907.5224568396807,907.5224568396807,907.5224568396807,907.5224568396807,910.5440154913813,910.5440154913813,910.5440154913813,910.5440154913813,None,,,,,,,,,,ST02_112822,2022-11-29_11h51.19.781,Hippopolis_Updating,2022.2.2,59.89490256945426,
Camponello,stimuli/subj_files/ST02_112822_cityB.csv,./stimuli/arnedillo.png,./stimuli/street_plate2.png,./stimuli/videos/camponello_part1.mp4,SZAPPAN UTCA,stimuli/scenes/108a.jpg,scene,1,stimuli/scenes/072a.jpg,stimuli/scenes/072b.jpg,stimuli/scenes/040a.jpg,stimuli/scenes/072a.jpg,stimuli/scenes/040b.jpg,lure,dist1,target,dist2,0,1,1,1,0,59,59,2,,,,,,,912.5128280818462,913.5375390946865,913.5375390946865,913.5375390946865,913.5375390946865,916.545591359958,916.545591359958,916.545591359958,916.545591359958,None,,,,,,,,,,ST02_112822,2022-11-29_11h51.19.781,Hippopolis_Updating,2022.2.2,59.89490256945426,
Camponello,stimuli/subj_files/ST02_112822_cityB.csv,./stimuli/arnedillo.png,./stimuli/street_plate2.png,./stimuli/videos/camponello_part1.mp4,KECSKE UTCA,stimuli/objects/016a.jpg,object,0,stimuli/objects/016a.jpg,stimuli/objects/016a.jpg,stimuli/objects/114b.jpg,stimuli/objects/114a.jpg,stimuli/objects/016b.jpg,target,dist2,dist1,lure,0,1,1,1,0,60,60,33,,,,,,,918.524318523705,919.5345369484276,919.5345369484276,919.5345369484276,919.5345369484276,922.541670192033,922.541670192033,922.541670192033,922.541670192033,None,,,,,,,,,,ST02_112822,2022-11-29_11h51.19.781,Hippopolis_Updating,2022.2.2,59.89490256945426,
Camponello,stimuli/subj_files/ST02_112822_cityB.csv,./stimuli/arnedillo.png,./stimuli/street_plate2.png,./stimuli/videos/camponello_part1.mp4,RÓZSA UTCA,stimuli/scenes/083a.jpg,scene,0,stimuli/scenes/083a.jpg,stimuli/objects/033b.jpg,stimuli/objects/033a.jpg,stimuli/scenes/083b.jpg,stimuli/scenes/083a.jpg,dist2,dist1,lure,target,0,1,1,1,0,61,61,24,,,,,,,924.5329638794065,925.5589086543769,925.5589086543769,925.5589086543769,925.5589086543769,928.5612782109529,928.5612782109529,928.5612782109529,928.5612782109529,None,,,,,,,,,,ST02_112822,2022-11-29_11h51.19.781,Hippopolis_Updating,2022.2.2,59.89490256945426,
Camponello,stimuli/subj_files/ST02_112822_cityB.csv,./stimuli/arnedillo.png,./stimuli/street_plate2.png,./stimuli/videos/camponello_part1.mp4,MOCSÁR UTCA,stimuli/objects/037a.jpg,object,0,stimuli/objects/037a.jpg,stimuli/scenes/109b.jpg,stimuli/scenes/109a.jpg,stimuli/objects/037b.jpg,stimuli/objects/037a.jpg,dist2,dist1,lure,target,0,1,1,1,0,62,62,14,,,,,,,930.538276489824,931.5591400433332,931.5591400433332,931.5591400433332,931.5591400433332,934.5766804926097,934.5766804926097,934.5766804926097,934.5766804926097,None,,,,,,,,,,ST02_112822,2022-11-29_11h51.19.781,Hippopolis_Updating,2022.2.2,59.89490256945426,
Camponello,stimuli/subj_files/ST02_112822_cityB.csv,./stimuli/arnedillo.png,./stimuli/street_plate2.png,./stimuli/videos/camponello_part1.mp4,TIGRIS UTCA,stimuli/scenes/045a.jpg,scene,0,stimuli/scenes/045a.jpg,stimuli/scenes/045a.jpg,stimuli/scenes/045b.jpg,stimuli/scenes/102b.jpg,stimuli/scenes/102a.jpg,target,lure,dist2,dist1,0,1,1,1,0,63,63,17,,,,,,,936.5457142069936,937.5707147680223,937.5707147680223,937.5707147680223,937.5707147680223,940.5750781875104,940.5750781875104,940.5750781875104,940.5750781875104,None,,,,,,,,,,ST02_112822,2022-11-29_11h51.19.781,Hippopolis_Updating,2022.2.2,59.89490256945426,
Camponello,stimuli/subj_files/ST02_112822_cityB.csv,./stimuli/arnedillo.png,./stimuli/street_plate2.png,./stimuli/videos/camponello_part1.mp4,KAKAÓ UTCA,stimuli/objects/017a.jpg,object,1,stimuli/objects/095a.jpg,stimuli/objects/095b.jpg,stimuli/objects/089b.jpg,stimuli/objects/089a.jpg,stimuli/objects/095a.jpg,lure,dist2,dist1,target,0,1,1,1,0,64,64,73,,,,,,,942.5579924285412,943.58656116575,943.58656116575,943.58656116575,943.58656116575,946.5960490368307,946.5960490368307,946.5960490368307,946.5960490368307,None,,,,,,,,,,ST02_112822,2022-11-29_11h51.19.781,Hippopolis_Updating,2022.2.2,59.89490256945426,
Camponello,stimuli/subj_files/ST02_112822_cityB.csv,./stimuli/arnedillo.png,./stimuli/street_plate2.png,./stimuli/videos/camponello_part1.mp4,VASALÓ UTCA,stimuli/objects/096a.jpg,object,1,stimuli/objects/089a.jpg,stimuli/objects/095a.jpg,stimuli/objects/089a.jpg,stimuli/objects/095b.jpg,stimuli/objects/089b.jpg,dist1,target,dist2,lure,0,1,1,1,0,65,65,16,,,,,,,948.5623580254614,949.5864921212196,949.5864921212196,949.5864921212196,949.5864921212196,952.5975334700197,952.5975334700197,952.5975334700197,952.5975334700197,None,,,,,,,,,,ST02_112822,2022-11-29_11h51.19.781,Hippopolis_Updating,2022.2.2,59.89490256945426,
Camponello,stimuli/subj_files/ST02_112822_cityB.csv,./stimuli/arnedillo.png,./stimuli/street_plate2.png,./stimuli/videos/camponello_part1.mp4,PÁFRÁNY UTCA,stimuli/scenes/013a.jpg,scene,0,stimuli/scenes/013a.jpg,stimuli/scenes/026b.jpg,stimuli/scenes/026a.jpg,stimuli/scenes/013b.jpg,stimuli/scenes/013a.jpg,dist2,dist1,lure,target,0,1,1,1,0,66,66,28,,,,,,,954.5746415350586,955.6030501015484,955.6030501015484,955.6030501015484,955.6030501015484,958.5967724379152,958.5967724379152,958.5967724379152,958.5967724379152,None,,,,,,,,,,ST02_112822,2022-11-29_11h51.19.781,Hippopolis_Updating,2022.2.2,59.89490256945426,
Camponello,stimuli/subj_files/ST02_112822_cityB.csv,./stimuli/arnedillo.png,./stimuli/street_plate2.png,./stimuli/videos/camponello_part1.mp4,POLIP UTCA,stimuli/scenes/050a.jpg,scene,0,stimuli/scenes/050a.jpg,stimuli/scenes/050a.jpg,stimuli/objects/004b.jpg,stimuli/scenes/050b.jpg,stimuli/objects/004a.jpg,target,dist2,lure,dist1,0,1,1,1,0,67,67,44,,,,,,,960.5783011466265,961.6058382745832,961.6058382745832,961.6058382745832,961.6058382745832,964.6065657176077,964.6065657176077,964.6065657176077,964.6065657176077,None,,,,,,,,,,ST02_112822,2022-11-29_11h51.19.781,Hippopolis_Updating,2022.2.2,59.89490256945426,
Camponello,stimuli/subj_files/ST02_112822_cityB.csv,./stimuli/arnedillo.png,./stimuli/street_plate2.png,./stimuli/videos/camponello_part1.mp4,KORONG UTCA,stimuli/objects/112a.jpg,object,0,stimuli/objects/112a.jpg,stimuli/scenes/054b.jpg,stimuli/objects/112a.jpg,stimuli/scenes/054a.jpg,stimuli/objects/112b.jpg,dist2,target,dist1,lure,0,1,1,1,0,68,68,25,,,,,,,966.5953844171017,967.61715050973,967.61715050973,967.61715050973,967.61715050973,970.6298837345093,970.6298837345093,970.6298837345093,970.6298837345093,None,,,,,,,,,,ST02_112822,2022-11-29_11h51.19.781,Hippopolis_Updating,2022.2.2,59.89490256945426,
Camponello,stimuli/subj_files/ST02_112822_cityB.csv,./stimuli/arnedillo.png,./stimuli/street_plate2.png,./stimuli/videos/camponello_part1.mp4,EGÉR UTCA,stimuli/scenes/069a.jpg,scene,1,stimuli/scenes/075a.jpg,stimuli/scenes/116a.jpg,stimuli/scenes/075a.jpg,stimuli/scenes/116b.jpg,stimuli/scenes/075b.jpg,dist1,target,dist2,lure,0,1,1,1,0,69,69,52,,,,,,,972.6072505544871,973.6333200428635,973.6333200428635,973.6333200428635,973.6333200428635,976.6263090260327,976.6263090260327,976.6263090260327,976.6263090260327,None,,,,,,,,,,ST02_112822,2022-11-29_11h51.19.781,Hippopolis_Updating,2022.2.2,59.89490256945426,
Camponello,stimuli/subj_files/ST02_112822_cityB.csv,./stimuli/arnedillo.png,./stimuli/street_plate2.png,./stimuli/videos/camponello_part1.mp4,VITORLA UTCA,stimuli/scenes/002a.jpg,scene,0,stimuli/scenes/002a.jpg,stimuli/scenes/002a.jpg,stimuli/scenes/029b.jpg,stimuli/scenes/029a.jpg,stimuli/scenes/002b.jpg,target,dist2,dist1,lure,0,1,1,1,0,70,70,74,,,,,,,978.6221095062792,979.6482446175069,979.6482446175069,979.6482446175069,979.6482446175069,982.6423280332237,982.6423280332237,982.6423280332237,982.6423280332237,None,,,,,,,,,,ST02_112822,2022-11-29_11h51.19.781,Hippopolis_Updating,2022.2.2,59.89490256945426,
Camponello,stimuli/subj_files/ST02_112822_cityB.csv,./stimuli/arnedillo.png,./stimuli/street_plate2.png,./stimuli/videos/camponello_part1.mp4,AKÁC UTCA,stimuli/scenes/057a.jpg,scene,0,stimuli/scenes/057a.jpg,stimuli/objects/015a.jpg,stimuli/scenes/057b.jpg,stimuli/objects/015b.jpg,stimuli/scenes/057a.jpg,dist1,lure,dist2,target,0,1,1,1,0,71,71,8,,,,,,,984.6278886273503,985.6488856021315,985.6488856021315,985.6488856021315,985.6488856021315,988.6429024618119,988.6429024618119,988.6429024618119,988.6429024618119,None,,,,,,,,,,ST02_112822,2022-11-29_11h51.19.781,Hippopolis_Updating,2022.2.2,59.89490256945426,
Camponello,stimuli/subj_files/ST02_112822_cityB.csv,./stimuli/arnedillo.png,./stimuli/street_plate2.png,./stimuli/videos/camponello_part1.mp4,KAKAS UTCA,stimuli/objects/100a.jpg,object,0,stimuli/objects/100a.jpg,stimuli/objects/049a.jpg,stimuli/objects/100b.jpg,stimuli/objects/049b.jpg,stimuli/objects/100a.jpg,dist1,lure,dist2,target,0,1,1,1,0,72,72,65,,,,,,,990.6402520649135,991.6565671488643,991.6565671488643,991.6565671488643,991.6565671488643,994.6689871884882,994.6689871884882,994.6689871884882,994.6689871884882,None,991.6565671488643,,,,,,,,,ST02_112822,2022-11-29_11h51.19.781,Hippopolis_Updating,2022.2.2,59.89490256945426,
Camponello,stimuli/subj_files/ST02_112822_cityB.csv,./stimuli/arnedillo.png,./stimuli/street_plate2.png,./stimuli/videos/camponello_part1.mp4,PAPAGÁJ UTCA,stimuli/objects/078a.jpg,object,2,stimuli/scenes/120a.jpg,stimuli/objects/107b.jpg,stimuli/objects/107a.jpg,stimuli/scenes/120a.jpg,stimuli/scenes/120b.jpg,dist2,dist1,target,lure,0,1,1,1,0,73,73,32,,,,,,,996.6551806833595,997.6851949766278,997.6851949766278,997.6851949766278,997.6851949766278,1000.7034386117011,1000.7034386117011,1000.7034386117011,1000.7034386117011,None,,,,,,,,,,ST02_112822,2022-11-29_11h51.19.781,Hippopolis_Updating,2022.2.2,59.89490256945426,
Camponello,stimuli/subj_files/ST02_112822_cityB.csv,./stimuli/arnedillo.png,./stimuli/street_plate2.png,./stimuli/videos/camponello_part1.mp4,TALICSKA UTCA,stimuli/scenes/026a.jpg,scene,0,stimuli/scenes/026a.jpg,stimuli/scenes/033b.jpg,stimuli/scenes/026b.jpg,stimuli/scenes/033a.jpg,stimuli/scenes/026a.jpg,dist2,lure,dist1,target,0,1,1,1,0,74,74,21,,,,,,,1002.6717339977622,1003.7017321195453,1003.7017321195453,1003.7017321195453,1003.7017321195453,1006.6953642629087,1006.6953642629087,1006.6953642629087,1006.6953642629087,None,,,,,,,,,,ST02_112822,2022-11-29_11h51.19.781,Hippopolis_Updating,2022.2.2,59.89490256945426,
Camponello,stimuli/subj_files/ST02_112822_cityB.csv,./stimuli/arnedillo.png,./stimuli/street_plate2.png,./stimuli/videos/camponello_part1.mp4,KESELYŰ UTCA,stimuli/scenes/112a.jpg,scene,2,stimuli/objects/084a.jpg,stimuli/scenes/095a.jpg,stimuli/objects/084b.jpg,stimuli/scenes/095b.jpg,stimuli/objects/084a.jpg,dist1,lure,dist2,target,0,1,1,1,0,75,75,26,,,,,,,1008.6806129198521,1009.7042260803282,1009.7042260803282,1009.7042260803282,1009.7042260803282,1012.7192887403071,1012.7192887403071,1012.7192887403071,1012.7192887403071,None,1009.7042260803282,,,,,,,,,ST02_112822,2022-11-29_11h51.19.781,Hippopolis_Updating,2022.2.2,59.89490256945426,
Camponello,stimuli/subj_files/ST02_112822_cityB.csv,./stimuli/arnedillo.png,./stimuli/street_plate2.png,./stimuli/videos/camponello_part1.mp4,KÍGYÓ UTCA,stimuli/scenes/030a.jpg,scene,0,stimuli/scenes/030a.jpg,stimuli/scenes/030a.jpg,stimuli/scenes/057a.jpg,stimuli/scenes/057b.jpg,stimuli/scenes/030b.jpg,target,dist1,dist2,lure,0,1,1,1,0,76,76,64,,,,,,,1014.688875425607,1015.7148500587791,1015.7148500587791,1015.7148500587791,1015.7148500587791,1018.7099128309637,1018.7099128309637,1018.7099128309637,1018.7099128309637,None,,,,,,,,,,ST02_112822,2022-11-29_11h51.19.781,Hippopolis_Updating,2022.2.2,59.89490256945426,
Camponello,stimuli/subj_files/ST02_112822_cityB.csv,./stimuli/arnedillo.png,./stimuli/street_plate2.png,./stimuli/videos/camponello_part1.mp4,ÁLLOMÁS UTCA,stimuli/objects/090a.jpg,object,0,stimuli/objects/090a.jpg,stimuli/objects/090b.jpg,stimuli/scenes/092b.jpg,stimuli/objects/090a.jpg,stimuli/scenes/092a.jpg,lure,dist2,target,dist1,0,1,1,1,0,77,77,22,,,,,,,1020.6964269727468,1021.7219375818968,1021.7219375818968,1021.7219375818968,1021.7219375818968,1024.728745823726,1024.728745823726,1024.728745823726,1024.728745823726,None,,,,,,,,,,ST02_112822,2022-11-29_11h51.19.781,Hippopolis_Updating,2022.2.2,59.89490256945426,
Camponello,stimuli/subj_files/ST02_112822_cityB.csv,./stimuli/arnedillo.png,./stimuli/street_plate2.png,./stimuli/videos/camponello_part1.mp4,TOBOZ UTCA,stimuli/scenes/036a.jpg,scene,0,stimuli/scenes/036a.jpg,stimuli/objects/074b.jpg,stimuli/objects/074a.jpg,stimuli/scenes/036b.jpg,stimuli/scenes/036a.jpg,dist2,dist1,lure,target,0,1,1,1,0,78,78,11,,,,,,,1026.698343705386,1027.7143260128796,1027.7143260128796,1027.7143260128796,1027.7143260128796,1030.7240567803383,1030.7240567803383,1030.7240567803383,1030.7240567803383,None,1027.7143260128796,,,,,,,,,ST02_112822,2022-11-29_11h51.19.781,Hippopolis_Updating,2022.2.2,59.89490256945426,
