Cue,Image,Category,CorrectResponse,CityName,Novelty,UpdateImage,TestImage1,TestImage2,TestImage3,TestImage4,TestImage1Type,TestImage2Type,TestImage3Type,TestImage4Type,trials_4afct.thisRepN,trials_4afct.thisTrialN,trials_4afct.thisN,trials_4afct.thisIndex,learning_instructions_text.started,intro_key.started,intro_key.keys,intro_key.rt,fx_cross.started,street_text_updating.started,test_image1.started,test_image2.started,test_image3.started,test_image4.started,button_d.started,button_f.started,button_j.started,button_k.started,key_resp.started,key_resp.keys,key_resp.rt,test_resp,short_break_key.keys,clock0.started,fx_cross.stopped,short_break_text.started,short_break_key.started,short_break_key.rt,n_targets,n_lures,n_dist1s,n_dist2s,break_text.started,break_key_resp.started,break_key_resp.keys,break_key_resp.rt,end_text.started,participant,date,expName,psychopyVersion,frameRate,
,,,,,,,,,,,,,,,,,,,24.02740121819079,24.02740121819079,space,4.936001321300864,,,,,,,,,,,,,,,,,,,,,,,,,,,,,,ST02_120922,2022-12-09_15h21.09.216,Hippopolis_4AFCT,2022.2.2,59.81501308041045,
BANÁN UTCA,stimuli/scenes/056a.jpg,scene,right,Hippopolis,2,stimuli/objects/110a.jpg,stimuli/scenes/084a.jpg,stimuli/objects/110b.jpg,stimuli/scenes/084b.jpg,stimuli/objects/110a.jpg,dist1,lure,dist2,target,0,0,0,11,,,,,29.030850280076265,30.067735947668552,30.067735947668552,30.067735947668552,30.067735947668552,30.067735947668552,30.067735947668552,30.067735947668552,30.067735947668552,30.067735947668552,30.067735947668552,d,2.815807305276394,dist1,None,,,,,,,,,,,,,,,ST02_120922,2022-12-09_15h21.09.216,Hippopolis_4AFCT,2022.2.2,59.81501308041045,
AKÁC UTCA,stimuli/objects/100a.jpg,object,left,Camponello,1,stimuli/objects/045a.jpg,stimuli/objects/045b.jpg,stimuli/scenes/051b.jpg,stimuli/objects/045a.jpg,stimuli/scenes/051a.jpg,lure,dist2,target,dist1,0,1,1,83,,,,,32.911333633586764,33.98140492849052,33.98140492849052,33.98140492849052,33.98140492849052,33.98140492849052,33.98140492849052,33.98140492849052,33.98140492849052,33.98140492849052,33.98140492849052,d,2.790280831977725,lure,None,,,,,,,,,,,,,,,ST02_120922,2022-12-09_15h21.09.216,Hippopolis_4AFCT,2022.2.2,59.81501308041045,
ZÁSZLÓ UTCA,stimuli/scenes/069a.jpg,scene,right,Hippopolis,0,stimuli/scenes/069a.jpg,stimuli/objects/028b.jpg,stimuli/objects/028a.jpg,stimuli/scenes/069b.jpg,stimuli/scenes/069a.jpg,dist2,dist1,lure,target,0,2,2,74,,,,,36.79867125675082,37.86714771017432,37.86714771017432,37.86714771017432,37.86714771017432,37.86714771017432,37.86714771017432,37.86714771017432,37.86714771017432,37.86714771017432,37.86714771017432,k,2.792394744232297,target,None,,,,,,,,,,,,,,,ST02_120922,2022-12-09_15h21.09.216,Hippopolis_4AFCT,2022.2.2,59.81501308041045,
TRIATLON UTCA,stimuli/scenes/105a.jpg,scene,right,Camponello,0,stimuli/scenes/105a.jpg,stimuli/scenes/105a.jpg,stimuli/scenes/105b.jpg,stimuli/scenes/065a.jpg,stimuli/scenes/065b.jpg,target,lure,dist1,dist2,0,3,3,88,,,,,40.6817113943398,41.74745938926935,41.74745938926935,41.74745938926935,41.74745938926935,41.74745938926935,41.74745938926935,41.74745938926935,41.74745938926935,41.74745938926935,41.74745938926935,d,2.815000554546714,target,None,,,,,,,,,,,,,,,ST02_120922,2022-12-09_15h21.09.216,Hippopolis_4AFCT,2022.2.2,59.81501308041045,
FÜZET UTCA,stimuli/scenes/027a.jpg,scene,right,Camponello,1,stimuli/scenes/097a.jpg,stimuli/scenes/097a.jpg,stimuli/scenes/100b.jpg,stimuli/scenes/097b.jpg,stimuli/scenes/100a.jpg,target,dist2,lure,dist1,0,4,4,104,,,,,44.594506135210395,45.638604663312435,45.638604663312435,45.638604663312435,45.638604663312435,45.638604663312435,45.638604663312435,45.638604663312435,45.638604663312435,45.638604663312435,45.638604663312435,k,3.180669739842415,dist1,None,,,,,,,,,,,,,,,ST02_120922,2022-12-09_15h21.09.216,Hippopolis_4AFCT,2022.2.2,59.81501308041045,
BÖGRE UTCA,stimuli/scenes/040a.jpg,scene,right,Camponello,0,stimuli/scenes/040a.jpg,stimuli/scenes/040a.jpg,stimuli/objects/050b.jpg,stimuli/scenes/040b.jpg,stimuli/objects/050a.jpg,target,dist2,lure,dist1,0,5,5,129,,,,,48.84438328631222,49.91491145081818,49.91491145081818,49.91491145081818,49.91491145081818,49.91491145081818,49.91491145081818,49.91491145081818,49.91491145081818,49.91491145081818,49.91491145081818,d,2.343565247952938,target,None,,,,,,,,,,,,,,,ST02_120922,2022-12-09_15h21.09.216,Hippopolis_4AFCT,2022.2.2,59.81501308041045,
TÁNYÉR UTCA,stimuli/objects/041a.jpg,object,left,Hippopolis,0,stimuli/objects/041a.jpg,stimuli/objects/041b.jpg,stimuli/objects/044a.jpg,stimuli/objects/044b.jpg,stimuli/objects/041a.jpg,lure,dist1,dist2,target,0,6,6,21,,,,,52.277663707733154,53.33136704750359,53.33136704750359,53.33136704750359,53.33136704750359,53.33136704750359,53.33136704750359,53.33136704750359,53.33136704750359,53.33136704750359,53.33136704750359,k,2.655271092429757,target,None,,,,,,,,,,,,,,,ST02_120922,2022-12-09_15h21.09.216,Hippopolis_4AFCT,2022.2.2,59.81501308041045,
VITORLA UTCA,stimuli/scenes/034a.jpg,scene,right,Hippopolis,1,stimuli/scenes/102a.jpg,stimuli/scenes/055a.jpg,stimuli/scenes/055b.jpg,stimuli/scenes/102b.jpg,stimuli/scenes/102a.jpg,dist1,dist2,lure,target,0,7,7,57,,,,,56.01483251713216,57.08025177940726,57.08025177940726,57.08025177940726,57.08025177940726,57.08025177940726,57.08025177940726,57.08025177940726,57.08025177940726,57.08025177940726,57.08025177940726,j,2.3623621612787247,lure,None,,,,,,,,,,,,,,,ST02_120922,2022-12-09_15h21.09.216,Hippopolis_4AFCT,2022.2.2,59.81501308041045,
TERÍTŐ UTCA,stimuli/objects/085a.jpg,object,left,Hippopolis,1,stimuli/objects/017a.jpg,stimuli/objects/120a.jpg,stimuli/objects/120b.jpg,stimuli/objects/017a.jpg,stimuli/objects/017b.jpg,dist1,dist2,target,lure,0,8,8,19,,,,,59.460783338174224,60.537288423627615,60.537288423627615,60.537288423627615,60.537288423627615,60.537288423627615,60.537288423627615,60.537288423627615,60.537288423627615,60.537288423627615,60.537288423627615,d,1.6578897666186094,dist1,None,,,,,,,,,,,,,,,ST02_120922,2022-12-09_15h21.09.216,Hippopolis_4AFCT,2022.2.2,59.81501308041045,
LÉPCSŐ UTCA,stimuli/objects/049a.jpg,object,left,Camponello,0,stimuli/objects/049a.jpg,stimuli/objects/049a.jpg,stimuli/objects/049b.jpg,stimuli/objects/031a.jpg,stimuli/objects/031b.jpg,target,lure,dist1,dist2,0,9,9,155,,,,,62.2276628986001,63.28494219109416,63.28494219109416,63.28494219109416,63.28494219109416,63.28494219109416,63.28494219109416,63.28494219109416,63.28494219109416,63.28494219109416,63.28494219109416,d,1.4221204854547977,target,None,,,,,,,,,,,,,,,ST02_120922,2022-12-09_15h21.09.216,Hippopolis_4AFCT,2022.2.2,59.81501308041045,
HORGONY UTCA,stimuli/scenes/019a.jpg,scene,right,Camponello,0,stimuli/scenes/019a.jpg,stimuli/objects/023b.jpg,stimuli/scenes/019b.jpg,stimuli/objects/023a.jpg,stimuli/scenes/019a.jpg,dist2,lure,dist1,target,0,10,10,87,,,,,64.7274032086134,65.78139423020184,65.78139423020184,65.78139423020184,65.78139423020184,65.78139423020184,65.78139423020184,65.78139423020184,65.78139423020184,65.78139423020184,65.78139423020184,f,2.8934469409286976,lure,None,,,,,,,,,,,,,,,ST02_120922,2022-12-09_15h21.09.216,Hippopolis_4AFCT,2022.2.2,59.81501308041045,
KRÉTA UTCA,stimuli/scenes/054a.jpg,scene,right,Camponello,0,stimuli/scenes/054a.jpg,stimuli/scenes/033a.jpg,stimuli/scenes/054b.jpg,stimuli/scenes/033b.jpg,stimuli/scenes/054a.jpg,dist1,lure,dist2,target,0,11,11,114,,,,,68.69622077606618,69.73474669270217,69.73474669270217,69.73474669270217,69.73474669270217,69.73474669270217,69.73474669270217,69.73474669270217,69.73474669270217,69.73474669270217,69.73474669270217,f,1.7242093905806541,lure,None,,,,,,,,,,,,,,,ST02_120922,2022-12-09_15h21.09.216,Hippopolis_4AFCT,2022.2.2,59.81501308041045,
PAPRIKA UTCA,stimuli/scenes/099a.jpg,scene,right,Camponello,1,stimuli/scenes/076a.jpg,stimuli/objects/048a.jpg,stimuli/objects/048b.jpg,stimuli/scenes/076b.jpg,stimuli/scenes/076a.jpg,dist1,dist2,lure,target,0,12,12,121,,,,,71.47756928578019,72.52049345523119,72.52049345523119,72.52049345523119,72.52049345523119,72.52049345523119,72.52049345523119,72.52049345523119,72.52049345523119,72.52049345523119,72.52049345523119,k,3.130177851766348,target,None,,,,,,,,,,,,,,,ST02_120922,2022-12-09_15h21.09.216,Hippopolis_4AFCT,2022.2.2,59.81501308041045,
KOSÁR UTCA,stimuli/scenes/036a.jpg,scene,right,Camponello,2,stimuli/objects/053a.jpg,stimuli/objects/053a.jpg,stimuli/scenes/024b.jpg,stimuli/objects/053b.jpg,stimuli/scenes/024a.jpg,target,dist2,lure,dist1,0,13,13,80,,,,,75.67898324504495,76.71488147042692,76.71488147042692,76.71488147042692,76.71488147042692,76.71488147042692,76.71488147042692,76.71488147042692,76.71488147042692,76.71488147042692,76.71488147042692,k,3.560038134455681,dist1,None,80.17851611413062,,,,,,,,,,,,,,ST02_120922,2022-12-09_15h21.09.216,Hippopolis_4AFCT,2022.2.2,59.81501308041045,
TÜKÖR UTCA,stimuli/objects/064a.jpg,object,left,Hippopolis,0,stimuli/objects/064a.jpg,stimuli/objects/041a.jpg,stimuli/objects/041b.jpg,stimuli/objects/064a.jpg,stimuli/objects/064b.jpg,dist1,dist2,target,lure,0,14,14,16,,,,,80.30160591378808,81.35252761095762,81.35252761095762,81.35252761095762,81.35252761095762,81.35252761095762,81.35252761095762,81.35252761095762,81.35252761095762,81.35252761095762,81.35252761095762,j,2.2820484936237335,target,None,,,,,,,,,,,,,,,ST02_120922,2022-12-09_15h21.09.216,Hippopolis_4AFCT,2022.2.2,59.81501308041045,
ÜVEG UTCA,stimuli/objects/084a.jpg,object,left,Hippopolis,0,stimuli/objects/084a.jpg,stimuli/objects/084a.jpg,stimuli/objects/084b.jpg,stimuli/objects/043a.jpg,stimuli/objects/043b.jpg,target,lure,dist1,dist2,0,15,15,40,,,,,83.6615581791848,84.7355145663023,84.7355145663023,84.7355145663023,84.7355145663023,84.7355145663023,84.7355145663023,84.7355145663023,84.7355145663023,84.7355145663023,84.7355145663023,d,1.9709105473011732,target,None,,,,,,,,,,,,,,,ST02_120922,2022-12-09_15h21.09.216,Hippopolis_4AFCT,2022.2.2,59.81501308041045,
PAPAGÁJ UTCA,stimuli/objects/040a.jpg,object,left,Camponello,0,stimuli/objects/040a.jpg,stimuli/objects/040a.jpg,stimuli/objects/040b.jpg,stimuli/objects/022b.jpg,stimuli/objects/022a.jpg,target,lure,dist2,dist1,0,16,16,127,,,,,86.72716715559363,87.79919716902077,87.79919716902077,87.79919716902077,87.79919716902077,87.79919716902077,87.79919716902077,87.79919716902077,87.79919716902077,87.79919716902077,87.79919716902077,d,2.7153323367238045,target,None,,,,,,,,,,,,,,,ST02_120922,2022-12-09_15h21.09.216,Hippopolis_4AFCT,2022.2.2,59.81501308041045,
MANDARIN UTCA,stimuli/scenes/071a.jpg,scene,right,Camponello,0,stimuli/scenes/071a.jpg,stimuli/scenes/040b.jpg,stimuli/scenes/071a.jpg,stimuli/scenes/040a.jpg,stimuli/scenes/071b.jpg,dist2,target,dist1,lure,0,17,17,99,,,,,90.55043870583177,91.57932404614985,91.57932404614985,91.57932404614985,91.57932404614985,91.57932404614985,91.57932404614985,91.57932404614985,91.57932404614985,91.57932404614985,91.57932404614985,f,2.502775950357318,target,None,,,,,,,,,,,,,,,ST02_120922,2022-12-09_15h21.09.216,Hippopolis_4AFCT,2022.2.2,59.81501308041045,
KANÁL UTCA,stimuli/objects/098a.jpg,object,left,Camponello,0,stimuli/objects/098a.jpg,stimuli/objects/105b.jpg,stimuli/objects/105a.jpg,stimuli/objects/098b.jpg,stimuli/objects/098a.jpg,dist2,dist1,lure,target,0,18,18,93,,,,,94.1105095911771,95.18225938640535,95.18225938640535,95.18225938640535,95.18225938640535,95.18225938640535,95.18225938640535,95.18225938640535,95.18225938640535,95.18225938640535,95.18225938640535,k,3.043997982516885,target,None,,,,,,,,,,,,,,,ST02_120922,2022-12-09_15h21.09.216,Hippopolis_4AFCT,2022.2.2,59.81501308041045,
FÜGE UTCA,stimuli/scenes/080a.jpg,scene,right,Hippopolis,0,stimuli/scenes/080a.jpg,stimuli/scenes/080b.jpg,stimuli/scenes/080a.jpg,stimuli/scenes/069b.jpg,stimuli/scenes/069a.jpg,lure,target,dist2,dist1,0,19,19,49,,,,,98.24366946518421,99.29707392863929,99.29707392863929,99.29707392863929,99.29707392863929,99.29707392863929,99.29707392863929,99.29707392863929,99.29707392863929,99.29707392863929,99.29707392863929,f,1.537387229502201,target,None,,,,,,,,,,,,,,,ST02_120922,2022-12-09_15h21.09.216,Hippopolis_4AFCT,2022.2.2,59.81501308041045,
TOBOZ UTCA,stimuli/scenes/030a.jpg,scene,right,Hippopolis,2,stimuli/objects/061a.jpg,stimuli/objects/061b.jpg,stimuli/scenes/089b.jpg,stimuli/scenes/089a.jpg,stimuli/objects/061a.jpg,lure,dist2,dist1,target,0,20,20,34,,,,,100.86050865799189,101.9673819616437,101.9673819616437,101.9673819616437,101.9673819616437,101.9673819616437,101.9673819616437,101.9673819616437,101.9673819616437,101.9673819616437,101.9673819616437,d,2.4187519755214453,lure,None,,,,,,,,,,,,,,,ST02_120922,2022-12-09_15h21.09.216,Hippopolis_4AFCT,2022.2.2,59.81501308041045,
KESZTYŰ UTCA,stimuli/objects/074a.jpg,object,left,Camponello,2,stimuli/scenes/024a.jpg,stimuli/scenes/024a.jpg,stimuli/objects/072b.jpg,stimuli/scenes/024b.jpg,stimuli/objects/072a.jpg,target,dist2,lure,dist1,0,21,21,91,,,,,104.41906369663775,105.4856927730143,105.4856927730143,105.4856927730143,105.4856927730143,105.4856927730143,105.4856927730143,105.4856927730143,105.4856927730143,105.4856927730143,105.4856927730143,f,3.236490411683917,dist2,None,,,,,,,,,,,,,,,ST02_120922,2022-12-09_15h21.09.216,Hippopolis_4AFCT,2022.2.2,59.81501308041045,
TISZTÁS UTCA,stimuli/objects/054a.jpg,object,left,Camponello,0,stimuli/objects/054a.jpg,stimuli/objects/054b.jpg,stimuli/objects/115a.jpg,stimuli/objects/054a.jpg,stimuli/objects/115b.jpg,lure,dist1,target,dist2,0,22,22,102,,,,,108.74521547742188,109.79360993951559,109.79360993951559,109.79360993951559,109.79360993951559,109.79360993951559,109.79360993951559,109.79360993951559,109.79360993951559,109.79360993951559,109.79360993951559,j,2.6888936813920736,target,None,,,,,,,,,,,,,,,ST02_120922,2022-12-09_15h21.09.216,Hippopolis_4AFCT,2022.2.2,59.81501308041045,
ECSET UTCA,stimuli/objects/067a.jpg,object,left,Hippopolis,1,stimuli/objects/009a.jpg,stimuli/scenes/073a.jpg,stimuli/objects/009a.jpg,stimuli/objects/009b.jpg,stimuli/scenes/073b.jpg,dist1,target,lure,dist2,0,23,23,62,,,,,112.5082087032497,113.56667261756957,113.56667261756957,113.56667261756957,113.56667261756957,113.56667261756957,113.56667261756957,113.56667261756957,113.56667261756957,113.56667261756957,113.56667261756957,j,3.059617344290018,lure,None,,,,,,,,,,,,,,,ST02_120922,2022-12-09_15h21.09.216,Hippopolis_4AFCT,2022.2.2,59.81501308041045,
CUKOR UTCA,stimuli/objects/097a.jpg,object,left,Hippopolis,2,stimuli/scenes/003a.jpg,stimuli/scenes/003a.jpg,stimuli/objects/060a.jpg,stimuli/scenes/003b.jpg,stimuli/objects/060b.jpg,target,dist1,lure,dist2,0,24,24,14,,,,,116.64358449913561,117.71335722692311,117.71335722692311,117.71335722692311,117.71335722692311,117.71335722692311,117.71335722692311,117.71335722692311,117.71335722692311,117.71335722692311,117.71335722692311,f,2.976747203618288,dist1,None,,,,,,,,,,,,,,,ST02_120922,2022-12-09_15h21.09.216,Hippopolis_4AFCT,2022.2.2,59.81501308041045,
DOMINÓ UTCA,stimuli/objects/108a.jpg,object,left,Camponello,0,stimuli/objects/108a.jpg,stimuli/objects/070a.jpg,stimuli/objects/108b.jpg,stimuli/objects/070b.jpg,stimuli/objects/108a.jpg,dist1,lure,dist2,target,0,25,25,124,,,,,120.71007082238793,121.74720840714872,121.74720840714872,121.74720840714872,121.74720840714872,121.74720840714872,121.74720840714872,121.74720840714872,121.74720840714872,121.74720840714872,121.74720840714872,k,3.2792603205889463,target,None,,,,,,,,,,,,,,,ST02_120922,2022-12-09_15h21.09.216,Hippopolis_4AFCT,2022.2.2,59.81501308041045,
TULIPÁN UTCA,stimuli/scenes/119a.jpg,scene,right,Camponello,0,stimuli/scenes/119a.jpg,stimuli/scenes/119b.jpg,stimuli/objects/035b.jpg,stimuli/objects/035a.jpg,stimuli/scenes/119a.jpg,lure,dist2,dist1,target,0,26,26,98,,,,,125.060343015939,126.11848379485309,126.11848379485309,126.11848379485309,126.11848379485309,126.11848379485309,126.11848379485309,126.11848379485309,126.11848379485309,126.11848379485309,126.11848379485309,k,2.5553522016853094,target,None,,,,,,,,,,,,,,,ST02_120922,2022-12-09_15h21.09.216,Hippopolis_4AFCT,2022.2.2,59.81501308041045,
KOKTÉL UTCA,stimuli/objects/109a.jpg,object,left,Hippopolis,2,stimuli/scenes/016a.jpg,stimuli/scenes/016a.jpg,stimuli/scenes/016b.jpg,stimuli/scenes/063b.jpg,stimuli/scenes/063a.jpg,target,lure,dist2,dist1,0,27,27,46,,,,,128.693217696622,129.73556650429964,129.73556650429964,129.73556650429964,129.73556650429964,129.73556650429964,129.73556650429964,129.73556650429964,129.73556650429964,129.73556650429964,129.73556650429964,j,1.8019056301563978,dist2,None,,,,,,,,,,,,,,,ST02_120922,2022-12-09_15h21.09.216,Hippopolis_4AFCT,2022.2.2,59.81501308041045,
KORONA UTCA,stimuli/objects/039a.jpg,object,left,Hippopolis,2,stimuli/scenes/047a.jpg,stimuli/objects/094a.jpg,stimuli/scenes/047a.jpg,stimuli/objects/094b.jpg,stimuli/scenes/047b.jpg,dist1,target,dist2,lure,0,28,28,33,,,,,131.55995581299067,132.59622537717223,132.59622537717223,132.59622537717223,132.59622537717223,132.59622537717223,132.59622537717223,132.59622537717223,132.59622537717223,132.59622537717223,132.59622537717223,j,2.349513554945588,dist2,None,,,,,,,,,,,,,,,ST02_120922,2022-12-09_15h21.09.216,Hippopolis_4AFCT,2022.2.2,59.81501308041045,
KESELYŰ UTCA,stimuli/scenes/053a.jpg,scene,right,Camponello,0,stimuli/scenes/053a.jpg,stimuli/scenes/054a.jpg,stimuli/scenes/053b.jpg,stimuli/scenes/054b.jpg,stimuli/scenes/053a.jpg,dist1,lure,dist2,target,0,29,29,110,,,,,134.97601083293557,136.0135082527995,136.0135082527995,136.0135082527995,136.0135082527995,136.0135082527995,136.0135082527995,136.0135082527995,136.0135082527995,136.0135082527995,136.0135082527995,d,2.9008488915860653,dist1,None,,,,,,,,,,,,,,,ST02_120922,2022-12-09_15h21.09.216,Hippopolis_4AFCT,2022.2.2,59.81501308041045,
NARANCS UTCA,stimuli/scenes/109a.jpg,scene,right,Camponello,0,stimuli/scenes/109a.jpg,stimuli/scenes/109b.jpg,stimuli/scenes/077b.jpg,stimuli/scenes/077a.jpg,stimuli/scenes/109a.jpg,lure,dist2,dist1,target,0,30,30,120,,,,,138.94342887029052,140.01649484597147,140.01649484597147,140.01649484597147,140.01649484597147,140.01649484597147,140.01649484597147,140.01649484597147,140.01649484597147,140.01649484597147,140.01649484597147,k,2.225073054432869,target,None,,,,,,,,,,,,,,,ST02_120922,2022-12-09_15h21.09.216,Hippopolis_4AFCT,2022.2.2,59.81501308041045,
MENTA UTCA,stimuli/objects/076a.jpg,object,left,Hippopolis,2,stimuli/scenes/031a.jpg,stimuli/scenes/031a.jpg,stimuli/scenes/081a.jpg,stimuli/scenes/081b.jpg,stimuli/scenes/031b.jpg,target,dist1,dist2,lure,0,31,31,60,,,,,142.27367442846298,143.31278752535582,143.31278752535582,143.31278752535582,143.31278752535582,143.31278752535582,143.31278752535582,143.31278752535582,143.31278752535582,143.31278752535582,143.31278752535582,f,2.737203547731042,dist1,None,,,,,,,,,,,,,,,ST02_120922,2022-12-09_15h21.09.216,Hippopolis_4AFCT,2022.2.2,59.81501308041045,
SZOBOR UTCA,stimuli/scenes/010a.jpg,scene,right,Hippopolis,2,stimuli/objects/038a.jpg,stimuli/scenes/111a.jpg,stimuli/scenes/111b.jpg,stimuli/objects/038b.jpg,stimuli/objects/038a.jpg,dist1,dist2,lure,target,0,32,32,52,,,,,146.07656946219504,147.15173193253577,147.15173193253577,147.15173193253577,147.15173193253577,147.15173193253577,147.15173193253577,147.15173193253577,147.15173193253577,147.15173193253577,147.15173193253577,d,3.2501917984336615,dist1,None,,,,,,,,,,,,,,,ST02_120922,2022-12-09_15h21.09.216,Hippopolis_4AFCT,2022.2.2,59.81501308041045,
KÓKUSZ UTCA,stimuli/scenes/095a.jpg,scene,right,Hippopolis,2,stimuli/objects/046a.jpg,stimuli/scenes/015a.jpg,stimuli/objects/046b.jpg,stimuli/objects/046a.jpg,stimuli/scenes/015b.jpg,dist1,lure,target,dist2,0,33,33,51,,,,,150.4266584739089,151.48591700941324,151.48591700941324,151.48591700941324,151.48591700941324,151.48591700941324,151.48591700941324,151.48591700941324,151.48591700941324,151.48591700941324,151.48591700941324,k,3.2997142784297466,dist2,None,,151.48591700941324,,,,,,,,,,,,,ST02_120922,2022-12-09_15h21.09.216,Hippopolis_4AFCT,2022.2.2,59.81501308041045,
TORONY UTCA,stimuli/objects/107a.jpg,object,left,Hippopolis,2,stimuli/scenes/084a.jpg,stimuli/objects/033a.jpg,stimuli/scenes/084b.jpg,stimuli/scenes/084a.jpg,stimuli/objects/033b.jpg,dist1,lure,target,dist2,0,34,34,69,,,,,154.80459499545395,155.83433840237558,155.83433840237558,155.83433840237558,155.83433840237558,155.83433840237558,155.83433840237558,155.83433840237558,155.83433840237558,155.83433840237558,155.83433840237558,j,2.2157148737460375,target,None,,,,,,,,,,,,,,,ST02_120922,2022-12-09_15h21.09.216,Hippopolis_4AFCT,2022.2.2,59.81501308041045,
LÁNDZSA UTCA,stimuli/scenes/042a.jpg,scene,right,Hippopolis,1,stimuli/scenes/073a.jpg,stimuli/scenes/073a.jpg,stimuli/objects/001a.jpg,stimuli/objects/001b.jpg,stimuli/scenes/073b.jpg,target,dist1,dist2,lure,0,35,35,18,,,,,158.08235013857484,159.14259954169393,159.14259954169393,159.14259954169393,159.14259954169393,159.14259954169393,159.14259954169393,159.14259954169393,159.14259954169393,159.14259954169393,159.14259954169393,d,2.218527613207698,target,None,,,,,,,,,,,,,,,ST02_120922,2022-12-09_15h21.09.216,Hippopolis_4AFCT,2022.2.2,59.81501308041045,
PIZSAMA UTCA,stimuli/scenes/082a.jpg,scene,right,Hippopolis,0,stimuli/scenes/082a.jpg,stimuli/scenes/082b.jpg,stimuli/objects/095a.jpg,stimuli/objects/095b.jpg,stimuli/scenes/082a.jpg,lure,dist1,dist2,target,0,36,36,7,,,,,161.3929292075336,162.4495043810457,162.4495043810457,162.4495043810457,162.4495043810457,162.4495043810457,162.4495043810457,162.4495043810457,162.4495043810457,162.4495043810457,162.4495043810457,k,2.0642951913177967,target,None,,,,,,,,,,,,,,,ST02_120922,2022-12-09_15h21.09.216,Hippopolis_4AFCT,2022.2.2,59.81501308041045,
KOCKA UTCA,stimuli/scenes/048a.jpg,scene,right,Hippopolis,1,stimuli/scenes/037a.jpg,stimuli/scenes/037b.jpg,stimuli/scenes/022a.jpg,stimuli/scenes/037a.jpg,stimuli/scenes/022b.jpg,lure,dist1,target,dist2,0,37,37,20,,,,,164.5527855604887,165.60072284191847,165.60072284191847,165.60072284191847,165.60072284191847,165.60072284191847,165.60072284191847,165.60072284191847,165.60072284191847,165.60072284191847,165.60072284191847,f,2.352771969512105,dist1,None,,,,,,,,,,,,,,,ST02_120922,2022-12-09_15h21.09.216,Hippopolis_4AFCT,2022.2.2,59.81501308041045,
KERÉK UTCA,stimuli/scenes/077a.jpg,scene,right,Camponello,0,stimuli/scenes/077a.jpg,stimuli/scenes/077a.jpg,stimuli/scenes/041b.jpg,stimuli/scenes/041a.jpg,stimuli/scenes/077b.jpg,target,dist2,dist1,lure,0,38,38,119,,,,,167.9764857403934,169.00289578177035,169.00289578177035,169.00289578177035,169.00289578177035,169.00289578177035,169.00289578177035,169.00289578177035,169.00289578177035,169.00289578177035,169.00289578177035,f,2.64713360927999,dist2,None,,,,,,,,,,,,,,,ST02_120922,2022-12-09_15h21.09.216,Hippopolis_4AFCT,2022.2.2,59.81501308041045,
PALACK UTCA,stimuli/scenes/062a.jpg,scene,right,Camponello,0,stimuli/scenes/062a.jpg,stimuli/scenes/059b.jpg,stimuli/scenes/059a.jpg,stimuli/scenes/062a.jpg,stimuli/scenes/062b.jpg,dist2,dist1,target,lure,0,39,39,143,,,,,171.67633347213268,172.7148065175861,172.7148065175861,172.7148065175861,172.7148065175861,172.7148065175861,172.7148065175861,172.7148065175861,172.7148065175861,172.7148065175861,172.7148065175861,j,2.390353048220277,target,None,,,,,,,,,,,,,,,ST02_120922,2022-12-09_15h21.09.216,Hippopolis_4AFCT,2022.2.2,59.81501308041045,
FOLYÓ UTCA,stimuli/scenes/052a.jpg,scene,right,Camponello,0,stimuli/scenes/052a.jpg,stimuli/scenes/052b.jpg,stimuli/scenes/052a.jpg,stimuli/scenes/019a.jpg,stimuli/scenes/019b.jpg,lure,target,dist1,dist2,0,40,40,89,,,,,175.12470454350114,176.16497147455812,176.16497147455812,176.16497147455812,176.16497147455812,176.16497147455812,176.16497147455812,176.16497147455812,176.16497147455812,176.16497147455812,176.16497147455812,f,2.9399271551519632,target,None,,,,,,,,,,,,,,,ST02_120922,2022-12-09_15h21.09.216,Hippopolis_4AFCT,2022.2.2,59.81501308041045,
VASALÓ UTCA,stimuli/objects/105a.jpg,object,left,Camponello,0,stimuli/objects/105a.jpg,stimuli/scenes/038a.jpg,stimuli/objects/105a.jpg,stimuli/scenes/038b.jpg,stimuli/objects/105b.jpg,dist1,target,dist2,lure,0,41,41,105,,,,,179.12622256577015,180.1876236256212,180.1876236256212,180.1876236256212,180.1876236256212,180.1876236256212,180.1876236256212,180.1876236256212,180.1876236256212,180.1876236256212,180.1876236256212,f,2.421676056459546,target,None,,,,,,,,,,,,,,,ST02_120922,2022-12-09_15h21.09.216,Hippopolis_4AFCT,2022.2.2,59.81501308041045,
REPÜLŐ UTCA,stimuli/scenes/072a.jpg,scene,right,Hippopolis,0,stimuli/scenes/072a.jpg,stimuli/objects/064b.jpg,stimuli/scenes/072a.jpg,stimuli/objects/064a.jpg,stimuli/scenes/072b.jpg,dist2,target,dist1,lure,0,42,42,71,,,,,182.6261382829398,183.67971846461296,183.67971846461296,183.67971846461296,183.67971846461296,183.67971846461296,183.67971846461296,183.67971846461296,183.67971846461296,183.67971846461296,183.67971846461296,f,2.689346507191658,target,None,,,,,,,,,,,,,,,ST02_120922,2022-12-09_15h21.09.216,Hippopolis_4AFCT,2022.2.2,59.81501308041045,
TOLLTARTÓ UTCA,stimuli/objects/071a.jpg,object,left,Camponello,1,stimuli/objects/048a.jpg,stimuli/scenes/097b.jpg,stimuli/scenes/097a.jpg,stimuli/objects/048a.jpg,stimuli/objects/048b.jpg,dist2,dist1,target,lure,0,43,43,115,,,,,186.3975370787084,187.4281926676631,187.4281926676631,187.4281926676631,187.4281926676631,187.4281926676631,187.4281926676631,187.4281926676631,187.4281926676631,187.4281926676631,187.4281926676631,j,3.6295937821269035,target,None,190.87656498514116,,,,,,,,,,,,,,ST02_120922,2022-12-09_15h21.09.216,Hippopolis_4AFCT,2022.2.2,59.81501308041045,
SZIKLA UTCA,stimuli/scenes/114a.jpg,scene,right,Camponello,0,stimuli/scenes/114a.jpg,stimuli/scenes/114a.jpg,stimuli/scenes/053a.jpg,stimuli/scenes/053b.jpg,stimuli/scenes/114b.jpg,target,dist1,dist2,lure,0,44,44,126,,,,,191.07590608671308,192.14706683717668,192.14706683717668,192.14706683717668,192.14706683717668,192.14706683717668,192.14706683717668,192.14706683717668,192.14706683717668,192.14706683717668,192.14706683717668,f,2.6062085889279842,dist1,space,,,194.7761096097529,194.7761096097529,2.3130054473876953,,,,,,,,,,ST02_120922,2022-12-09_15h21.09.216,Hippopolis_4AFCT,2022.2.2,59.81501308041045,
KÖMÉNYMAG UTCA,stimuli/scenes/058a.jpg,scene,right,Hippopolis,2,stimuli/objects/033a.jpg,stimuli/objects/033b.jpg,stimuli/objects/033a.jpg,stimuli/objects/114a.jpg,stimuli/objects/114b.jpg,lure,target,dist1,dist2,0,45,45,9,,,,,197.1228098925203,198.16591226868331,198.16591226868331,198.16591226868331,198.16591226868331,198.16591226868331,198.16591226868331,198.16591226868331,198.16591226868331,198.16591226868331,198.16591226868331,f,2.6671555787324905,target,None,,,,,,,,,,,,,,,ST02_120922,2022-12-09_15h21.09.216,Hippopolis_4AFCT,2022.2.2,59.81501308041045,
OLDAL UTCA,stimuli/objects/113a.jpg,object,left,Hippopolis,2,stimuli/scenes/044a.jpg,stimuli/scenes/044a.jpg,stimuli/objects/038a.jpg,stimuli/objects/038b.jpg,stimuli/scenes/044b.jpg,target,dist1,dist2,lure,0,46,46,4,,,,,200.86259488761425,201.90339395031333,201.90339395031333,201.90339395031333,201.90339395031333,201.90339395031333,201.90339395031333,201.90339395031333,201.90339395031333,201.90339395031333,201.90339395031333,k,3.5217265021055937,lure,None,205.3596067391336,,,,,,,,,,,,,,ST02_120922,2022-12-09_15h21.09.216,Hippopolis_4AFCT,2022.2.2,59.81501308041045,
FÉNYKÉP UTCA,stimuli/objects/005a.jpg,object,left,Camponello,0,stimuli/objects/005a.jpg,stimuli/objects/005b.jpg,stimuli/objects/005a.jpg,stimuli/scenes/120b.jpg,stimuli/scenes/120a.jpg,lure,target,dist2,dist1,0,47,47,151,,,,,205.4425023831427,206.51248068735003,206.51248068735003,206.51248068735003,206.51248068735003,206.51248068735003,206.51248068735003,206.51248068735003,206.51248068735003,206.51248068735003,206.51248068735003,f,1.7120319362729788,target,None,,,,,,,,,,,,,,,ST02_120922,2022-12-09_15h21.09.216,Hippopolis_4AFCT,2022.2.2,59.81501308041045,
POLIP UTCA,stimuli/scenes/090a.jpg,scene,right,Hippopolis,0,stimuli/scenes/090a.jpg,stimuli/objects/008a.jpg,stimuli/objects/008b.jpg,stimuli/scenes/090b.jpg,stimuli/scenes/090a.jpg,dist1,dist2,lure,target,0,48,48,23,,,,,208.25640424340963,209.2952878177166,209.2952878177166,209.2952878177166,209.2952878177166,209.2952878177166,209.2952878177166,209.2952878177166,209.2952878177166,209.2952878177166,209.2952878177166,k,2.1620292607694864,target,None,,,,,,,,,,,,,,,ST02_120922,2022-12-09_15h21.09.216,Hippopolis_4AFCT,2022.2.2,59.81501308041045,
PAPUCS UTCA,stimuli/scenes/059a.jpg,scene,right,Camponello,0,stimuli/scenes/059a.jpg,stimuli/objects/040b.jpg,stimuli/objects/040a.jpg,stimuli/scenes/059a.jpg,stimuli/scenes/059b.jpg,dist2,dist1,target,lure,0,49,49,118,,,,,211.48999710194767,212.52837497927248,212.52837497927248,212.52837497927248,212.52837497927248,212.52837497927248,212.52837497927248,212.52837497927248,212.52837497927248,212.52837497927248,212.52837497927248,j,2.016373459249735,target,None,,,,,,,,,,,,,,,ST02_120922,2022-12-09_15h21.09.216,Hippopolis_4AFCT,2022.2.2,59.81501308041045,
KALAPÁCS UTCA,stimuli/objects/025a.jpg,object,left,Hippopolis,1,stimuli/objects/068a.jpg,stimuli/scenes/066b.jpg,stimuli/scenes/066a.jpg,stimuli/objects/068b.jpg,stimuli/objects/068a.jpg,dist2,dist1,lure,target,0,50,50,17,,,,,214.5690148063004,215.61136205866933,215.61136205866933,215.61136205866933,215.61136205866933,215.61136205866933,215.61136205866933,215.61136205866933,215.61136205866933,215.61136205866933,215.61136205866933,f,2.6621723249554634,dist1,None,,,,,,,,,,,,,,,ST02_120922,2022-12-09_15h21.09.216,Hippopolis_4AFCT,2022.2.2,59.81501308041045,
TENISZ UTCA,stimuli/scenes/005a.jpg,scene,right,Camponello,2,stimuli/objects/077a.jpg,stimuli/scenes/026b.jpg,stimuli/objects/077b.jpg,stimuli/scenes/026a.jpg,stimuli/objects/077a.jpg,dist2,lure,dist1,target,0,51,51,109,,,,,218.29684627056122,219.34892988950014,219.34892988950014,219.34892988950014,219.34892988950014,219.34892988950014,219.34892988950014,219.34892988950014,219.34892988950014,219.34892988950014,219.34892988950014,k,2.779896019026637,target,None,,,,,,,,,,,,,,,ST02_120922,2022-12-09_15h21.09.216,Hippopolis_4AFCT,2022.2.2,59.81501308041045,
HENTES UTCA,stimuli/objects/032a.jpg,object,left,Hippopolis,1,stimuli/objects/120a.jpg,stimuli/objects/017a.jpg,stimuli/objects/120a.jpg,stimuli/objects/120b.jpg,stimuli/objects/017b.jpg,dist1,target,lure,dist2,0,52,52,50,,,,,222.1719579230994,223.21762921102345,223.21762921102345,223.21762921102345,223.21762921102345,223.21762921102345,223.21762921102345,223.21762921102345,223.21762921102345,223.21762921102345,223.21762921102345,f,2.991047589108348,target,None,,,,,,,,,,,,,,,ST02_120922,2022-12-09_15h21.09.216,Hippopolis_4AFCT,2022.2.2,59.81501308041045,
ÁLOM UTCA,stimuli/scenes/083a.jpg,scene,right,Hippopolis,1,stimuli/scenes/116a.jpg,stimuli/scenes/037a.jpg,stimuli/scenes/116b.jpg,stimuli/scenes/116a.jpg,stimuli/scenes/037b.jpg,dist1,lure,target,dist2,0,53,53,27,,,,,226.2258615512401,227.2631254028529,227.2631254028529,227.2631254028529,227.2631254028529,227.2631254028529,227.2631254028529,227.2631254028529,227.2631254028529,227.2631254028529,227.2631254028529,k,2.769357254728675,dist2,None,,,,,,,,,,,,,,,ST02_120922,2022-12-09_15h21.09.216,Hippopolis_4AFCT,2022.2.2,59.81501308041045,
EGÉR UTCA,stimuli/objects/082a.jpg,object,left,Camponello,0,stimuli/objects/082a.jpg,stimuli/objects/030b.jpg,stimuli/objects/082b.jpg,stimuli/objects/082a.jpg,stimuli/objects/030a.jpg,dist2,lure,target,dist1,0,54,54,136,,,,,230.05878456309438,231.12775085121393,231.12775085121393,231.12775085121393,231.12775085121393,231.12775085121393,231.12775085121393,231.12775085121393,231.12775085121393,231.12775085121393,231.12775085121393,f,3.0014268048107624,lure,None,,,,,,,,,,,,,,,ST02_120922,2022-12-09_15h21.09.216,Hippopolis_4AFCT,2022.2.2,59.81501308041045,
POGÁCSA UTCA,stimuli/scenes/092a.jpg,scene,right,Hippopolis,1,stimuli/scenes/067a.jpg,stimuli/objects/058b.jpg,stimuli/scenes/067a.jpg,stimuli/objects/058a.jpg,stimuli/scenes/067b.jpg,dist2,target,dist1,lure,0,55,55,47,,,,,234.1559538450092,235.22860649228096,235.22860649228096,235.22860649228096,235.22860649228096,235.22860649228096,235.22860649228096,235.22860649228096,235.22860649228096,235.22860649228096,235.22860649228096,j,4.035695666447282,dist1,None,238.6426225565374,,,,,,,,,,,,,,ST02_120922,2022-12-09_15h21.09.216,Hippopolis_4AFCT,2022.2.2,59.81501308041045,
KUTYA UTCA,stimuli/scenes/107a.jpg,scene,right,Hippopolis,1,stimuli/scenes/022a.jpg,stimuli/scenes/088b.jpg,stimuli/scenes/022b.jpg,stimuli/scenes/022a.jpg,stimuli/scenes/088a.jpg,dist2,lure,target,dist1,0,56,56,35,,,,,239.293659389019,240.32695542275906,240.32695542275906,240.32695542275906,240.32695542275906,240.32695542275906,240.32695542275906,240.32695542275906,240.32695542275906,240.32695542275906,240.32695542275906,j,3.1456242948770523,target,None,,,,,,,,,,,,,,,ST02_120922,2022-12-09_15h21.09.216,Hippopolis_4AFCT,2022.2.2,59.81501308041045,
LEGELŐ UTCA,stimuli/scenes/013a.jpg,scene,right,Camponello,1,stimuli/scenes/051a.jpg,stimuli/scenes/051b.jpg,stimuli/scenes/051a.jpg,stimuli/objects/019a.jpg,stimuli/objects/019b.jpg,lure,target,dist1,dist2,0,57,57,95,,,,,243.49677268788218,244.53716899640858,244.53716899640858,244.53716899640858,244.53716899640858,244.53716899640858,244.53716899640858,244.53716899640858,244.53716899640858,244.53716899640858,244.53716899640858,j,2.4072892125695944,dist1,None,,,,,,,,,,,,,,,ST02_120922,2022-12-09_15h21.09.216,Hippopolis_4AFCT,2022.2.2,59.81501308041045,
KÖTÉNY UTCA,stimuli/scenes/074a.jpg,scene,right,Hippopolis,2,stimuli/objects/112a.jpg,stimuli/objects/112a.jpg,stimuli/scenes/011a.jpg,stimuli/objects/112b.jpg,stimuli/scenes/011b.jpg,target,dist1,lure,dist2,0,58,58,25,,,,,246.9755343720317,248.0337544567883,248.0337544567883,248.0337544567883,248.0337544567883,248.0337544567883,248.0337544567883,248.0337544567883,248.0337544567883,248.0337544567883,248.0337544567883,d,2.174652077257633,target,None,,,,,,,,,,,,,,,ST02_120922,2022-12-09_15h21.09.216,Hippopolis_4AFCT,2022.2.2,59.81501308041045,
PÉKSÉG UTCA,stimuli/scenes/050a.jpg,scene,right,Hippopolis,0,stimuli/scenes/050a.jpg,stimuli/objects/084b.jpg,stimuli/scenes/050b.jpg,stimuli/scenes/050a.jpg,stimuli/objects/084a.jpg,dist2,lure,target,dist1,0,59,59,55,,,,,250.24952664785087,251.31203302368522,251.31203302368522,251.31203302368522,251.31203302368522,251.31203302368522,251.31203302368522,251.31203302368522,251.31203302368522,251.31203302368522,251.31203302368522,j,1.9365384299308062,target,None,,,,,,,,,,,,,,,ST02_120922,2022-12-09_15h21.09.216,Hippopolis_4AFCT,2022.2.2,59.81501308041045,
VÁSÁR UTCA,stimuli/objects/086a.jpg,object,left,Hippopolis,0,stimuli/objects/086a.jpg,stimuli/objects/086a.jpg,stimuli/scenes/050a.jpg,stimuli/scenes/050b.jpg,stimuli/objects/086b.jpg,target,dist1,dist2,lure,0,60,60,78,,,,,253.27554761990905,254.33368186838925,254.33368186838925,254.33368186838925,254.33368186838925,254.33368186838925,254.33368186838925,254.33368186838925,254.33368186838925,254.33368186838925,254.33368186838925,d,2.8668854385614395,target,None,,,,,,,,,,,,,,,ST02_120922,2022-12-09_15h21.09.216,Hippopolis_4AFCT,2022.2.2,59.81501308041045,
SUGÁR UTCA,stimuli/objects/075a.jpg,object,left,Camponello,2,stimuli/scenes/103a.jpg,stimuli/objects/007a.jpg,stimuli/objects/007b.jpg,stimuli/scenes/103b.jpg,stimuli/scenes/103a.jpg,dist1,dist2,lure,target,0,61,61,131,,,,,257.225229896605,258.28271009773016,258.28271009773016,258.28271009773016,258.28271009773016,258.28271009773016,258.28271009773016,258.28271009773016,258.28271009773016,258.28271009773016,258.28271009773016,k,2.7574920505285263,target,None,,,,,,,,,,,,,,,ST02_120922,2022-12-09_15h21.09.216,Hippopolis_4AFCT,2022.2.2,59.81501308041045,
KAKAS UTCA,stimuli/objects/011a.jpg,object,left,Camponello,1,stimuli/objects/069a.jpg,stimuli/scenes/117b.jpg,stimuli/objects/069a.jpg,stimuli/scenes/117a.jpg,stimuli/objects/069b.jpg,dist2,target,dist1,lure,0,62,62,150,,,,,261.0677191540599,262.15541673637927,262.15541673637927,262.15541673637927,262.15541673637927,262.15541673637927,262.15541673637927,262.15541673637927,262.15541673637927,262.15541673637927,262.15541673637927,f,1.4451812971383333,target,None,,,,,,,,,,,,,,,ST02_120922,2022-12-09_15h21.09.216,Hippopolis_4AFCT,2022.2.2,59.81501308041045,
KECSKE UTCA,stimuli/objects/012a.jpg,object,left,Hippopolis,2,stimuli/scenes/015a.jpg,stimuli/scenes/015a.jpg,stimuli/scenes/015b.jpg,stimuli/scenes/049b.jpg,stimuli/scenes/049a.jpg,target,lure,dist2,dist1,0,63,63,28,,,,,263.62510512024164,264.6780797727406,264.6780797727406,264.6780797727406,264.6780797727406,264.6780797727406,264.6780797727406,264.6780797727406,264.6780797727406,264.6780797727406,264.6780797727406,d,3.0498047824949026,target,None,,,,,,,,,,,,,,,ST02_120922,2022-12-09_15h21.09.216,Hippopolis_4AFCT,2022.2.2,59.81501308041045,
BETON UTCA,stimuli/scenes/091a.jpg,scene,right,Camponello,0,stimuli/scenes/091a.jpg,stimuli/scenes/091b.jpg,stimuli/scenes/119a.jpg,stimuli/scenes/091a.jpg,stimuli/scenes/119b.jpg,lure,dist1,target,dist2,0,64,64,96,,,,,267.7584506664425,268.7957191839814,268.7957191839814,268.7957191839814,268.7957191839814,268.7957191839814,268.7957191839814,268.7957191839814,268.7957191839814,268.7957191839814,268.7957191839814,j,2.084602663293481,target,None,,,,,,,,,,,,,,,ST02_120922,2022-12-09_15h21.09.216,Hippopolis_4AFCT,2022.2.2,59.81501308041045,
SZOMSZÉD UTCA,stimuli/scenes/023a.jpg,scene,right,Camponello,0,stimuli/scenes/023a.jpg,stimuli/scenes/113b.jpg,stimuli/scenes/023b.jpg,stimuli/scenes/023a.jpg,stimuli/scenes/113a.jpg,dist2,lure,target,dist1,0,65,65,113,,,,,270.9094249866903,271.9530579391867,271.9530579391867,271.9530579391867,271.9530579391867,271.9530579391867,271.9530579391867,271.9530579391867,271.9530579391867,271.9530579391867,271.9530579391867,j,2.687000274658203,target,None,,,,,,,,,,,,,,,ST02_120922,2022-12-09_15h21.09.216,Hippopolis_4AFCT,2022.2.2,59.81501308041045,
KÖTÉL UTCA,stimuli/scenes/060a.jpg,scene,right,Hippopolis,0,stimuli/scenes/060a.jpg,stimuli/objects/024b.jpg,stimuli/scenes/060a.jpg,stimuli/scenes/060b.jpg,stimuli/objects/024a.jpg,dist2,target,lure,dist1,0,66,66,66,,,,,274.6582011766732,275.69498887844384,275.69498887844384,275.69498887844384,275.69498887844384,275.69498887844384,275.69498887844384,275.69498887844384,275.69498887844384,275.69498887844384,275.69498887844384,f,2.3690882977098227,target,None,,,,,,,,,,,,,,,ST02_120922,2022-12-09_15h21.09.216,Hippopolis_4AFCT,2022.2.2,59.81501308041045,
MUSTÁR UTCA,stimuli/objects/059a.jpg,object,left,Hippopolis,1,stimuli/objects/056a.jpg,stimuli/objects/056b.jpg,stimuli/scenes/061a.jpg,stimuli/scenes/061b.jpg,stimuli/objects/056a.jpg,lure,dist1,dist2,target,0,67,67,2,,,,,278.1021683998406,279.1602401342243,279.1602401342243,279.1602401342243,279.1602401342243,279.1602401342243,279.1602401342243,279.1602401342243,279.1602401342243,279.1602401342243,279.1602401342243,d,3.175613086670637,lure,None,,,,,,,,,,,,,,,ST02_120922,2022-12-09_15h21.09.216,Hippopolis_4AFCT,2022.2.2,59.81501308041045,
CITROM UTCA,stimuli/objects/111a.jpg,object,left,Hippopolis,2,stimuli/scenes/049a.jpg,stimuli/scenes/049a.jpg,stimuli/scenes/049b.jpg,stimuli/scenes/002a.jpg,stimuli/scenes/002b.jpg,target,lure,dist1,dist2,0,68,68,73,,,,,282.358961712569,283.4015810955316,283.4015810955316,283.4015810955316,283.4015810955316,283.4015810955316,283.4015810955316,283.4015810955316,283.4015810955316,283.4015810955316,283.4015810955316,d,1.638374425470829,target,None,,,,,,,,,,,,,,,ST02_120922,2022-12-09_15h21.09.216,Hippopolis_4AFCT,2022.2.2,59.81501308041045,
LOVAGLÁS UTCA,stimuli/objects/016a.jpg,object,left,Camponello,2,stimuli/scenes/026a.jpg,stimuli/scenes/026b.jpg,stimuli/objects/065a.jpg,stimuli/scenes/026a.jpg,stimuli/objects/065b.jpg,lure,dist1,target,dist2,0,69,69,116,,,,,285.05803223885596,286.0949639361352,286.0949639361352,286.0949639361352,286.0949639361352,286.0949639361352,286.0949639361352,286.0949639361352,286.0949639361352,286.0949639361352,286.0949639361352,f,1.6333389207720757,dist1,None,,,,,,,,,,,,,,,ST02_120922,2022-12-09_15h21.09.216,Hippopolis_4AFCT,2022.2.2,59.81501308041045,
TALICSKA UTCA,stimuli/scenes/012a.jpg,scene,right,Hippopolis,2,stimuli/objects/060a.jpg,stimuli/objects/060b.jpg,stimuli/objects/061a.jpg,stimuli/objects/060a.jpg,stimuli/objects/061b.jpg,lure,dist1,target,dist2,0,70,70,41,,,,,287.7604899350554,288.7957204282284,288.7957204282284,288.7957204282284,288.7957204282284,288.7957204282284,288.7957204282284,288.7957204282284,288.7957204282284,288.7957204282284,288.7957204282284,j,2.4360980466008186,target,None,,288.7957204282284,,,,,,,,,,,,,ST02_120922,2022-12-09_15h21.09.216,Hippopolis_4AFCT,2022.2.2,59.81501308041045,
SZÖCSKE UTCA,stimuli/objects/044a.jpg,object,left,Hippopolis,0,stimuli/objects/044a.jpg,stimuli/scenes/082b.jpg,stimuli/objects/044b.jpg,stimuli/objects/044a.jpg,stimuli/scenes/082a.jpg,dist2,lure,target,dist1,0,71,71,42,,,,,291.25466633960605,292.300584256649,292.300584256649,292.300584256649,292.300584256649,292.300584256649,292.300584256649,292.300584256649,292.300584256649,292.300584256649,292.300584256649,j,1.4910214636474848,target,None,,,,,,,,,,,,,,,ST02_120922,2022-12-09_15h21.09.216,Hippopolis_4AFCT,2022.2.2,59.81501308041045,
AJÁNDÉK UTCA,stimuli/scenes/070a.jpg,scene,right,Camponello,2,stimuli/objects/089a.jpg,stimuli/scenes/020b.jpg,stimuli/scenes/020a.jpg,stimuli/objects/089a.jpg,stimuli/objects/089b.jpg,dist2,dist1,target,lure,0,72,72,154,,,,,293.8113814666867,294.8927817903459,294.8927817903459,294.8927817903459,294.8927817903459,294.8927817903459,294.8927817903459,294.8927817903459,294.8927817903459,294.8927817903459,294.8927817903459,k,1.6506504695862532,lure,None,,,,,,,,,,,,,,,ST02_120922,2022-12-09_15h21.09.216,Hippopolis_4AFCT,2022.2.2,59.81501308041045,
HORDÓ UTCA,stimuli/scenes/085a.jpg,scene,right,Hippopolis,1,stimuli/scenes/055a.jpg,stimuli/scenes/055b.jpg,stimuli/objects/009a.jpg,stimuli/scenes/055a.jpg,stimuli/objects/009b.jpg,lure,dist1,target,dist2,0,73,73,32,,,,,296.57475007511675,297.6104175336659,297.6104175336659,297.6104175336659,297.6104175336659,297.6104175336659,297.6104175336659,297.6104175336659,297.6104175336659,297.6104175336659,297.6104175336659,d,1.9737096037715673,lure,None,,,,,,,,,,,,,,,ST02_120922,2022-12-09_15h21.09.216,Hippopolis_4AFCT,2022.2.2,59.81501308041045,
PULÓVER UTCA,stimuli/objects/035a.jpg,object,left,Camponello,0,stimuli/objects/035a.jpg,stimuli/objects/035a.jpg,stimuli/scenes/029b.jpg,stimuli/scenes/029a.jpg,stimuli/objects/035b.jpg,target,dist2,dist1,lure,0,74,74,149,,,,,299.60811422020197,300.67036090418696,300.67036090418696,300.67036090418696,300.67036090418696,300.67036090418696,300.67036090418696,300.67036090418696,300.67036090418696,300.67036090418696,300.67036090418696,d,1.4575727265328169,target,None,,,,,,,,,,,,,,,ST02_120922,2022-12-09_15h21.09.216,Hippopolis_4AFCT,2022.2.2,59.81501308041045,
FOGAS UTCA,stimuli/scenes/075a.jpg,scene,right,Hippopolis,1,stimuli/scenes/061a.jpg,stimuli/scenes/061b.jpg,stimuli/objects/090b.jpg,stimuli/objects/090a.jpg,stimuli/scenes/061a.jpg,lure,dist2,dist1,target,0,75,75,39,,,,,302.15157767385244,303.1957775913179,303.1957775913179,303.1957775913179,303.1957775913179,303.1957775913179,303.1957775913179,303.1957775913179,303.1957775913179,303.1957775913179,303.1957775913179,j,1.3159481901675463,dist1,None,,,,,,,,,,,,,,,ST02_120922,2022-12-09_15h21.09.216,Hippopolis_4AFCT,2022.2.2,59.81501308041045,
SZAXOFON UTCA,stimuli/objects/081a.jpg,object,left,Camponello,0,stimuli/objects/081a.jpg,stimuli/objects/083b.jpg,stimuli/objects/081b.jpg,stimuli/objects/081a.jpg,stimuli/objects/083a.jpg,dist2,lure,target,dist1,0,76,76,156,,,,,304.54128330014646,305.6167421583086,305.6167421583086,305.6167421583086,305.6167421583086,305.6167421583086,305.6167421583086,305.6167421583086,305.6167421583086,305.6167421583086,305.6167421583086,j,1.3267814759165049,target,None,,,,,,,,,,,,,,,ST02_120922,2022-12-09_15h21.09.216,Hippopolis_4AFCT,2022.2.2,59.81501308041045,
ZONGORA UTCA,stimuli/objects/050a.jpg,object,left,Camponello,0,stimuli/objects/050a.jpg,stimuli/objects/050a.jpg,stimuli/scenes/045b.jpg,stimuli/objects/050b.jpg,stimuli/scenes/045a.jpg,target,dist2,lure,dist1,0,77,77,108,,,,,306.9745388403535,308.0143762715161,308.0143762715161,308.0143762715161,308.0143762715161,308.0143762715161,308.0143762715161,308.0143762715161,308.0143762715161,308.0143762715161,308.0143762715161,d,1.249720623716712,target,None,,,,,,,,,,,,,,,ST02_120922,2022-12-09_15h21.09.216,Hippopolis_4AFCT,2022.2.2,59.81501308041045,
TERASZ UTCA,stimuli/scenes/001a.jpg,scene,right,Hippopolis,1,stimuli/scenes/087a.jpg,stimuli/scenes/087b.jpg,stimuli/objects/068b.jpg,stimuli/scenes/087a.jpg,stimuli/objects/068a.jpg,lure,dist2,target,dist1,0,78,78,22,,,,,309.2910870555788,310.34977738186717,310.34977738186717,310.34977738186717,310.34977738186717,310.34977738186717,310.34977738186717,310.34977738186717,310.34977738186717,310.34977738186717,310.34977738186717,j,1.6498315911740065,target,None,,,,,,,,,,,,,,,ST02_120922,2022-12-09_15h21.09.216,Hippopolis_4AFCT,2022.2.2,59.81501308041045,
SZILVA UTCA,stimuli/objects/030a.jpg,object,left,Camponello,0,stimuli/objects/030a.jpg,stimuli/objects/030a.jpg,stimuli/objects/030b.jpg,stimuli/objects/003b.jpg,stimuli/objects/003a.jpg,target,lure,dist2,dist1,0,79,79,144,,,,,312.0220027696341,313.0956251360476,313.0956251360476,313.0956251360476,313.0956251360476,313.0956251360476,313.0956251360476,313.0956251360476,313.0956251360476,313.0956251360476,313.0956251360476,f,1.1917163766920567,lure,None,,,,,,,,,,,,,,,ST02_120922,2022-12-09_15h21.09.216,Hippopolis_4AFCT,2022.2.2,59.81501308041045,
SIVATAG UTCA,stimuli/scenes/018a.jpg,scene,right,Hippopolis,2,stimuli/objects/096a.jpg,stimuli/objects/096b.jpg,stimuli/objects/112a.jpg,stimuli/objects/096a.jpg,stimuli/objects/112b.jpg,lure,dist1,target,dist2,0,80,80,65,,,,,314.3078894857317,315.3654838260263,315.3654838260263,315.3654838260263,315.3654838260263,315.3654838260263,315.3654838260263,315.3654838260263,315.3654838260263,315.3654838260263,315.3654838260263,f,3.1939612198621035,dist1,None,,,,,,,,,,,,,,,ST02_120922,2022-12-09_15h21.09.216,Hippopolis_4AFCT,2022.2.2,59.81501308041045,
KOCSI UTCA,stimuli/objects/106a.jpg,object,left,Hippopolis,2,stimuli/scenes/002a.jpg,stimuli/scenes/002b.jpg,stimuli/objects/110b.jpg,stimuli/scenes/002a.jpg,stimuli/objects/110a.jpg,lure,dist2,target,dist1,0,81,81,77,,,,,318.5915733445436,319.63778485171497,319.63778485171497,319.63778485171497,319.63778485171497,319.63778485171497,319.63778485171497,319.63778485171497,319.63778485171497,319.63778485171497,319.63778485171497,k,1.4499913230538368,dist1,None,,,,,,,,,,,,,,,ST02_120922,2022-12-09_15h21.09.216,Hippopolis_4AFCT,2022.2.2,59.81501308041045,
LEVÉL UTCA,stimuli/scenes/038a.jpg,scene,right,Camponello,0,stimuli/scenes/038a.jpg,stimuli/scenes/052a.jpg,stimuli/scenes/038a.jpg,stimuli/scenes/052b.jpg,stimuli/scenes/038b.jpg,dist1,target,dist2,lure,0,82,82,130,,,,,321.1060727741569,322.1278099436313,322.1278099436313,322.1278099436313,322.1278099436313,322.1278099436313,322.1278099436313,322.1278099436313,322.1278099436313,322.1278099436313,322.1278099436313,d,2.895956762135029,dist1,None,,,,,,,,,,,,,,,ST02_120922,2022-12-09_15h21.09.216,Hippopolis_4AFCT,2022.2.2,59.81501308041045,
TOJÁS UTCA,stimuli/scenes/035a.jpg,scene,right,Hippopolis,0,stimuli/scenes/035a.jpg,stimuli/objects/047b.jpg,stimuli/objects/047a.jpg,stimuli/scenes/035b.jpg,stimuli/scenes/035a.jpg,dist2,dist1,lure,target,0,83,83,10,,,,,325.0409617200494,326.0859540812671,326.0859540812671,326.0859540812671,326.0859540812671,326.0859540812671,326.0859540812671,326.0859540812671,326.0859540812671,326.0859540812671,326.0859540812671,k,1.8019407726824284,target,None,,,,,,,,,,,,,,,ST02_120922,2022-12-09_15h21.09.216,Hippopolis_4AFCT,2022.2.2,59.81501308041045,
FÉSZEK UTCA,stimuli/objects/015a.jpg,object,left,Hippopolis,2,stimuli/scenes/089a.jpg,stimuli/scenes/089a.jpg,stimuli/objects/006b.jpg,stimuli/scenes/089b.jpg,stimuli/objects/006a.jpg,target,dist2,lure,dist1,0,84,84,48,,,,,327.91563920490444,328.9846754707396,328.9846754707396,328.9846754707396,328.9846754707396,328.9846754707396,328.9846754707396,328.9846754707396,328.9846754707396,328.9846754707396,328.9846754707396,f,2.070531180128455,dist2,None,,,,,,,,,,,,,,,ST02_120922,2022-12-09_15h21.09.216,Hippopolis_4AFCT,2022.2.2,59.81501308041045,
FIÓK UTCA,stimuli/objects/047a.jpg,object,left,Hippopolis,0,stimuli/objects/047a.jpg,stimuli/objects/047b.jpg,stimuli/objects/086a.jpg,stimuli/objects/086b.jpg,stimuli/objects/047a.jpg,lure,dist1,dist2,target,0,85,85,56,,,,,331.07448789663613,332.12850286625326,332.12850286625326,332.12850286625326,332.12850286625326,332.12850286625326,332.12850286625326,332.12850286625326,332.12850286625326,332.12850286625326,332.12850286625326,k,1.6316156350076199,target,None,,,,,,,,,,,,,,,ST02_120922,2022-12-09_15h21.09.216,Hippopolis_4AFCT,2022.2.2,59.81501308041045,
TELEFON UTCA,stimuli/scenes/079a.jpg,scene,right,Hippopolis,2,stimuli/objects/079a.jpg,stimuli/objects/079a.jpg,stimuli/objects/079b.jpg,stimuli/objects/034a.jpg,stimuli/objects/034b.jpg,target,lure,dist1,dist2,0,86,86,43,,,,,333.7952959034592,334.8610684685409,334.8610684685409,334.8610684685409,334.8610684685409,334.8610684685409,334.8610684685409,334.8610684685409,334.8610684685409,334.8610684685409,334.8610684685409,j,2.274092949926853,dist1,None,,334.8610684685409,,,,,,,,,,,,,ST02_120922,2022-12-09_15h21.09.216,Hippopolis_4AFCT,2022.2.2,59.81501308041045,
HERNYÓ UTCA,stimuli/objects/013a.jpg,object,left,Hippopolis,1,stimuli/objects/101a.jpg,stimuli/scenes/116b.jpg,stimuli/objects/101b.jpg,stimuli/objects/101a.jpg,stimuli/scenes/116a.jpg,dist2,lure,target,dist1,0,87,87,26,,,,,337.15763887763023,338.1973559483886,338.1973559483886,338.1973559483886,338.1973559483886,338.1973559483886,338.1973559483886,338.1973559483886,338.1973559483886,338.1973559483886,338.1973559483886,f,1.9461637679487467,lure,None,,,,,,,,,,,,,,,ST02_120922,2022-12-09_15h21.09.216,Hippopolis_4AFCT,2022.2.2,59.81501308041045,
TOLMÁCS UTCA,stimuli/objects/051a.jpg,object,left,Camponello,0,stimuli/objects/051a.jpg,stimuli/scenes/096a.jpg,stimuli/scenes/096b.jpg,stimuli/objects/051b.jpg,stimuli/objects/051a.jpg,dist1,dist2,lure,target,0,88,88,84,,,,,340.1734330262989,341.24466281943023,341.24466281943023,341.24466281943023,341.24466281943023,341.24466281943023,341.24466281943023,341.24466281943023,341.24466281943023,341.24466281943023,341.24466281943023,k,1.9709799010306597,target,None,,,,,,,,,,,,,,,ST02_120922,2022-12-09_15h21.09.216,Hippopolis_4AFCT,2022.2.2,59.81501308041045,
KÍGYÓ UTCA,stimuli/objects/057a.jpg,object,left,Camponello,0,stimuli/objects/057a.jpg,stimuli/scenes/071b.jpg,stimuli/objects/057a.jpg,stimuli/scenes/071a.jpg,stimuli/objects/057b.jpg,dist2,target,dist1,lure,0,89,89,92,,,,,343.25166512839496,344.30944607406855,344.30944607406855,344.30944607406855,344.30944607406855,344.30944607406855,344.30944607406855,344.30944607406855,344.30944607406855,344.30944607406855,344.30944607406855,f,1.8497381024062634,target,space,,,346.1991868428886,346.1991868428886,3.1596758756786585,,,,,,,,,,ST02_120922,2022-12-09_15h21.09.216,Hippopolis_4AFCT,2022.2.2,59.81501308041045,
HEGEDŰ UTCA,stimuli/objects/119a.jpg,object,left,Camponello,0,stimuli/objects/119a.jpg,stimuli/objects/119a.jpg,stimuli/objects/119b.jpg,stimuli/scenes/109b.jpg,stimuli/scenes/109a.jpg,target,lure,dist2,dist1,0,90,90,159,,,,,349.3819055855274,350.4648640528321,350.4648640528321,350.4648640528321,350.4648640528321,350.4648640528321,350.4648640528321,350.4648640528321,350.4648640528321,350.4648640528321,350.4648640528321,f,2.6546465903520584,lure,None,,,,,,,,,,,,,,,ST02_120922,2022-12-09_15h21.09.216,Hippopolis_4AFCT,2022.2.2,59.81501308041045,
PÁRNA UTCA,stimuli/scenes/008a.jpg,scene,right,Hippopolis,0,stimuli/scenes/008a.jpg,stimuli/scenes/008b.jpg,stimuli/scenes/035a.jpg,stimuli/scenes/008a.jpg,stimuli/scenes/035b.jpg,lure,dist1,target,dist2,0,91,91,53,,,,,353.14076740294695,354.1976675763726,354.1976675763726,354.1976675763726,354.1976675763726,354.1976675763726,354.1976675763726,354.1976675763726,354.1976675763726,354.1976675763726,354.1976675763726,j,2.089139936491847,target,None,,,,,,,,,,,,,,,ST02_120922,2022-12-09_15h21.09.216,Hippopolis_4AFCT,2022.2.2,59.81501308041045,
PÁFRÁNY UTCA,stimuli/objects/026a.jpg,object,left,Hippopolis,2,stimuli/scenes/111a.jpg,stimuli/scenes/111a.jpg,stimuli/scenes/111b.jpg,stimuli/objects/096b.jpg,stimuli/objects/096a.jpg,target,lure,dist2,dist1,0,92,92,70,,,,,356.3088903054595,357.361947061494,357.361947061494,357.361947061494,357.361947061494,357.361947061494,357.361947061494,357.361947061494,357.361947061494,357.361947061494,357.361947061494,d,2.26973264105618,target,None,,,,,,,,,,,,,,,ST02_120922,2022-12-09_15h21.09.216,Hippopolis_4AFCT,2022.2.2,59.81501308041045,
LEMEZ UTCA,stimuli/scenes/041a.jpg,scene,right,Camponello,0,stimuli/scenes/041a.jpg,stimuli/objects/057a.jpg,stimuli/scenes/041b.jpg,stimuli/objects/057b.jpg,stimuli/scenes/041a.jpg,dist1,lure,dist2,target,0,93,93,81,,,,,359.6573922485113,360.6943590901792,360.6943590901792,360.6943590901792,360.6943590901792,360.6943590901792,360.6943590901792,360.6943590901792,360.6943590901792,360.6943590901792,360.6943590901792,f,2.1367024555802345,lure,None,,,,,,,,,,,,,,,ST02_120922,2022-12-09_15h21.09.216,Hippopolis_4AFCT,2022.2.2,59.81501308041045,
PETÁRDA UTCA,stimuli/objects/023a.jpg,object,left,Camponello,0,stimuli/objects/023a.jpg,stimuli/objects/023b.jpg,stimuli/objects/023a.jpg,stimuli/objects/054b.jpg,stimuli/objects/054a.jpg,lure,target,dist2,dist1,0,94,94,82,,,,,362.85590731725097,363.90918924473226,363.90918924473226,363.90918924473226,363.90918924473226,363.90918924473226,363.90918924473226,363.90918924473226,363.90918924473226,363.90918924473226,363.90918924473226,d,2.554277053102851,lure,None,,,,,,,,,,,,,,,ST02_120922,2022-12-09_15h21.09.216,Hippopolis_4AFCT,2022.2.2,59.81501308041045,
KAKAÓ UTCA,stimuli/objects/036a.jpg,object,left,Camponello,1,stimuli/objects/019a.jpg,stimuli/objects/092a.jpg,stimuli/objects/092b.jpg,stimuli/objects/019a.jpg,stimuli/objects/019b.jpg,dist1,dist2,target,lure,0,95,95,122,,,,,366.49064275063574,367.5330917034298,367.5330917034298,367.5330917034298,367.5330917034298,367.5330917034298,367.5330917034298,367.5330917034298,367.5330917034298,367.5330917034298,367.5330917034298,d,1.8100474644452333,dist1,None,,,,,,,,,,,,,,,ST02_120922,2022-12-09_15h21.09.216,Hippopolis_4AFCT,2022.2.2,59.81501308041045,
KERET UTCA,stimuli/objects/063a.jpg,object,left,Hippopolis,0,stimuli/objects/063a.jpg,stimuli/scenes/028a.jpg,stimuli/objects/063b.jpg,stimuli/scenes/028b.jpg,stimuli/objects/063a.jpg,dist1,lure,dist2,target,0,96,96,72,,,,,369.36026265099645,370.41449190303683,370.41449190303683,370.41449190303683,370.41449190303683,370.41449190303683,370.41449190303683,370.41449190303683,370.41449190303683,370.41449190303683,370.41449190303683,k,1.6004288475960493,target,None,,,,,,,,,,,,,,,ST02_120922,2022-12-09_15h21.09.216,Hippopolis_4AFCT,2022.2.2,59.81501308041045,
TIGRIS UTCA,stimuli/objects/087a.jpg,object,left,Hippopolis,2,stimuli/scenes/063a.jpg,stimuli/scenes/047b.jpg,stimuli/scenes/063b.jpg,stimuli/scenes/047a.jpg,stimuli/scenes/063a.jpg,dist2,lure,dist1,target,0,97,97,13,,,,,372.03315763548017,373.06136062927544,373.06136062927544,373.06136062927544,373.06136062927544,373.06136062927544,373.06136062927544,373.06136062927544,373.06136062927544,373.06136062927544,373.06136062927544,j,2.089703168720007,dist1,None,,,,,,,,,,,,,,,ST02_120922,2022-12-09_15h21.09.216,Hippopolis_4AFCT,2022.2.2,59.81501308041045,
PADLÓ UTCA,stimuli/scenes/078a.jpg,scene,right,Camponello,1,stimuli/scenes/032a.jpg,stimuli/objects/116a.jpg,stimuli/objects/116b.jpg,stimuli/scenes/032b.jpg,stimuli/scenes/032a.jpg,dist1,dist2,lure,target,0,98,98,137,,,,,375.1803370565176,376.22854211367667,376.22854211367667,376.22854211367667,376.22854211367667,376.22854211367667,376.22854211367667,376.22854211367667,376.22854211367667,376.22854211367667,376.22854211367667,d,3.1787125766277313,dist1,None,,,,,,,,,,,,,,,ST02_120922,2022-12-09_15h21.09.216,Hippopolis_4AFCT,2022.2.2,59.81501308041045,
BOLYGÓ UTCA,stimuli/objects/091a.jpg,object,left,Camponello,2,stimuli/scenes/021a.jpg,stimuli/objects/089b.jpg,stimuli/scenes/021b.jpg,stimuli/scenes/021a.jpg,stimuli/objects/089a.jpg,dist2,lure,target,dist1,0,99,99,134,,,,,379.43959260731936,380.4968277346343,380.4968277346343,380.4968277346343,380.4968277346343,380.4968277346343,380.4968277346343,380.4968277346343,380.4968277346343,380.4968277346343,380.4968277346343,j,3.773698905482888,target,None,383.9241402540356,,,,,,,,,,,,,,ST02_120922,2022-12-09_15h21.09.216,Hippopolis_4AFCT,2022.2.2,59.81501308041045,
SZŐLŐ UTCA,stimuli/scenes/004a.jpg,scene,right,Hippopolis,2,stimuli/objects/034a.jpg,stimuli/scenes/016a.jpg,stimuli/scenes/016b.jpg,stimuli/objects/034b.jpg,stimuli/objects/034a.jpg,dist1,dist2,lure,target,0,100,100,54,,,,,384.2911464571953,385.3281089439988,385.3281089439988,385.3281089439988,385.3281089439988,385.3281089439988,385.3281089439988,385.3281089439988,385.3281089439988,385.3281089439988,385.3281089439988,d,2.9909505527466536,dist1,None,,,,,,,,,,,,,,,ST02_120922,2022-12-09_15h21.09.216,Hippopolis_4AFCT,2022.2.2,59.81501308041045,
KÖNYVTÁR UTCA,stimuli/objects/002a.jpg,object,left,Hippopolis,2,stimuli/scenes/011a.jpg,stimuli/scenes/011a.jpg,stimuli/objects/046a.jpg,stimuli/scenes/011b.jpg,stimuli/objects/046b.jpg,target,dist1,lure,dist2,0,101,101,12,,,,,388.34054049290717,389.3735077921301,389.3735077921301,389.3735077921301,389.3735077921301,389.3735077921301,389.3735077921301,389.3735077921301,389.3735077921301,389.3735077921301,389.3735077921301,j,2.6733175478875637,lure,None,,,,,,,,,,,,,,,ST02_120922,2022-12-09_15h21.09.216,Hippopolis_4AFCT,2022.2.2,59.81501308041045,
MARTINI UTCA,stimuli/scenes/112a.jpg,scene,right,Camponello,2,stimuli/objects/007a.jpg,stimuli/scenes/014b.jpg,stimuli/objects/007b.jpg,stimuli/objects/007a.jpg,stimuli/scenes/014a.jpg,dist2,lure,target,dist1,0,102,102,141,,,,,392.07362672127783,393.1136554200202,393.1136554200202,393.1136554200202,393.1136554200202,393.1136554200202,393.1136554200202,393.1136554200202,393.1136554200202,393.1136554200202,393.1136554200202,j,1.7013395354151726,target,None,,,,,,,,,,,,,,,ST02_120922,2022-12-09_15h21.09.216,Hippopolis_4AFCT,2022.2.2,59.81501308041045,
ORVOS UTCA,stimuli/objects/062a.jpg,object,left,Camponello,0,stimuli/objects/062a.jpg,stimuli/objects/062a.jpg,stimuli/scenes/093a.jpg,stimuli/scenes/093b.jpg,stimuli/objects/062b.jpg,target,dist1,dist2,lure,0,103,103,107,,,,,394.8376431558281,395.8767226655036,395.8767226655036,395.8767226655036,395.8767226655036,395.8767226655036,395.8767226655036,395.8767226655036,395.8767226655036,395.8767226655036,395.8767226655036,d,1.8981956969946623,target,None,,,,,,,,,,,,,,,ST02_120922,2022-12-09_15h21.09.216,Hippopolis_4AFCT,2022.2.2,59.81501308041045,
SZŐNYEG UTCA,stimuli/scenes/101a.jpg,scene,right,Camponello,2,stimuli/objects/072a.jpg,stimuli/objects/072b.jpg,stimuli/objects/072a.jpg,stimuli/scenes/103a.jpg,stimuli/scenes/103b.jpg,lure,target,dist1,dist2,0,104,104,139,,,,,397.7938036955893,398.82870296761394,398.82870296761394,398.82870296761394,398.82870296761394,398.82870296761394,398.82870296761394,398.82870296761394,398.82870296761394,398.82870296761394,398.82870296761394,k,4.626009123399854,dist2,None,402.2850246075541,,,,,,,,,,,,,,ST02_120922,2022-12-09_15h21.09.216,Hippopolis_4AFCT,2022.2.2,59.81501308041045,
BÚJÓCSKA UTCA,stimuli/scenes/068a.jpg,scene,right,Hippopolis,0,stimuli/scenes/068a.jpg,stimuli/scenes/068b.jpg,stimuli/scenes/068a.jpg,stimuli/scenes/057b.jpg,stimuli/scenes/057a.jpg,lure,target,dist2,dist1,0,105,105,67,,,,,403.4735507722944,404.51372626796365,404.51372626796365,404.51372626796365,404.51372626796365,404.51372626796365,404.51372626796365,404.51372626796365,404.51372626796365,404.51372626796365,404.51372626796365,f,1.9006893448531628,target,None,,,,,,,,,,,,,,,ST02_120922,2022-12-09_15h21.09.216,Hippopolis_4AFCT,2022.2.2,59.81501308041045,
SAJTÓ UTCA,stimuli/objects/078a.jpg,object,left,Camponello,0,stimuli/objects/078a.jpg,stimuli/scenes/023a.jpg,stimuli/objects/078a.jpg,stimuli/scenes/023b.jpg,stimuli/objects/078b.jpg,dist1,target,dist2,lure,0,106,106,147,,,,,406.44382726959884,407.4925339818001,407.4925339818001,407.4925339818001,407.4925339818001,407.4925339818001,407.4925339818001,407.4925339818001,407.4925339818001,407.4925339818001,407.4925339818001,k,2.4579932056367397,lure,None,,,,,,,,,,,,,,,ST02_120922,2022-12-09_15h21.09.216,Hippopolis_4AFCT,2022.2.2,59.81501308041045,
LAKAT UTCA,stimuli/objects/020a.jpg,object,left,Hippopolis,1,stimuli/objects/001a.jpg,stimuli/objects/001a.jpg,stimuli/objects/102b.jpg,stimuli/objects/102a.jpg,stimuli/objects/001b.jpg,target,dist2,dist1,lure,0,107,107,64,,,,,409.9735072311014,411.0187611505389,411.0187611505389,411.0187611505389,411.0187611505389,411.0187611505389,411.0187611505389,411.0187611505389,411.0187611505389,411.0187611505389,411.0187611505389,k,2.515720346942544,lure,None,,,,,,,,,,,,,,,ST02_120922,2022-12-09_15h21.09.216,Hippopolis_4AFCT,2022.2.2,59.81501308041045,
LABDA UTCA,stimuli/objects/115a.jpg,object,left,Camponello,0,stimuli/objects/115a.jpg,stimuli/objects/115a.jpg,stimuli/objects/005b.jpg,stimuli/objects/115b.jpg,stimuli/objects/005a.jpg,target,dist2,lure,dist1,0,108,108,111,,,,,413.5565947666764,414.6099631525576,414.6099631525576,414.6099631525576,414.6099631525576,414.6099631525576,414.6099631525576,414.6099631525576,414.6099631525576,414.6099631525576,414.6099631525576,d,2.412504479289055,target,None,,,,,,,,,,,,,,,ST02_120922,2022-12-09_15h21.09.216,Hippopolis_4AFCT,2022.2.2,59.81501308041045,
KULLANCS UTCA,stimuli/scenes/065a.jpg,scene,right,Camponello,0,stimuli/scenes/065a.jpg,stimuli/scenes/065a.jpg,stimuli/objects/081a.jpg,stimuli/objects/081b.jpg,stimuli/scenes/065b.jpg,target,dist1,dist2,lure,0,109,109,97,,,,,417.04003025591373,418.0808501560241,418.0808501560241,418.0808501560241,418.0808501560241,418.0808501560241,418.0808501560241,418.0808501560241,418.0808501560241,418.0808501560241,418.0808501560241,d,1.741594959050417,target,None,,,,,,,,,,,,,,,ST02_120922,2022-12-09_15h21.09.216,Hippopolis_4AFCT,2022.2.2,59.81501308041045,
ASZTAL UTCA,stimuli/scenes/045a.jpg,scene,right,Camponello,0,stimuli/scenes/045a.jpg,stimuli/objects/119a.jpg,stimuli/objects/119b.jpg,stimuli/scenes/045a.jpg,stimuli/scenes/045b.jpg,dist1,dist2,target,lure,0,110,110,142,,,,,419.847451986745,420.8637067358941,420.8637067358941,420.8637067358941,420.8637067358941,420.8637067358941,420.8637067358941,420.8637067358941,420.8637067358941,420.8637067358941,420.8637067358941,j,1.614830931648612,target,None,,,,,,,,,,,,,,,ST02_120922,2022-12-09_15h21.09.216,Hippopolis_4AFCT,2022.2.2,59.81501308041045,
SALÁTA UTCA,stimuli/scenes/108a.jpg,scene,right,Hippopolis,2,stimuli/objects/093a.jpg,stimuli/objects/093b.jpg,stimuli/scenes/044b.jpg,stimuli/scenes/044a.jpg,stimuli/objects/093a.jpg,lure,dist2,dist1,target,0,111,111,8,,,,,422.5022345818579,423.54587966389954,423.54587966389954,423.54587966389954,423.54587966389954,423.54587966389954,423.54587966389954,423.54587966389954,423.54587966389954,423.54587966389954,423.54587966389954,k,1.8446024525910616,target,None,,,,,,,,,,,,,,,ST02_120922,2022-12-09_15h21.09.216,Hippopolis_4AFCT,2022.2.2,59.81501308041045,
VIHAR UTCA,stimuli/scenes/120a.jpg,scene,right,Camponello,0,stimuli/scenes/120a.jpg,stimuli/objects/103a.jpg,stimuli/objects/103b.jpg,stimuli/scenes/120b.jpg,stimuli/scenes/120a.jpg,dist1,dist2,lure,target,0,112,112,106,,,,,425.4306440204382,426.49358829297125,426.49358829297125,426.49358829297125,426.49358829297125,426.49358829297125,426.49358829297125,426.49358829297125,426.49358829297125,426.49358829297125,426.49358829297125,k,2.993002573028207,target,None,,,,,,,,,,,,,,,ST02_120922,2022-12-09_15h21.09.216,Hippopolis_4AFCT,2022.2.2,59.81501308041045,
MÁLNA UTCA,stimuli/scenes/115a.jpg,scene,right,Hippopolis,2,stimuli/objects/114a.jpg,stimuli/scenes/031b.jpg,stimuli/objects/114a.jpg,stimuli/scenes/031a.jpg,stimuli/objects/114b.jpg,dist2,target,dist1,lure,0,113,113,15,,,,,429.5066773071885,430.56183335743845,430.56183335743845,430.56183335743845,430.56183335743845,430.56183335743845,430.56183335743845,430.56183335743845,430.56183335743845,430.56183335743845,430.56183335743845,f,1.964151754975319,target,None,,,,,,,,,,,,,,,ST02_120922,2022-12-09_15h21.09.216,Hippopolis_4AFCT,2022.2.2,59.81501308041045,
RÁDIÓ UTCA,stimuli/scenes/094a.jpg,scene,right,Hippopolis,1,stimuli/scenes/098a.jpg,stimuli/scenes/087b.jpg,stimuli/scenes/098a.jpg,stimuli/scenes/087a.jpg,stimuli/scenes/098b.jpg,dist2,target,dist1,lure,0,114,114,58,,,,,432.55067133903503,433.59201466292143,433.59201466292143,433.59201466292143,433.59201466292143,433.59201466292143,433.59201466292143,433.59201466292143,433.59201466292143,433.59201466292143,433.59201466292143,f,3.51019967161119,target,None,437.04127428121865,,,,,,,,,,,,,,ST02_120922,2022-12-09_15h21.09.216,Hippopolis_4AFCT,2022.2.2,59.81501308041045,
ZEBRA UTCA,stimuli/objects/004a.jpg,object,left,Hippopolis,2,stimuli/scenes/081a.jpg,stimuli/scenes/081b.jpg,stimuli/scenes/003a.jpg,stimuli/scenes/003b.jpg,stimuli/scenes/081a.jpg,lure,dist1,dist2,target,0,115,115,44,,,,,437.1259485706687,438.15497790649533,438.15497790649533,438.15497790649533,438.15497790649533,438.15497790649533,438.15497790649533,438.15497790649533,438.15497790649533,438.15497790649533,438.15497790649533,j,1.7312717232853174,dist2,None,,,,,,,,,,,,,,,ST02_120922,2022-12-09_15h21.09.216,Hippopolis_4AFCT,2022.2.2,59.81501308041045,
BOHÓC UTCA,stimuli/objects/095a.jpg,object,left,Hippopolis,0,stimuli/objects/095a.jpg,stimuli/objects/095a.jpg,stimuli/objects/095b.jpg,stimuli/scenes/072a.jpg,stimuli/scenes/072b.jpg,target,lure,dist1,dist2,0,116,116,24,,,,,439.91587059386075,440.94486043415964,440.94486043415964,440.94486043415964,440.94486043415964,440.94486043415964,440.94486043415964,440.94486043415964,440.94486043415964,440.94486043415964,440.94486043415964,d,2.1252779457718134,target,None,,,,,,,,,,,,,,,ST02_120922,2022-12-09_15h21.09.216,Hippopolis_4AFCT,2022.2.2,59.81501308041045,
RIBIZLI UTCA,stimuli/scenes/029a.jpg,scene,right,Camponello,0,stimuli/scenes/029a.jpg,stimuli/scenes/029b.jpg,stimuli/scenes/029a.jpg,stimuli/scenes/086a.jpg,stimuli/scenes/086b.jpg,lure,target,dist1,dist2,0,117,117,112,,,,,443.08988675661385,444.127275634557,444.127275634557,444.127275634557,444.127275634557,444.127275634557,444.127275634557,444.127275634557,444.127275634557,444.127275634557,444.127275634557,f,1.4070674646645784,target,None,,,,,,,,,,,,,,,ST02_120922,2022-12-09_15h21.09.216,Hippopolis_4AFCT,2022.2.2,59.81501308041045,
SÜTEMÉNY UTCA,stimuli/objects/103a.jpg,object,left,Camponello,0,stimuli/objects/103a.jpg,stimuli/objects/103b.jpg,stimuli/objects/103a.jpg,stimuli/objects/049b.jpg,stimuli/objects/049a.jpg,lure,target,dist2,dist1,0,118,118,123,,,,,445.55887475423515,446.6247412431985,446.6247412431985,446.6247412431985,446.6247412431985,446.6247412431985,446.6247412431985,446.6247412431985,446.6247412431985,446.6247412431985,446.6247412431985,f,2.685604479163885,target,None,,,,,,,,,,,,,,,ST02_120922,2022-12-09_15h21.09.216,Hippopolis_4AFCT,2022.2.2,59.81501308041045,
FÓKA UTCA,stimuli/objects/083a.jpg,object,left,Camponello,0,stimuli/objects/083a.jpg,stimuli/objects/083b.jpg,stimuli/scenes/091b.jpg,stimuli/objects/083a.jpg,stimuli/scenes/091a.jpg,lure,dist2,target,dist1,0,119,119,132,,,,,449.34166602417827,450.3965558540076,450.3965558540076,450.3965558540076,450.3965558540076,450.3965558540076,450.3965558540076,450.3965558540076,450.3965558540076,450.3965558540076,450.3965558540076,j,2.0012750327587128,target,None,,,,,,,,,,,,,,,ST02_120922,2022-12-09_15h21.09.216,Hippopolis_4AFCT,2022.2.2,59.81501308041045,
HAJÓ UTCA,stimuli/objects/037a.jpg,object,left,Camponello,2,stimuli/scenes/014a.jpg,stimuli/objects/053a.jpg,stimuli/scenes/014b.jpg,stimuli/objects/053b.jpg,stimuli/scenes/014a.jpg,dist1,lure,dist2,target,0,120,120,101,,,,,452.4171332810074,453.45762258023024,453.45762258023024,453.45762258023024,453.45762258023024,453.45762258023024,453.45762258023024,453.45762258023024,453.45762258023024,453.45762258023024,453.45762258023024,d,2.524017686024308,dist1,None,,,,,,,,,,,,,,,ST02_120922,2022-12-09_15h21.09.216,Hippopolis_4AFCT,2022.2.2,59.81501308041045,
VÖDÖR UTCA,stimuli/objects/099a.jpg,object,left,Hippopolis,1,stimuli/objects/014a.jpg,stimuli/objects/056a.jpg,stimuli/objects/014a.jpg,stimuli/objects/056b.jpg,stimuli/objects/014b.jpg,dist1,target,dist2,lure,0,121,121,75,,,,,456.0194189287722,457.0765784829855,457.0765784829855,457.0765784829855,457.0765784829855,457.0765784829855,457.0765784829855,457.0765784829855,457.0765784829855,457.0765784829855,457.0765784829855,j,3.561516350135207,dist2,None,460.51384320668876,,,,,,,,,,,,,,ST02_120922,2022-12-09_15h21.09.216,Hippopolis_4AFCT,2022.2.2,59.81501308041045,
CSILLAG UTCA,stimuli/scenes/106a.jpg,scene,right,Camponello,0,stimuli/scenes/106a.jpg,stimuli/objects/062b.jpg,stimuli/objects/062a.jpg,stimuli/scenes/106a.jpg,stimuli/scenes/106b.jpg,dist2,dist1,target,lure,0,122,122,117,,,,,460.6716565564275,461.72478857822716,461.72478857822716,461.72478857822716,461.72478857822716,461.72478857822716,461.72478857822716,461.72478857822716,461.72478857822716,461.72478857822716,461.72478857822716,k,2.5295144133269787,lure,None,,,,,,,,,,,,,,,ST02_120922,2022-12-09_15h21.09.216,Hippopolis_4AFCT,2022.2.2,59.81501308041045,
GYŰRŰ UTCA,stimuli/scenes/110a.jpg,scene,right,Hippopolis,2,stimuli/objects/006a.jpg,stimuli/objects/006b.jpg,stimuli/objects/093a.jpg,stimuli/objects/093b.jpg,stimuli/objects/006a.jpg,lure,dist1,dist2,target,0,123,123,45,,,,,464.29033255390823,465.34010166302323,465.34010166302323,465.34010166302323,465.34010166302323,465.34010166302323,465.34010166302323,465.34010166302323,465.34010166302323,465.34010166302323,465.34010166302323,j,2.962229423224926,dist2,None,,,,,,,,,,,,,,,ST02_120922,2022-12-09_15h21.09.216,Hippopolis_4AFCT,2022.2.2,59.81501308041045,
SZALVÉTA UTCA,stimuli/scenes/086a.jpg,scene,right,Camponello,0,stimuli/scenes/086a.jpg,stimuli/objects/021b.jpg,stimuli/objects/021a.jpg,stimuli/scenes/086a.jpg,stimuli/scenes/086b.jpg,dist2,dist1,target,lure,0,124,124,145,,,,,468.33199030533433,469.3853773511946,469.3853773511946,469.3853773511946,469.3853773511946,469.3853773511946,469.3853773511946,469.3853773511946,469.3853773511946,469.3853773511946,469.3853773511946,j,3.172217519953847,target,None,,,,,,,,,,,,,,,ST02_120922,2022-12-09_15h21.09.216,Hippopolis_4AFCT,2022.2.2,59.81501308041045,
HEGESZTŐ UTCA,stimuli/objects/043a.jpg,object,left,Hippopolis,0,stimuli/objects/043a.jpg,stimuli/scenes/068b.jpg,stimuli/objects/043b.jpg,stimuli/objects/043a.jpg,stimuli/scenes/068a.jpg,dist2,lure,target,dist1,0,125,125,38,,,,,472.57769717276096,473.6277505401522,473.6277505401522,473.6277505401522,473.6277505401522,473.6277505401522,473.6277505401522,473.6277505401522,473.6277505401522,473.6277505401522,473.6277505401522,j,2.1937889214605093,target,None,,,,,,,,,,,,,,,ST02_120922,2022-12-09_15h21.09.216,Hippopolis_4AFCT,2022.2.2,59.81501308041045,
MOCSÁR UTCA,stimuli/objects/022a.jpg,object,left,Camponello,0,stimuli/objects/022a.jpg,stimuli/scenes/062b.jpg,stimuli/objects/022b.jpg,stimuli/objects/022a.jpg,stimuli/scenes/062a.jpg,dist2,lure,target,dist1,0,126,126,146,,,,,475.8386312238872,476.8653189931065,476.8653189931065,476.8653189931065,476.8653189931065,476.8653189931065,476.8653189931065,476.8653189931065,476.8653189931065,476.8653189931065,476.8653189931065,j,1.3242047894746065,target,None,,,,,,,,,,,,,,,ST02_120922,2022-12-09_15h21.09.216,Hippopolis_4AFCT,2022.2.2,59.81501308041045,
MAJOM UTCA,stimuli/objects/073a.jpg,object,left,Camponello,2,stimuli/scenes/020a.jpg,stimuli/scenes/021a.jpg,stimuli/scenes/020b.jpg,stimuli/scenes/021b.jpg,stimuli/scenes/020a.jpg,dist1,lure,dist2,target,0,127,127,153,,,,,478.2101491969079,479.23180830292404,479.23180830292404,479.23180830292404,479.23180830292404,479.23180830292404,479.23180830292404,479.23180830292404,479.23180830292404,479.23180830292404,479.23180830292404,f,3.2462460603564978,lure,None,,,,,,,,,,,,,,,ST02_120922,2022-12-09_15h21.09.216,Hippopolis_4AFCT,2022.2.2,59.81501308041045,
HÁRFA UTCA,stimuli/objects/070a.jpg,object,left,Camponello,0,stimuli/objects/070a.jpg,stimuli/objects/070b.jpg,stimuli/objects/070a.jpg,stimuli/objects/051b.jpg,stimuli/objects/051a.jpg,lure,target,dist2,dist1,0,128,128,138,,,,,482.5101095736027,483.54881649650633,483.54881649650633,483.54881649650633,483.54881649650633,483.54881649650633,483.54881649650633,483.54881649650633,483.54881649650633,483.54881649650633,483.54881649650633,f,2.000924216583371,target,None,,,,,,,,,,,,,,,ST02_120922,2022-12-09_15h21.09.216,Hippopolis_4AFCT,2022.2.2,59.81501308041045,
CSAVAR UTCA,stimuli/scenes/025a.jpg,scene,right,Hippopolis,1,stimuli/scenes/066a.jpg,stimuli/scenes/066a.jpg,stimuli/objects/014a.jpg,stimuli/objects/014b.jpg,stimuli/scenes/066b.jpg,target,dist1,dist2,lure,0,129,129,63,,,,,485.57273941859603,486.61482915841043,486.61482915841043,486.61482915841043,486.61482915841043,486.61482915841043,486.61482915841043,486.61482915841043,486.61482915841043,486.61482915841043,486.61482915841043,d,2.6150477025657892,target,None,,,,,,,,,,,,,,,ST02_120922,2022-12-09_15h21.09.216,Hippopolis_4AFCT,2022.2.2,59.81501308041045,
KÁRTYA UTCA,stimuli/objects/088a.jpg,object,left,Camponello,0,stimuli/objects/088a.jpg,stimuli/objects/088a.jpg,stimuli/scenes/114b.jpg,stimuli/scenes/114a.jpg,stimuli/objects/088b.jpg,target,dist2,dist1,lure,0,130,130,157,,,,,489.25064129568636,490.29833381436765,490.29833381436765,490.29833381436765,490.29833381436765,490.29833381436765,490.29833381436765,490.29833381436765,490.29833381436765,490.29833381436765,490.29833381436765,d,1.955372978001833,target,None,,,,,,,,,,,,,,,ST02_120922,2022-12-09_15h21.09.216,Hippopolis_4AFCT,2022.2.2,59.81501308041045,
HARCSA UTCA,stimuli/objects/028a.jpg,object,left,Hippopolis,0,stimuli/objects/028a.jpg,stimuli/scenes/008a.jpg,stimuli/objects/028a.jpg,stimuli/objects/028b.jpg,stimuli/scenes/008b.jpg,dist1,target,lure,dist2,0,131,131,36,,,,,492.2891087438911,493.32459830492735,493.32459830492735,493.32459830492735,493.32459830492735,493.32459830492735,493.32459830492735,493.32459830492735,493.32459830492735,493.32459830492735,493.32459830492735,d,1.5690706949681044,dist1,None,,,,,,,,,,,,,,,ST02_120922,2022-12-09_15h21.09.216,Hippopolis_4AFCT,2022.2.2,59.81501308041045,
KATONA UTCA,stimuli/scenes/017a.jpg,scene,right,Camponello,1,stimuli/scenes/100a.jpg,stimuli/scenes/076a.jpg,stimuli/scenes/100a.jpg,stimuli/scenes/100b.jpg,stimuli/scenes/076b.jpg,dist1,target,lure,dist2,0,132,132,128,,,,,494.9223917759955,495.9526396356523,495.9526396356523,495.9526396356523,495.9526396356523,495.9526396356523,495.9526396356523,495.9526396356523,495.9526396356523,495.9526396356523,495.9526396356523,j,3.1167174968868494,lure,None,,,,,,,,,,,,,,,ST02_120922,2022-12-09_15h21.09.216,Hippopolis_4AFCT,2022.2.2,59.81501308041045,
SZAPPAN UTCA,stimuli/objects/118a.jpg,object,left,Hippopolis,1,stimuli/objects/029a.jpg,stimuli/objects/101a.jpg,stimuli/objects/101b.jpg,stimuli/objects/029a.jpg,stimuli/objects/029b.jpg,dist1,dist2,target,lure,0,133,133,6,,,,,499.08883524499834,500.1389719620347,500.1389719620347,500.1389719620347,500.1389719620347,500.1389719620347,500.1389719620347,500.1389719620347,500.1389719620347,500.1389719620347,500.1389719620347,j,2.498782007023692,target,None,,500.1389719620347,,,,,,,,,,,,,ST02_120922,2022-12-09_15h21.09.216,Hippopolis_4AFCT,2022.2.2,59.81501308041045,
TÉRKÉP UTCA,stimuli/scenes/009a.jpg,scene,right,Hippopolis,1,stimuli/scenes/064a.jpg,stimuli/objects/027b.jpg,stimuli/objects/027a.jpg,stimuli/scenes/064a.jpg,stimuli/scenes/064b.jpg,dist2,dist1,target,lure,0,134,134,76,,,,,502.67239675298333,503.71213839389384,503.71213839389384,503.71213839389384,503.71213839389384,503.71213839389384,503.71213839389384,503.71213839389384,503.71213839389384,503.71213839389384,503.71213839389384,f,1.8369846623390913,dist1,space,,,505.57217587530613,505.57217587530613,5.19305588118732,,,,,,,,,,ST02_120922,2022-12-09_15h21.09.216,Hippopolis_4AFCT,2022.2.2,59.81501308041045,
RÓZSA UTCA,stimuli/scenes/104a.jpg,scene,right,Hippopolis,1,stimuli/scenes/007a.jpg,stimuli/scenes/007b.jpg,stimuli/objects/117b.jpg,stimuli/scenes/007a.jpg,stimuli/objects/117a.jpg,lure,dist2,target,dist1,0,135,135,68,,,,,510.7979624737054,511.86073818057775,511.86073818057775,511.86073818057775,511.86073818057775,511.86073818057775,511.86073818057775,511.86073818057775,511.86073818057775,511.86073818057775,511.86073818057775,d,2.216689256951213,lure,None,,,,,,,,,,,,,,,ST02_120922,2022-12-09_15h21.09.216,Hippopolis_4AFCT,2022.2.2,59.81501308041045,
TÁSKA UTCA,stimuli/objects/008a.jpg,object,left,Hippopolis,0,stimuli/objects/008a.jpg,stimuli/objects/008a.jpg,stimuli/scenes/090b.jpg,stimuli/objects/008b.jpg,stimuli/scenes/090a.jpg,target,dist2,lure,dist1,0,136,136,0,,,,,514.1020853612572,515.1383437290788,515.1383437290788,515.1383437290788,515.1383437290788,515.1383437290788,515.1383437290788,515.1383437290788,515.1383437290788,515.1383437290788,515.1383437290788,j,1.9946916494518518,lure,None,,,,,,,,,,,,,,,ST02_120922,2022-12-09_15h21.09.216,Hippopolis_4AFCT,2022.2.2,59.81501308041045,
KIRAKÓ UTCA,stimuli/objects/010a.jpg,object,left,Camponello,1,stimuli/objects/092a.jpg,stimuli/objects/045b.jpg,stimuli/objects/092a.jpg,stimuli/objects/045a.jpg,stimuli/objects/092b.jpg,dist2,target,dist1,lure,0,137,137,158,,,,,517.1555007081479,518.2038712222129,518.2038712222129,518.2038712222129,518.2038712222129,518.2038712222129,518.2038712222129,518.2038712222129,518.2038712222129,518.2038712222129,518.2038712222129,f,2.721042724326253,target,None,,,,,,,,,,,,,,,ST02_120922,2022-12-09_15h21.09.216,Hippopolis_4AFCT,2022.2.2,59.81501308041045,
MOGYORÓ UTCA,stimuli/objects/052a.jpg,object,left,Hippopolis,1,stimuli/objects/090a.jpg,stimuli/scenes/007b.jpg,stimuli/objects/090b.jpg,stimuli/scenes/007a.jpg,stimuli/objects/090a.jpg,dist2,lure,dist1,target,0,138,138,31,,,,,520.963203901425,521.9832208938897,521.9832208938897,521.9832208938897,521.9832208938897,521.9832208938897,521.9832208938897,521.9832208938897,521.9832208938897,521.9832208938897,521.9832208938897,k,1.934268705546856,target,None,,,,,,,,,,,,,,,ST02_120922,2022-12-09_15h21.09.216,Hippopolis_4AFCT,2022.2.2,59.81501308041045,
MOSODA UTCA,stimuli/scenes/096a.jpg,scene,right,Camponello,0,stimuli/scenes/096a.jpg,stimuli/scenes/096b.jpg,stimuli/scenes/106a.jpg,stimuli/scenes/096a.jpg,stimuli/scenes/106b.jpg,lure,dist1,target,dist2,0,139,139,94,,,,,523.9467793423682,524.9772103857249,524.9772103857249,524.9772103857249,524.9772103857249,524.9772103857249,524.9772103857249,524.9772103857249,524.9772103857249,524.9772103857249,524.9772103857249,j,1.356017630547285,target,None,,,,,,,,,,,,,,,ST02_120922,2022-12-09_15h21.09.216,Hippopolis_4AFCT,2022.2.2,59.81501308041045,
SÜTŐ UTCA,stimuli/objects/055a.jpg,object,left,Camponello,0,stimuli/objects/055a.jpg,stimuli/objects/088b.jpg,stimuli/objects/055a.jpg,stimuli/objects/088a.jpg,stimuli/objects/055b.jpg,dist2,target,dist1,lure,0,140,140,100,,,,,526.3553276024759,527.4235238395631,527.4235238395631,527.4235238395631,527.4235238395631,527.4235238395631,527.4235238395631,527.4235238395631,527.4235238395631,527.4235238395631,527.4235238395631,f,1.7740805093199015,target,None,,,,,,,,,,,,,,,ST02_120922,2022-12-09_15h21.09.216,Hippopolis_4AFCT,2022.2.2,59.81501308041045,
PÁLMAFA UTCA,stimuli/objects/080a.jpg,object,left,Hippopolis,1,stimuli/objects/058a.jpg,stimuli/objects/058b.jpg,stimuli/objects/058a.jpg,stimuli/scenes/067a.jpg,stimuli/scenes/067b.jpg,lure,target,dist1,dist2,0,141,141,61,,,,,529.221882224083,530.26300659962,530.26300659962,530.26300659962,530.26300659962,530.26300659962,530.26300659962,530.26300659962,530.26300659962,530.26300659962,530.26300659962,f,2.72642033547163,target,None,,,,,,,,,,,,,,,ST02_120922,2022-12-09_15h21.09.216,Hippopolis_4AFCT,2022.2.2,59.81501308041045,
BONBON UTCA,stimuli/objects/003a.jpg,object,left,Camponello,0,stimuli/objects/003a.jpg,stimuli/objects/003a.jpg,stimuli/objects/003b.jpg,stimuli/objects/108a.jpg,stimuli/objects/108b.jpg,target,lure,dist1,dist2,0,142,142,85,,,,,533.0187017470598,534.0664931666106,534.0664931666106,534.0664931666106,534.0664931666106,534.0664931666106,534.0664931666106,534.0664931666106,534.0664931666106,534.0664931666106,534.0664931666106,d,3.034340299665928,target,None,,,,,,,,,,,,,,,ST02_120922,2022-12-09_15h21.09.216,Hippopolis_4AFCT,2022.2.2,59.81501308041045,
KORONG UTCA,stimuli/scenes/057a.jpg,scene,right,Hippopolis,0,stimuli/scenes/057a.jpg,stimuli/scenes/057b.jpg,stimuli/scenes/057a.jpg,stimuli/objects/063b.jpg,stimuli/objects/063a.jpg,lure,target,dist2,dist1,0,143,143,59,,,,,537.1229635309428,538.1447905804962,538.1447905804962,538.1447905804962,538.1447905804962,538.1447905804962,538.1447905804962,538.1447905804962,538.1447905804962,538.1447905804962,538.1447905804962,f,2.81199281103909,target,None,,,,,,,,,,,,,,,ST02_120922,2022-12-09_15h21.09.216,Hippopolis_4AFCT,2022.2.2,59.81501308041045,
LIGET UTCA,stimuli/scenes/093a.jpg,scene,right,Camponello,0,stimuli/scenes/093a.jpg,stimuli/scenes/093a.jpg,stimuli/scenes/093b.jpg,stimuli/scenes/046b.jpg,stimuli/scenes/046a.jpg,target,lure,dist2,dist1,0,144,144,103,,,,,540.9886535536498,542.0449006147683,542.0449006147683,542.0449006147683,542.0449006147683,542.0449006147683,542.0449006147683,542.0449006147683,542.0449006147683,542.0449006147683,542.0449006147683,d,2.3837873935699463,target,None,,,,,,,,,,,,,,,ST02_120922,2022-12-09_15h21.09.216,Hippopolis_4AFCT,2022.2.2,59.81501308041045,
BAGOLY UTCA,stimuli/objects/042a.jpg,object,left,Hippopolis,1,stimuli/objects/027a.jpg,stimuli/objects/027a.jpg,stimuli/scenes/064b.jpg,stimuli/objects/027b.jpg,stimuli/scenes/064a.jpg,target,dist2,lure,dist1,0,145,145,5,,,,,544.4551535006613,545.498019201681,545.498019201681,545.498019201681,545.498019201681,545.498019201681,545.498019201681,545.498019201681,545.498019201681,545.498019201681,545.498019201681,k,1.57131989300251,dist1,None,,,,,,,,,,,,,,,ST02_120922,2022-12-09_15h21.09.216,Hippopolis_4AFCT,2022.2.2,59.81501308041045,
KARTON UTCA,stimuli/objects/104a.jpg,object,left,Hippopolis,1,stimuli/objects/117a.jpg,stimuli/objects/029b.jpg,stimuli/objects/029a.jpg,stimuli/objects/117b.jpg,stimuli/objects/117a.jpg,dist2,dist1,lure,target,0,146,146,79,,,,,547.0930070839822,548.1354694087058,548.1354694087058,548.1354694087058,548.1354694087058,548.1354694087058,548.1354694087058,548.1354694087058,548.1354694087058,548.1354694087058,548.1354694087058,j,2.7892389614135027,lure,None,,,,,,,,,,,,,,,ST02_120922,2022-12-09_15h21.09.216,Hippopolis_4AFCT,2022.2.2,59.81501308041045,
HARMONIKA UTCA,stimuli/scenes/033a.jpg,scene,right,Camponello,0,stimuli/scenes/033a.jpg,stimuli/scenes/033b.jpg,stimuli/objects/055b.jpg,stimuli/objects/055a.jpg,stimuli/scenes/033a.jpg,lure,dist2,dist1,target,0,147,147,135,,,,,550.9550011083484,551.9994656909257,551.9994656909257,551.9994656909257,551.9994656909257,551.9994656909257,551.9994656909257,551.9994656909257,551.9994656909257,551.9994656909257,551.9994656909257,k,2.6214127596467733,target,None,,,,,,,,,,,,,,,ST02_120922,2022-12-09_15h21.09.216,Hippopolis_4AFCT,2022.2.2,59.81501308041045,
MUNKA UTCA,stimuli/scenes/118a.jpg,scene,right,Camponello,1,stimuli/scenes/117a.jpg,stimuli/scenes/032b.jpg,stimuli/scenes/117a.jpg,stimuli/scenes/032a.jpg,stimuli/scenes/117b.jpg,dist2,target,dist1,lure,0,148,148,133,,,,,554.6383415535092,555.674523415044,555.674523415044,555.674523415044,555.674523415044,555.674523415044,555.674523415044,555.674523415044,555.674523415044,555.674523415044,555.674523415044,f,3.1381430365145206,target,None,,,,,,,,,,,,,,,ST02_120922,2022-12-09_15h21.09.216,Hippopolis_4AFCT,2022.2.2,59.81501308041045,
MÁRVÁNY UTCA,stimuli/objects/024a.jpg,object,left,Hippopolis,0,stimuli/objects/024a.jpg,stimuli/scenes/060b.jpg,stimuli/objects/024b.jpg,stimuli/objects/024a.jpg,stimuli/scenes/060a.jpg,dist2,lure,target,dist1,0,149,149,30,,,,,558.8402409926057,559.8597015962005,559.8597015962005,559.8597015962005,559.8597015962005,559.8597015962005,559.8597015962005,559.8597015962005,559.8597015962005,559.8597015962005,559.8597015962005,j,1.3532291483134031,target,None,,,,,,,,,,,,,,,ST02_120922,2022-12-09_15h21.09.216,Hippopolis_4AFCT,2022.2.2,59.81501308041045,
ÁLLOMÁS UTCA,stimuli/scenes/006a.jpg,scene,right,Hippopolis,2,stimuli/objects/094a.jpg,stimuli/objects/094b.jpg,stimuli/objects/079a.jpg,stimuli/objects/079b.jpg,stimuli/objects/094a.jpg,lure,dist1,dist2,target,0,150,150,3,,,,,561.2392273619771,562.2764436304569,562.2764436304569,562.2764436304569,562.2764436304569,562.2764436304569,562.2764436304569,562.2764436304569,562.2764436304569,562.2764436304569,562.2764436304569,f,2.0078814309090376,dist1,None,,,,,,,,,,,,,,,ST02_120922,2022-12-09_15h21.09.216,Hippopolis_4AFCT,2022.2.2,59.81501308041045,
TELEP UTCA,stimuli/scenes/043a.jpg,scene,right,Hippopolis,1,stimuli/scenes/088a.jpg,stimuli/scenes/102a.jpg,stimuli/scenes/102b.jpg,stimuli/scenes/088b.jpg,stimuli/scenes/088a.jpg,dist1,dist2,lure,target,0,151,151,29,,,,,564.3064986653626,565.353120079264,565.353120079264,565.353120079264,565.353120079264,565.353120079264,565.353120079264,565.353120079264,565.353120079264,565.353120079264,565.353120079264,k,2.723384601995349,target,None,,,,,,,,,,,,,,,ST02_120922,2022-12-09_15h21.09.216,Hippopolis_4AFCT,2022.2.2,59.81501308041045,
FEJSZE UTCA,stimuli/objects/031a.jpg,object,left,Camponello,0,stimuli/objects/031a.jpg,stimuli/objects/082a.jpg,stimuli/objects/031a.jpg,stimuli/objects/031b.jpg,stimuli/objects/082b.jpg,dist1,target,lure,dist2,0,152,152,140,,,,,568.1050464529544,569.1591320186853,569.1591320186853,569.1591320186853,569.1591320186853,569.1591320186853,569.1591320186853,569.1591320186853,569.1591320186853,569.1591320186853,569.1591320186853,f,2.8531834296882153,target,None,,,,,,,,,,,,,,,ST02_120922,2022-12-09_15h21.09.216,Hippopolis_4AFCT,2022.2.2,59.81501308041045,
ZSEMLE UTCA,stimuli/objects/018a.jpg,object,left,Camponello,1,stimuli/objects/116a.jpg,stimuli/objects/069a.jpg,stimuli/objects/116a.jpg,stimuli/objects/116b.jpg,stimuli/objects/069b.jpg,dist1,target,lure,dist2,0,153,153,86,,,,,572.0524549596012,573.0799951981753,573.0799951981753,573.0799951981753,573.0799951981753,573.0799951981753,573.0799951981753,573.0799951981753,573.0799951981753,573.0799951981753,573.0799951981753,d,1.8762588612735271,dist1,None,,,,,,,,,,,,,,,ST02_120922,2022-12-09_15h21.09.216,Hippopolis_4AFCT,2022.2.2,59.81501308041045,
FÉSŰ UTCA,stimuli/scenes/039a.jpg,scene,right,Camponello,2,stimuli/objects/065a.jpg,stimuli/objects/077b.jpg,stimuli/objects/065a.jpg,stimuli/objects/077a.jpg,stimuli/objects/065b.jpg,dist2,target,dist1,lure,0,154,154,125,,,,,574.981416746974,576.0034406650811,576.0034406650811,576.0034406650811,576.0034406650811,576.0034406650811,576.0034406650811,576.0034406650811,576.0034406650811,576.0034406650811,576.0034406650811,f,2.409186350181699,target,None,,,,,,,,,,,,,,,ST02_120922,2022-12-09_15h21.09.216,Hippopolis_4AFCT,2022.2.2,59.81501308041045,
ÁRNYÉK UTCA,stimuli/scenes/046a.jpg,scene,right,Camponello,0,stimuli/scenes/046a.jpg,stimuli/objects/098b.jpg,stimuli/scenes/046b.jpg,stimuli/scenes/046a.jpg,stimuli/objects/098a.jpg,dist2,lure,target,dist1,0,155,155,152,,,,,578.4383199680597,579.4908561017364,579.4908561017364,579.4908561017364,579.4908561017364,579.4908561017364,579.4908561017364,579.4908561017364,579.4908561017364,579.4908561017364,579.4908561017364,k,2.7141725923866034,dist1,None,,,,,,,,,,,,,,,ST02_120922,2022-12-09_15h21.09.216,Hippopolis_4AFCT,2022.2.2,59.81501308041045,
OROSZLÁN UTCA,stimuli/scenes/113a.jpg,scene,right,Camponello,0,stimuli/scenes/113a.jpg,stimuli/scenes/105a.jpg,stimuli/scenes/105b.jpg,stimuli/scenes/113a.jpg,stimuli/scenes/113b.jpg,dist1,dist2,target,lure,0,156,156,90,,,,,582.2215251885355,583.2614154908806,583.2614154908806,583.2614154908806,583.2614154908806,583.2614154908806,583.2614154908806,583.2614154908806,583.2614154908806,583.2614154908806,583.2614154908806,j,2.0627270955592394,target,None,,,,,,,,,,,,,,,ST02_120922,2022-12-09_15h21.09.216,Hippopolis_4AFCT,2022.2.2,59.81501308041045,
LÉTRA UTCA,stimuli/objects/021a.jpg,object,left,Camponello,0,stimuli/objects/021a.jpg,stimuli/objects/078a.jpg,stimuli/objects/021b.jpg,stimuli/objects/078b.jpg,stimuli/objects/021a.jpg,dist1,lure,dist2,target,0,157,157,148,,,,,585.3572919182479,586.3815572597086,586.3815572597086,586.3815572597086,586.3815572597086,586.3815572597086,586.3815572597086,586.3815572597086,586.3815572597086,586.3815572597086,586.3815572597086,f,4.143209021538496,lure,None,589.8554719090462,,,,,,,,,,,,,,ST02_120922,2022-12-09_15h21.09.216,Hippopolis_4AFCT,2022.2.2,59.81501308041045,
MOTOR UTCA,stimuli/scenes/028a.jpg,scene,right,Hippopolis,0,stimuli/scenes/028a.jpg,stimuli/scenes/028a.jpg,stimuli/scenes/028b.jpg,stimuli/scenes/080a.jpg,stimuli/scenes/080b.jpg,target,lure,dist1,dist2,0,158,158,1,,,,,590.5657915361226,591.5976600497961,591.5976600497961,591.5976600497961,591.5976600497961,591.5976600497961,591.5976600497961,591.5976600497961,591.5976600497961,591.5976600497961,591.5976600497961,d,2.335315803065896,target,None,,,,,,,,,,,,,,,ST02_120922,2022-12-09_15h21.09.216,Hippopolis_4AFCT,2022.2.2,59.81501308041045,
SIRÁLY UTCA,stimuli/objects/066a.jpg,object,left,Hippopolis,1,stimuli/objects/102a.jpg,stimuli/objects/102b.jpg,stimuli/scenes/098b.jpg,stimuli/objects/102a.jpg,stimuli/scenes/098a.jpg,lure,dist2,target,dist1,0,159,159,37,,,,,593.9561204202473,594.9991814307868,594.9991814307868,594.9991814307868,594.9991814307868,594.9991814307868,594.9991814307868,594.9991814307868,594.9991814307868,594.9991814307868,594.9991814307868,j,3.3331185430288315,target,None,,,,,,,,,,,,,,,ST02_120922,2022-12-09_15h21.09.216,Hippopolis_4AFCT,2022.2.2,59.81501308041045,
,,,,,,,,,,,,,,,,,,,,,,,,,,,,,,,,,,,,,,,,,,,93,26,30,11,598.3547055888921,598.3547055888921,space,1.8499691803008318,,ST02_120922,2022-12-09_15h21.09.216,Hippopolis_4AFCT,2022.2.2,59.81501308041045,
,,,,,,,,,,,,,,,,,,,,,,,,,,,,,,,,,,,,,,,,,,,,,,,,,,,600.232167204842,,,,,,
