CityName,StimuliFile,CityImage,StreetSign,LearningVideoFile,UpdatingVideoFile,Cue,Image,Category,CorrectResponse,Novelty,UpdateImage,TestImage1,TestImage2,TestImage3,TestImage4,TestImage1Type,TestImage2Type,TestImage3Type,TestImage4Type,CityBlock.thisRepN,CityBlock.thisTrialN,CityBlock.thisN,CityBlock.thisIndex,UpdatingTrials.thisRepN,UpdatingTrials.thisTrialN,UpdatingTrials.thisN,UpdatingTrials.thisIndex,learning_instructions_text.started,intro_key.started,intro_key.keys,intro_key.rt,cityname_text_intro.started,city_image_update.started,load_video.started,movie.started,end_vid_key.started,end_vid_key.keys,cityname_text.started,city_image.started,fx_cross.started,plate.started,city_text.started,street_text.started,fx_cross_prediction.started,key_resp_update.started,button_image_updating.started,key_resp_update.keys,key_resp_update.corr,plate_updating.started,city_text_updating.started,street_text_updating.started,updating_image.started,short_break_key.keys,key_resp_update.rt,fx_cross.stopped,short_break_text.started,short_break_key.started,short_break_key.rt,break_text.started,break_key_resp.started,break_key_resp.keys,break_key_resp.rt,end_text.started,end_text.stopped,participant,date,expName,psychopyVersion,frameRate,
,,,,,,,,,,,,,,,,,,,,,,,,,,,,40.07004890218377,40.07004890218377,space,22.2259272467345,,,,,,,,,,,,,,,,,,,,,,,,,,,,,,,,,,ST02_120922,2022-12-09_14h59.08.284,Hippopolis_Updating,2022.2.2,60.00220172735682,
Camponello,stimuli/subj_files/ST02_120922_cityB.csv,./stimuli/arnedillo.png,./stimuli/street_plate2.png,./stimuli/videos/camponello_part,./stimuli/videos/campo-satellite.mp4,HAJÓ UTCA,stimuli/objects/037a.jpg,object,left,2,stimuli/scenes/014a.jpg,stimuli/objects/053a.jpg,stimuli/scenes/014b.jpg,stimuli/objects/053b.jpg,stimuli/scenes/014a.jpg,dist1,lure,dist2,target,0,0,0,0,0,0,0,21,,,,,62.410767290741205,62.410767290741205,0.07968605682253838,65.56305001489818,65.56305001489818,None,72.88779884576797,72.88779884576797,75.373514322564,76.36400778964162,76.36400778964162,76.36400778964162,76.36400778964162,76.36400778964162,76.36400778964162,None,0,80.38006162829697,80.38006162829697,80.38006162829697,80.38006162829697,None,,,,,,,,,,,,ST02_120922,2022-12-09_14h59.08.284,Hippopolis_Updating,2022.2.2,60.00220172735682,
Camponello,stimuli/subj_files/ST02_120922_cityB.csv,./stimuli/arnedillo.png,./stimuli/street_plate2.png,./stimuli/videos/camponello_part,./stimuli/videos/campo-satellite.mp4,AJÁNDÉK UTCA,stimuli/scenes/070a.jpg,scene,right,2,stimuli/objects/089a.jpg,stimuli/scenes/020b.jpg,stimuli/scenes/020a.jpg,stimuli/objects/089a.jpg,stimuli/objects/089b.jpg,dist2,dist1,target,lure,0,0,0,0,0,1,1,74,,,,,,,,,,,,,82.33756913617253,83.36393656954169,83.36393656954169,83.36393656954169,83.36393656954169,83.36393656954169,83.36393656954169,right,0,87.39553108625114,87.39553108625114,87.39553108625114,87.39553108625114,None,1.635272927582264,,,,,,,,,,,ST02_120922,2022-12-09_14h59.08.284,Hippopolis_Updating,2022.2.2,60.00220172735682,
Camponello,stimuli/subj_files/ST02_120922_cityB.csv,./stimuli/arnedillo.png,./stimuli/street_plate2.png,./stimuli/videos/camponello_part,./stimuli/videos/campo-satellite.mp4,SZILVA UTCA,stimuli/objects/030a.jpg,object,left,0,stimuli/objects/030a.jpg,stimuli/objects/030a.jpg,stimuli/objects/030b.jpg,stimuli/objects/003b.jpg,stimuli/objects/003a.jpg,target,lure,dist2,dist1,0,0,0,0,0,2,2,64,,,,,,,,,,,,,89.3538524992764,90.38134359754622,90.38134359754622,90.38134359754622,90.38134359754622,90.38134359754622,90.38134359754622,down,0,94.38110878691077,94.38110878691077,94.38110878691077,94.38110878691077,None,1.8659482318907976,,,,,,,,,,,ST02_120922,2022-12-09_14h59.08.284,Hippopolis_Updating,2022.2.2,60.00220172735682,
Camponello,stimuli/subj_files/ST02_120922_cityB.csv,./stimuli/arnedillo.png,./stimuli/street_plate2.png,./stimuli/videos/camponello_part,./stimuli/videos/campo-satellite.mp4,PAPUCS UTCA,stimuli/scenes/059a.jpg,scene,right,0,stimuli/scenes/059a.jpg,stimuli/objects/040b.jpg,stimuli/objects/040a.jpg,stimuli/scenes/059a.jpg,stimuli/scenes/059b.jpg,dist2,dist1,target,lure,0,0,0,0,0,3,3,38,,,,,,,,,,,,,96.3701364826411,97.39499553479254,97.39499553479254,97.39499553479254,97.39499553479254,97.39499553479254,97.39499553479254,down,0,101.40367230214179,101.40367230214179,101.40367230214179,101.40367230214179,None,1.203584237024188,,,,,,,,,,,ST02_120922,2022-12-09_14h59.08.284,Hippopolis_Updating,2022.2.2,60.00220172735682,
Camponello,stimuli/subj_files/ST02_120922_cityB.csv,./stimuli/arnedillo.png,./stimuli/street_plate2.png,./stimuli/videos/camponello_part,./stimuli/videos/campo-satellite.mp4,PAPRIKA UTCA,stimuli/scenes/099a.jpg,scene,right,1,stimuli/scenes/076a.jpg,stimuli/objects/048a.jpg,stimuli/objects/048b.jpg,stimuli/scenes/076b.jpg,stimuli/scenes/076a.jpg,dist1,dist2,lure,target,0,0,0,0,0,4,4,41,,,,,,,,,,,,,103.3730465695262,104.39426622353494,104.39426622353494,104.39426622353494,104.39426622353494,104.39426622353494,104.39426622353494,down,0,108.42933654785156,108.42933654785156,108.42933654785156,108.42933654785156,None,1.611927853897214,104.39426622353494,,,,,,,,,,ST02_120922,2022-12-09_14h59.08.284,Hippopolis_Updating,2022.2.2,60.00220172735682,
Camponello,stimuli/subj_files/ST02_120922_cityB.csv,./stimuli/arnedillo.png,./stimuli/street_plate2.png,./stimuli/videos/camponello_part,./stimuli/videos/campo-satellite.mp4,BÖGRE UTCA,stimuli/scenes/040a.jpg,scene,right,0,stimuli/scenes/040a.jpg,stimuli/scenes/040a.jpg,stimuli/objects/050b.jpg,stimuli/scenes/040b.jpg,stimuli/objects/050a.jpg,target,dist2,lure,dist1,0,0,0,0,0,5,5,49,,,,,,,,,,,,,110.39676236175,111.41602205485106,111.41602205485106,111.41602205485106,111.41602205485106,111.41602205485106,111.41602205485106,down,0,115.43091335147619,115.43091335147619,115.43091335147619,115.43091335147619,None,3.1827564500272274,,,,,,,,,,,ST02_120922,2022-12-09_14h59.08.284,Hippopolis_Updating,2022.2.2,60.00220172735682,
Camponello,stimuli/subj_files/ST02_120922_cityB.csv,./stimuli/arnedillo.png,./stimuli/street_plate2.png,./stimuli/videos/camponello_part,./stimuli/videos/campo-satellite.mp4,BETON UTCA,stimuli/scenes/091a.jpg,scene,right,0,stimuli/scenes/091a.jpg,stimuli/scenes/091b.jpg,stimuli/scenes/119a.jpg,stimuli/scenes/091a.jpg,stimuli/scenes/119b.jpg,lure,dist1,target,dist2,0,0,0,0,0,6,6,16,,,,,,,,,,,,,117.39823466539383,118.42593475989997,118.42593475989997,118.42593475989997,118.42593475989997,118.42593475989997,118.42593475989997,left,0,122.42306914739311,122.42306914739311,122.42306914739311,122.42306914739311,None,1.8691285848617554,,,,,,,,,,,ST02_120922,2022-12-09_14h59.08.284,Hippopolis_Updating,2022.2.2,60.00220172735682,
Camponello,stimuli/subj_files/ST02_120922_cityB.csv,./stimuli/arnedillo.png,./stimuli/street_plate2.png,./stimuli/videos/camponello_part,./stimuli/videos/campo-satellite.mp4,BOLYGÓ UTCA,stimuli/objects/091a.jpg,object,left,2,stimuli/scenes/021a.jpg,stimuli/objects/089b.jpg,stimuli/scenes/021b.jpg,stimuli/scenes/021a.jpg,stimuli/objects/089a.jpg,dist2,lure,target,dist1,0,0,0,0,0,7,7,54,,,,,,,,,,,,,124.41384532116354,125.4456914421171,125.4456914421171,125.4456914421171,125.4456914421171,125.4456914421171,125.4456914421171,down,0,129.4611095841974,129.4611095841974,129.4611095841974,129.4611095841974,None,1.7770290188491344,,,,,,,,,,,ST02_120922,2022-12-09_14h59.08.284,Hippopolis_Updating,2022.2.2,60.00220172735682,
Camponello,stimuli/subj_files/ST02_120922_cityB.csv,./stimuli/arnedillo.png,./stimuli/street_plate2.png,./stimuli/videos/camponello_part,./stimuli/videos/campo-satellite.mp4,PETÁRDA UTCA,stimuli/objects/023a.jpg,object,left,0,stimuli/objects/023a.jpg,stimuli/objects/023b.jpg,stimuli/objects/023a.jpg,stimuli/objects/054b.jpg,stimuli/objects/054a.jpg,lure,target,dist2,dist1,0,0,0,0,0,8,8,2,,,,,,,,,,,,,131.4204383455217,132.44161197170615,132.44161197170615,132.44161197170615,132.44161197170615,132.44161197170615,132.44161197170615,down,0,136.44934452325106,136.44934452325106,136.44934452325106,136.44934452325106,None,0.9887117855250835,,,,,,,,,,,ST02_120922,2022-12-09_14h59.08.284,Hippopolis_Updating,2022.2.2,60.00220172735682,
Camponello,stimuli/subj_files/ST02_120922_cityB.csv,./stimuli/arnedillo.png,./stimuli/street_plate2.png,./stimuli/videos/camponello_part,./stimuli/videos/campo-satellite.mp4,LÉTRA UTCA,stimuli/objects/021a.jpg,object,left,0,stimuli/objects/021a.jpg,stimuli/objects/078a.jpg,stimuli/objects/021b.jpg,stimuli/objects/078b.jpg,stimuli/objects/021a.jpg,dist1,lure,dist2,target,0,0,0,0,0,9,9,68,,,,,,,,,,,,,138.43695682659745,139.4582728948444,139.4582728948444,139.4582728948444,139.4582728948444,139.4582728948444,139.4582728948444,down,0,143.4628421999514,143.4628421999514,143.4628421999514,143.4628421999514,None,1.4760189950466156,,,,,,,,,,,ST02_120922,2022-12-09_14h59.08.284,Hippopolis_Updating,2022.2.2,60.00220172735682,
Camponello,stimuli/subj_files/ST02_120922_cityB.csv,./stimuli/arnedillo.png,./stimuli/street_plate2.png,./stimuli/videos/camponello_part,./stimuli/videos/campo-satellite.mp4,FÓKA UTCA,stimuli/objects/083a.jpg,object,left,0,stimuli/objects/083a.jpg,stimuli/objects/083b.jpg,stimuli/scenes/091b.jpg,stimuli/objects/083a.jpg,stimuli/scenes/091a.jpg,lure,dist2,target,dist1,0,0,0,0,0,10,10,52,,,,,,,,,,,,,145.43815202452242,146.46058895811439,146.46058895811439,146.46058895811439,146.46058895811439,146.46058895811439,146.46058895811439,left,0,150.4688953179866,150.4688953179866,150.4688953179866,150.4688953179866,None,1.3058708161115646,,,,,,,,,,,ST02_120922,2022-12-09_14h59.08.284,Hippopolis_Updating,2022.2.2,60.00220172735682,
Camponello,stimuli/subj_files/ST02_120922_cityB.csv,./stimuli/arnedillo.png,./stimuli/street_plate2.png,./stimuli/videos/camponello_part,./stimuli/videos/campo-satellite.mp4,ZSEMLE UTCA,stimuli/objects/018a.jpg,object,left,1,stimuli/objects/116a.jpg,stimuli/objects/069a.jpg,stimuli/objects/116a.jpg,stimuli/objects/116b.jpg,stimuli/objects/069b.jpg,dist1,target,lure,dist2,0,0,0,0,0,11,11,6,,,,,,,,,,,,,152.45505895465612,153.48238397575915,153.48238397575915,153.48238397575915,153.48238397575915,153.48238397575915,153.48238397575915,left,0,157.50495028868318,157.50495028868318,157.50495028868318,157.50495028868318,None,1.9315852001309395,,,,,,,,,,,ST02_120922,2022-12-09_14h59.08.284,Hippopolis_Updating,2022.2.2,60.00220172735682,
Camponello,stimuli/subj_files/ST02_120922_cityB.csv,./stimuli/arnedillo.png,./stimuli/street_plate2.png,./stimuli/videos/camponello_part,./stimuli/videos/campo-satellite.mp4,KIRAKÓ UTCA,stimuli/objects/010a.jpg,object,left,1,stimuli/objects/092a.jpg,stimuli/objects/045b.jpg,stimuli/objects/092a.jpg,stimuli/objects/045a.jpg,stimuli/objects/092b.jpg,dist2,target,dist1,lure,0,0,0,0,0,12,12,78,,,,,,,,,,,,,159.46645267307758,160.49105390161276,160.49105390161276,160.49105390161276,160.49105390161276,160.49105390161276,160.49105390161276,down,0,164.51912502758205,164.51912502758205,164.51912502758205,164.51912502758205,None,1.1787522416561842,,,,,,,,,,,ST02_120922,2022-12-09_14h59.08.284,Hippopolis_Updating,2022.2.2,60.00220172735682,
Camponello,stimuli/subj_files/ST02_120922_cityB.csv,./stimuli/arnedillo.png,./stimuli/street_plate2.png,./stimuli/videos/camponello_part,./stimuli/videos/campo-satellite.mp4,SÜTŐ UTCA,stimuli/objects/055a.jpg,object,left,0,stimuli/objects/055a.jpg,stimuli/objects/088b.jpg,stimuli/objects/055a.jpg,stimuli/objects/088a.jpg,stimuli/objects/055b.jpg,dist2,target,dist1,lure,0,0,0,0,0,13,13,20,,,,,,,,,,,,,166.48175667598844,167.51192678324878,167.51192678324878,167.51192678324878,167.51192678324878,167.51192678324878,167.51192678324878,left,0,171.51396574266255,171.51396574266255,171.51396574266255,171.51396574266255,None,2.621501874178648,,,,,,,,,,,ST02_120922,2022-12-09_14h59.08.284,Hippopolis_Updating,2022.2.2,60.00220172735682,
Camponello,stimuli/subj_files/ST02_120922_cityB.csv,./stimuli/arnedillo.png,./stimuli/street_plate2.png,./stimuli/videos/camponello_part,./stimuli/videos/campo-satellite.mp4,PALACK UTCA,stimuli/scenes/062a.jpg,scene,right,0,stimuli/scenes/062a.jpg,stimuli/scenes/059b.jpg,stimuli/scenes/059a.jpg,stimuli/scenes/062a.jpg,stimuli/scenes/062b.jpg,dist2,dist1,target,lure,0,0,0,0,0,14,14,63,,,,,,,,,,,,,173.48192213103175,174.50682876817882,174.50682876817882,174.50682876817882,174.50682876817882,174.50682876817882,174.50682876817882,left,0,178.52402897551656,178.52402897551656,178.52402897551656,178.52402897551656,None,1.8507260251790285,,,,,,,,,,,ST02_120922,2022-12-09_14h59.08.284,Hippopolis_Updating,2022.2.2,60.00220172735682,
Camponello,stimuli/subj_files/ST02_120922_cityB.csv,./stimuli/arnedillo.png,./stimuli/street_plate2.png,./stimuli/videos/camponello_part,./stimuli/videos/campo-satellite.mp4,SUGÁR UTCA,stimuli/objects/075a.jpg,object,left,2,stimuli/scenes/103a.jpg,stimuli/objects/007a.jpg,stimuli/objects/007b.jpg,stimuli/scenes/103b.jpg,stimuli/scenes/103a.jpg,dist1,dist2,lure,target,0,0,0,0,0,15,15,51,,,,,,,,,,,,,180.48546760343015,181.51763841696084,181.51763841696084,181.51763841696084,181.51763841696084,181.51763841696084,181.51763841696084,None,0,185.52131606638432,185.52131606638432,185.52131606638432,185.52131606638432,None,,,,,,,,,,,,ST02_120922,2022-12-09_14h59.08.284,Hippopolis_Updating,2022.2.2,60.00220172735682,
Camponello,stimuli/subj_files/ST02_120922_cityB.csv,./stimuli/arnedillo.png,./stimuli/street_plate2.png,./stimuli/videos/camponello_part,./stimuli/videos/campo-satellite.mp4,NARANCS UTCA,stimuli/scenes/109a.jpg,scene,right,0,stimuli/scenes/109a.jpg,stimuli/scenes/109b.jpg,stimuli/scenes/077b.jpg,stimuli/scenes/077a.jpg,stimuli/scenes/109a.jpg,lure,dist2,dist1,target,0,0,0,0,0,16,16,40,,,,,,,,,,,,,187.48550461418927,188.51097665913403,188.51097665913403,188.51097665913403,188.51097665913403,188.51097665913403,188.51097665913403,left,0,192.51566632464528,192.51566632464528,192.51566632464528,192.51566632464528,None,1.4945524875074625,,,,,,,,,,,ST02_120922,2022-12-09_14h59.08.284,Hippopolis_Updating,2022.2.2,60.00220172735682,
Camponello,stimuli/subj_files/ST02_120922_cityB.csv,./stimuli/arnedillo.png,./stimuli/street_plate2.png,./stimuli/videos/camponello_part,./stimuli/videos/campo-satellite.mp4,SZAXOFON UTCA,stimuli/objects/081a.jpg,object,left,0,stimuli/objects/081a.jpg,stimuli/objects/083b.jpg,stimuli/objects/081b.jpg,stimuli/objects/081a.jpg,stimuli/objects/083a.jpg,dist2,lure,target,dist1,0,0,0,0,0,17,17,76,,,,,,,,,,,,,194.49393661879003,195.53940979763865,195.53940979763865,195.53940979763865,195.53940979763865,195.53940979763865,195.53940979763865,down,0,199.5231587793678,199.5231587793678,199.5231587793678,199.5231587793678,None,1.2342538218945265,,,,,,,,,,,ST02_120922,2022-12-09_14h59.08.284,Hippopolis_Updating,2022.2.2,60.00220172735682,
Camponello,stimuli/subj_files/ST02_120922_cityB.csv,./stimuli/arnedillo.png,./stimuli/street_plate2.png,./stimuli/videos/camponello_part,./stimuli/videos/campo-satellite.mp4,PAPAGÁJ UTCA,stimuli/objects/040a.jpg,object,left,0,stimuli/objects/040a.jpg,stimuli/objects/040a.jpg,stimuli/objects/040b.jpg,stimuli/objects/022b.jpg,stimuli/objects/022a.jpg,target,lure,dist2,dist1,0,0,0,0,0,18,18,47,,,,,,,,,,,,,201.49354972690344,202.5222444217652,202.5222444217652,202.5222444217652,202.5222444217652,202.5222444217652,202.5222444217652,left,0,206.5206461586058,206.5206461586058,206.5206461586058,206.5206461586058,None,1.5149044338613749,,,,,,,,,,,ST02_120922,2022-12-09_14h59.08.284,Hippopolis_Updating,2022.2.2,60.00220172735682,
Camponello,stimuli/subj_files/ST02_120922_cityB.csv,./stimuli/arnedillo.png,./stimuli/street_plate2.png,./stimuli/videos/camponello_part,./stimuli/videos/campo-satellite.mp4,VASALÓ UTCA,stimuli/objects/105a.jpg,object,left,0,stimuli/objects/105a.jpg,stimuli/scenes/038a.jpg,stimuli/objects/105a.jpg,stimuli/scenes/038b.jpg,stimuli/objects/105b.jpg,dist1,target,dist2,lure,0,0,0,0,0,19,19,25,,,,,,,,,,,,,208.5019646268338,209.52488517574966,209.52488517574966,209.52488517574966,209.52488517574966,209.52488517574966,209.52488517574966,right,0,213.54391441307962,213.54391441307962,213.54391441307962,213.54391441307962,None,2.7370052952319384,,,,,,,,,,,ST02_120922,2022-12-09_14h59.08.284,Hippopolis_Updating,2022.2.2,60.00220172735682,
Camponello,stimuli/subj_files/ST02_120922_cityB.csv,./stimuli/arnedillo.png,./stimuli/street_plate2.png,./stimuli/videos/camponello_part,./stimuli/videos/campo-satellite.mp4,SZOMSZÉD UTCA,stimuli/scenes/023a.jpg,scene,right,0,stimuli/scenes/023a.jpg,stimuli/scenes/113b.jpg,stimuli/scenes/023b.jpg,stimuli/scenes/023a.jpg,stimuli/scenes/113a.jpg,dist2,lure,target,dist1,0,0,0,0,0,20,20,33,,,,,,,,,,,,,215.51817210391164,216.54380804859102,216.54380804859102,216.54380804859102,216.54380804859102,216.54380804859102,216.54380804859102,right,0,220.5487154200673,220.5487154200673,220.5487154200673,220.5487154200673,None,2.597638353705406,,,,,,,,,,,ST02_120922,2022-12-09_14h59.08.284,Hippopolis_Updating,2022.2.2,60.00220172735682,
Camponello,stimuli/subj_files/ST02_120922_cityB.csv,./stimuli/arnedillo.png,./stimuli/street_plate2.png,./stimuli/videos/camponello_part,./stimuli/videos/campo-satellite.mp4,LOVAGLÁS UTCA,stimuli/objects/016a.jpg,object,left,2,stimuli/scenes/026a.jpg,stimuli/scenes/026b.jpg,stimuli/objects/065a.jpg,stimuli/scenes/026a.jpg,stimuli/objects/065b.jpg,lure,dist1,target,dist2,0,0,0,0,0,21,21,36,,,,,,,,,,,,,222.53095322288573,223.557506326586,223.557506326586,223.557506326586,223.557506326586,223.557506326586,223.557506326586,down,0,227.57355114631355,227.57355114631355,227.57355114631355,227.57355114631355,None,2.43146981485188,,,,,,,,,,,ST02_120922,2022-12-09_14h59.08.284,Hippopolis_Updating,2022.2.2,60.00220172735682,
Camponello,stimuli/subj_files/ST02_120922_cityB.csv,./stimuli/arnedillo.png,./stimuli/street_plate2.png,./stimuli/videos/camponello_part,./stimuli/videos/campo-satellite.mp4,SZALVÉTA UTCA,stimuli/scenes/086a.jpg,scene,right,0,stimuli/scenes/086a.jpg,stimuli/objects/021b.jpg,stimuli/objects/021a.jpg,stimuli/scenes/086a.jpg,stimuli/scenes/086b.jpg,dist2,dist1,target,lure,0,0,0,0,0,22,22,65,,,,,,,,,,,,,229.53501900844276,230.55654687061906,230.55654687061906,230.55654687061906,230.55654687061906,230.55654687061906,230.55654687061906,down,0,234.5598158594221,234.5598158594221,234.5598158594221,234.5598158594221,None,1.4329321682453156,,,,,,,,,,,ST02_120922,2022-12-09_14h59.08.284,Hippopolis_Updating,2022.2.2,60.00220172735682,
Camponello,stimuli/subj_files/ST02_120922_cityB.csv,./stimuli/arnedillo.png,./stimuli/street_plate2.png,./stimuli/videos/camponello_part,./stimuli/videos/campo-satellite.mp4,PADLÓ UTCA,stimuli/scenes/078a.jpg,scene,right,1,stimuli/scenes/032a.jpg,stimuli/objects/116a.jpg,stimuli/objects/116b.jpg,stimuli/scenes/032b.jpg,stimuli/scenes/032a.jpg,dist1,dist2,lure,target,0,0,0,0,0,23,23,57,,,,,,,,,,,,,236.54468944109976,237.574247488752,237.574247488752,237.574247488752,237.574247488752,237.574247488752,237.574247488752,down,0,241.57536524534225,241.57536524534225,241.57536524534225,241.57536524534225,None,1.3426644280552864,,,,,,,,,,,ST02_120922,2022-12-09_14h59.08.284,Hippopolis_Updating,2022.2.2,60.00220172735682,
Camponello,stimuli/subj_files/ST02_120922_cityB.csv,./stimuli/arnedillo.png,./stimuli/street_plate2.png,./stimuli/videos/camponello_part,./stimuli/videos/campo-satellite.mp4,VIHAR UTCA,stimuli/scenes/120a.jpg,scene,right,0,stimuli/scenes/120a.jpg,stimuli/objects/103a.jpg,stimuli/objects/103b.jpg,stimuli/scenes/120b.jpg,stimuli/scenes/120a.jpg,dist1,dist2,lure,target,0,0,0,0,0,24,24,26,,,,,,,,,,,,,243.54942202568054,244.5587640348822,244.5587640348822,244.5587640348822,244.5587640348822,244.5587640348822,244.5587640348822,down,0,248.57116106152534,248.57116106152534,248.57116106152534,248.57116106152534,None,1.9102283902466297,,,,,,,,,,,ST02_120922,2022-12-09_14h59.08.284,Hippopolis_Updating,2022.2.2,60.00220172735682,
Camponello,stimuli/subj_files/ST02_120922_cityB.csv,./stimuli/arnedillo.png,./stimuli/street_plate2.png,./stimuli/videos/camponello_part,./stimuli/videos/campo-satellite.mp4,TULIPÁN UTCA,stimuli/scenes/119a.jpg,scene,right,0,stimuli/scenes/119a.jpg,stimuli/scenes/119b.jpg,stimuli/objects/035b.jpg,stimuli/objects/035a.jpg,stimuli/scenes/119a.jpg,lure,dist2,dist1,target,0,0,0,0,0,25,25,18,,,,,,,,,,,,,250.55207926407456,251.57178493961692,251.57178493961692,251.57178493961692,251.57178493961692,251.57178493961692,251.57178493961692,left,0,255.58570496365428,255.58570496365428,255.58570496365428,255.58570496365428,None,2.2407877538353205,,,,,,,,,,,ST02_120922,2022-12-09_14h59.08.284,Hippopolis_Updating,2022.2.2,60.00220172735682,
Camponello,stimuli/subj_files/ST02_120922_cityB.csv,./stimuli/arnedillo.png,./stimuli/street_plate2.png,./stimuli/videos/camponello_part,./stimuli/videos/campo-satellite.mp4,LEGELŐ UTCA,stimuli/scenes/013a.jpg,scene,right,1,stimuli/scenes/051a.jpg,stimuli/scenes/051b.jpg,stimuli/scenes/051a.jpg,stimuli/objects/019a.jpg,stimuli/objects/019b.jpg,lure,target,dist1,dist2,0,0,0,0,0,26,26,15,,,,,,,,,,,,,257.55417358130217,258.57523057982326,258.57523057982326,258.57523057982326,258.57523057982326,258.57523057982326,258.57523057982326,down,0,262.591186452657,262.591186452657,262.591186452657,262.591186452657,None,1.9735607989132404,,,,,,,,,,,ST02_120922,2022-12-09_14h59.08.284,Hippopolis_Updating,2022.2.2,60.00220172735682,
Camponello,stimuli/subj_files/ST02_120922_cityB.csv,./stimuli/arnedillo.png,./stimuli/street_plate2.png,./stimuli/videos/camponello_part,./stimuli/videos/campo-satellite.mp4,OROSZLÁN UTCA,stimuli/scenes/113a.jpg,scene,right,0,stimuli/scenes/113a.jpg,stimuli/scenes/105a.jpg,stimuli/scenes/105b.jpg,stimuli/scenes/113a.jpg,stimuli/scenes/113b.jpg,dist1,dist2,target,lure,0,0,0,0,0,27,27,10,,,,,,,,,,,,,264.56504729762673,265.58981304802,265.58981304802,265.58981304802,265.58981304802,265.58981304802,265.58981304802,down,0,269.6062889229506,269.6062889229506,269.6062889229506,269.6062889229506,None,1.5033278428018093,,,,,,,,,,,ST02_120922,2022-12-09_14h59.08.284,Hippopolis_Updating,2022.2.2,60.00220172735682,
Camponello,stimuli/subj_files/ST02_120922_cityB.csv,./stimuli/arnedillo.png,./stimuli/street_plate2.png,./stimuli/videos/camponello_part,./stimuli/videos/campo-satellite.mp4,FÉNYKÉP UTCA,stimuli/objects/005a.jpg,object,left,0,stimuli/objects/005a.jpg,stimuli/objects/005b.jpg,stimuli/objects/005a.jpg,stimuli/scenes/120b.jpg,stimuli/scenes/120a.jpg,lure,target,dist2,dist1,0,0,0,0,0,28,28,71,,,,,,,,,,,,,271.5811791997403,272.6088258009404,272.6088258009404,272.6088258009404,272.6088258009404,272.6088258009404,272.6088258009404,left,0,276.6051994673908,276.6051994673908,276.6051994673908,276.6051994673908,None,2.244284400716424,,,,,,,,,,,ST02_120922,2022-12-09_14h59.08.284,Hippopolis_Updating,2022.2.2,60.00220172735682,
Camponello,stimuli/subj_files/ST02_120922_cityB.csv,./stimuli/arnedillo.png,./stimuli/street_plate2.png,./stimuli/videos/camponello_part,./stimuli/videos/campo-satellite.mp4,AKÁC UTCA,stimuli/objects/100a.jpg,object,left,1,stimuli/objects/045a.jpg,stimuli/objects/045b.jpg,stimuli/scenes/051b.jpg,stimuli/objects/045a.jpg,stimuli/scenes/051a.jpg,lure,dist2,target,dist1,0,0,0,0,0,29,29,3,,,,,,,,,,,,,278.5884803850204,279.60613621771336,279.60613621771336,279.60613621771336,279.60613621771336,279.60613621771336,279.60613621771336,down,0,283.63231300376356,283.63231300376356,283.63231300376356,283.63231300376356,None,1.21438580006361,279.60613621771336,,,,,,,,,,ST02_120922,2022-12-09_14h59.08.284,Hippopolis_Updating,2022.2.2,60.00220172735682,
Camponello,stimuli/subj_files/ST02_120922_cityB.csv,./stimuli/arnedillo.png,./stimuli/street_plate2.png,./stimuli/videos/camponello_part,./stimuli/videos/campo-satellite.mp4,KAKAÓ UTCA,stimuli/objects/036a.jpg,object,left,1,stimuli/objects/019a.jpg,stimuli/objects/092a.jpg,stimuli/objects/092b.jpg,stimuli/objects/019a.jpg,stimuli/objects/019b.jpg,dist1,dist2,target,lure,0,0,0,0,0,30,30,42,,,,,,,,,,,,,285.6093849912286,286.6412992235273,286.6412992235273,286.6412992235273,286.6412992235273,286.6412992235273,286.6412992235273,down,0,290.6445019673556,290.6445019673556,290.6445019673556,290.6445019673556,None,1.3948870673775673,,,,,,,,,,,ST02_120922,2022-12-09_14h59.08.284,Hippopolis_Updating,2022.2.2,60.00220172735682,
Camponello,stimuli/subj_files/ST02_120922_cityB.csv,./stimuli/arnedillo.png,./stimuli/street_plate2.png,./stimuli/videos/camponello_part,./stimuli/videos/campo-satellite.mp4,HÁRFA UTCA,stimuli/objects/070a.jpg,object,left,0,stimuli/objects/070a.jpg,stimuli/objects/070b.jpg,stimuli/objects/070a.jpg,stimuli/objects/051b.jpg,stimuli/objects/051a.jpg,lure,target,dist2,dist1,0,0,0,0,0,31,31,58,,,,,,,,,,,,,292.6180294137448,293.641414295882,293.641414295882,293.641414295882,293.641414295882,293.641414295882,293.641414295882,down,0,297.67343271523714,297.67343271523714,297.67343271523714,297.67343271523714,None,1.1628420893102884,,,,,,,,,,,ST02_120922,2022-12-09_14h59.08.284,Hippopolis_Updating,2022.2.2,60.00220172735682,
Camponello,stimuli/subj_files/ST02_120922_cityB.csv,./stimuli/arnedillo.png,./stimuli/street_plate2.png,./stimuli/videos/camponello_part,./stimuli/videos/campo-satellite.mp4,KOSÁR UTCA,stimuli/scenes/036a.jpg,scene,right,2,stimuli/objects/053a.jpg,stimuli/objects/053a.jpg,stimuli/scenes/024b.jpg,stimuli/objects/053b.jpg,stimuli/scenes/024a.jpg,target,dist2,lure,dist1,0,0,0,0,0,32,32,0,,,,,,,,,,,,,299.6307548619807,300.65621229074895,300.65621229074895,300.65621229074895,300.65621229074895,300.65621229074895,300.65621229074895,down,0,304.66336170583963,304.66336170583963,304.66336170583963,304.66336170583963,None,2.611969217658043,,,,,,,,,,,ST02_120922,2022-12-09_14h59.08.284,Hippopolis_Updating,2022.2.2,60.00220172735682,
Camponello,stimuli/subj_files/ST02_120922_cityB.csv,./stimuli/arnedillo.png,./stimuli/street_plate2.png,./stimuli/videos/camponello_part,./stimuli/videos/campo-satellite.mp4,SAJTÓ UTCA,stimuli/objects/078a.jpg,object,left,0,stimuli/objects/078a.jpg,stimuli/scenes/023a.jpg,stimuli/objects/078a.jpg,stimuli/scenes/023b.jpg,stimuli/objects/078b.jpg,dist1,target,dist2,lure,0,0,0,0,0,33,33,67,,,,,,,,,,,,,306.6367364488542,307.663758860901,307.663758860901,307.663758860901,307.663758860901,307.663758860901,307.663758860901,down,0,311.6822211332619,311.6822211332619,311.6822211332619,311.6822211332619,None,2.3885098807513714,,,,,,,,,,,ST02_120922,2022-12-09_14h59.08.284,Hippopolis_Updating,2022.2.2,60.00220172735682,
Camponello,stimuli/subj_files/ST02_120922_cityB.csv,./stimuli/arnedillo.png,./stimuli/street_plate2.png,./stimuli/videos/camponello_part,./stimuli/videos/campo-satellite.mp4,LABDA UTCA,stimuli/objects/115a.jpg,object,left,0,stimuli/objects/115a.jpg,stimuli/objects/115a.jpg,stimuli/objects/005b.jpg,stimuli/objects/115b.jpg,stimuli/objects/005a.jpg,target,dist2,lure,dist1,0,0,0,0,0,34,34,31,,,,,,,,,,,,,313.6437095217407,314.67411817237735,314.67411817237735,314.67411817237735,314.67411817237735,314.67411817237735,314.67411817237735,down,0,318.6821716837585,318.6821716837585,318.6821716837585,318.6821716837585,None,1.3785492777824402,,,,,,,,,,,ST02_120922,2022-12-09_14h59.08.284,Hippopolis_Updating,2022.2.2,60.00220172735682,
Camponello,stimuli/subj_files/ST02_120922_cityB.csv,./stimuli/arnedillo.png,./stimuli/street_plate2.png,./stimuli/videos/camponello_part,./stimuli/videos/campo-satellite.mp4,MOSODA UTCA,stimuli/scenes/096a.jpg,scene,right,0,stimuli/scenes/096a.jpg,stimuli/scenes/096b.jpg,stimuli/scenes/106a.jpg,stimuli/scenes/096a.jpg,stimuli/scenes/106b.jpg,lure,dist1,target,dist2,0,0,0,0,0,35,35,14,,,,,,,,,,,,,320.6502916626632,321.6777435746044,321.6777435746044,321.6777435746044,321.6777435746044,321.6777435746044,321.6777435746044,left,0,325.69021337479353,325.69021337479353,325.69021337479353,325.69021337479353,None,3.558741718530655,,,,,,,,,,,ST02_120922,2022-12-09_14h59.08.284,Hippopolis_Updating,2022.2.2,60.00220172735682,
Camponello,stimuli/subj_files/ST02_120922_cityB.csv,./stimuli/arnedillo.png,./stimuli/street_plate2.png,./stimuli/videos/camponello_part,./stimuli/videos/campo-satellite.mp4,ÁRNYÉK UTCA,stimuli/scenes/046a.jpg,scene,right,0,stimuli/scenes/046a.jpg,stimuli/objects/098b.jpg,stimuli/scenes/046b.jpg,stimuli/scenes/046a.jpg,stimuli/objects/098a.jpg,dist2,lure,target,dist1,0,0,0,0,0,36,36,72,,,,,,,,,,,,,327.66725892573595,328.690191604197,328.690191604197,328.690191604197,328.690191604197,328.690191604197,328.690191604197,right,0,332.7028131764382,332.7028131764382,332.7028131764382,332.7028131764382,None,1.3460015282034874,,,,,,,,,,,ST02_120922,2022-12-09_14h59.08.284,Hippopolis_Updating,2022.2.2,60.00220172735682,
Camponello,stimuli/subj_files/ST02_120922_cityB.csv,./stimuli/arnedillo.png,./stimuli/street_plate2.png,./stimuli/videos/camponello_part,./stimuli/videos/campo-satellite.mp4,EGÉR UTCA,stimuli/objects/082a.jpg,object,left,0,stimuli/objects/082a.jpg,stimuli/objects/030b.jpg,stimuli/objects/082b.jpg,stimuli/objects/082a.jpg,stimuli/objects/030a.jpg,dist2,lure,target,dist1,0,0,0,0,0,37,37,56,,,,,,,,,,,,,334.68385080620646,335.70799609832466,335.70799609832466,335.70799609832466,335.70799609832466,335.70799609832466,335.70799609832466,left,0,339.71361567266285,339.71361567266285,339.71361567266285,339.71361567266285,None,2.2154245618730783,,,,,,,,,,,ST02_120922,2022-12-09_14h59.08.284,Hippopolis_Updating,2022.2.2,60.00220172735682,
Camponello,stimuli/subj_files/ST02_120922_cityB.csv,./stimuli/arnedillo.png,./stimuli/street_plate2.png,./stimuli/videos/camponello_part,./stimuli/videos/campo-satellite.mp4,KESZTYŰ UTCA,stimuli/objects/074a.jpg,object,left,2,stimuli/scenes/024a.jpg,stimuli/scenes/024a.jpg,stimuli/objects/072b.jpg,stimuli/scenes/024b.jpg,stimuli/objects/072a.jpg,target,dist2,lure,dist1,0,0,0,0,0,38,38,11,,,,,,,,,,,,,341.7007023766637,342.7269811723381,342.7269811723381,342.7269811723381,342.7269811723381,342.7269811723381,342.7269811723381,down,0,346.7393091544509,346.7393091544509,346.7393091544509,346.7393091544509,None,1.1652421243488789,,,,,,,,,,,ST02_120922,2022-12-09_14h59.08.284,Hippopolis_Updating,2022.2.2,60.00220172735682,
Camponello,stimuli/subj_files/ST02_120922_cityB.csv,./stimuli/arnedillo.png,./stimuli/street_plate2.png,./stimuli/videos/camponello_part,./stimuli/videos/campo-satellite.mp4,KANÁL UTCA,stimuli/objects/098a.jpg,object,left,0,stimuli/objects/098a.jpg,stimuli/objects/105b.jpg,stimuli/objects/105a.jpg,stimuli/objects/098b.jpg,stimuli/objects/098a.jpg,dist2,dist1,lure,target,0,0,0,0,0,39,39,13,,,,,,,,,,,,,348.7164560947567,349.74177388101816,349.74177388101816,349.74177388101816,349.74177388101816,349.74177388101816,349.74177388101816,down,0,353.73566975817084,353.73566975817084,353.73566975817084,353.73566975817084,None,2.1821316368877888,,,,,,,,,,,ST02_120922,2022-12-09_14h59.08.284,Hippopolis_Updating,2022.2.2,60.00220172735682,
Camponello,stimuli/subj_files/ST02_120922_cityB.csv,./stimuli/arnedillo.png,./stimuli/street_plate2.png,./stimuli/videos/camponello_part,./stimuli/videos/campo-satellite.mp4,KÍGYÓ UTCA,stimuli/objects/057a.jpg,object,left,0,stimuli/objects/057a.jpg,stimuli/scenes/071b.jpg,stimuli/objects/057a.jpg,stimuli/scenes/071a.jpg,stimuli/objects/057b.jpg,dist2,target,dist1,lure,0,0,0,0,0,40,40,12,,,,,,,,,,,,,355.71653135865927,356.74335379339755,356.74335379339755,356.74335379339755,356.74335379339755,356.74335379339755,356.74335379339755,left,0,360.7531532943249,360.7531532943249,360.7531532943249,360.7531532943249,None,1.740830672904849,,,,,,,,,,,ST02_120922,2022-12-09_14h59.08.284,Hippopolis_Updating,2022.2.2,60.00220172735682,
Camponello,stimuli/subj_files/ST02_120922_cityB.csv,./stimuli/arnedillo.png,./stimuli/street_plate2.png,./stimuli/videos/camponello_part,./stimuli/videos/campo-satellite.mp4,TISZTÁS UTCA,stimuli/objects/054a.jpg,object,left,0,stimuli/objects/054a.jpg,stimuli/objects/054b.jpg,stimuli/objects/115a.jpg,stimuli/objects/054a.jpg,stimuli/objects/115b.jpg,lure,dist1,target,dist2,0,0,0,0,0,41,41,22,,,,,,,,,,,,,362.73188481107354,363.75429157726467,363.75429157726467,363.75429157726467,363.75429157726467,363.75429157726467,363.75429157726467,down,0,367.7713020723313,367.7713020723313,367.7713020723313,367.7713020723313,None,1.7687531374394894,,,,,,,,,,,ST02_120922,2022-12-09_14h59.08.284,Hippopolis_Updating,2022.2.2,60.00220172735682,
Camponello,stimuli/subj_files/ST02_120922_cityB.csv,./stimuli/arnedillo.png,./stimuli/street_plate2.png,./stimuli/videos/camponello_part,./stimuli/videos/campo-satellite.mp4,KESELYŰ UTCA,stimuli/scenes/053a.jpg,scene,right,0,stimuli/scenes/053a.jpg,stimuli/scenes/054a.jpg,stimuli/scenes/053b.jpg,stimuli/scenes/054b.jpg,stimuli/scenes/053a.jpg,dist1,lure,dist2,target,0,0,0,0,0,42,42,30,,,,,,,,,,,,,369.7347003519535,370.762193005532,370.762193005532,370.762193005532,370.762193005532,370.762193005532,370.762193005532,down,0,374.7594144754112,374.7594144754112,374.7594144754112,374.7594144754112,None,1.5613401755690575,,,,,,,,,,,ST02_120922,2022-12-09_14h59.08.284,Hippopolis_Updating,2022.2.2,60.00220172735682,
Camponello,stimuli/subj_files/ST02_120922_cityB.csv,./stimuli/arnedillo.png,./stimuli/street_plate2.png,./stimuli/videos/camponello_part,./stimuli/videos/campo-satellite.mp4,TOLLTARTÓ UTCA,stimuli/objects/071a.jpg,object,left,1,stimuli/objects/048a.jpg,stimuli/scenes/097b.jpg,stimuli/scenes/097a.jpg,stimuli/objects/048a.jpg,stimuli/objects/048b.jpg,dist2,dist1,target,lure,0,0,0,0,0,43,43,35,,,,,,,,,,,,,376.75235027447343,377.77295258268714,377.77295258268714,377.77295258268714,377.77295258268714,377.77295258268714,377.77295258268714,down,0,381.7965153604746,381.7965153604746,381.7965153604746,381.7965153604746,None,1.6707015316933393,,,,,,,,,,,ST02_120922,2022-12-09_14h59.08.284,Hippopolis_Updating,2022.2.2,60.00220172735682,
Camponello,stimuli/subj_files/ST02_120922_cityB.csv,./stimuli/arnedillo.png,./stimuli/street_plate2.png,./stimuli/videos/camponello_part,./stimuli/videos/campo-satellite.mp4,KULLANCS UTCA,stimuli/scenes/065a.jpg,scene,right,0,stimuli/scenes/065a.jpg,stimuli/scenes/065a.jpg,stimuli/objects/081a.jpg,stimuli/objects/081b.jpg,stimuli/scenes/065b.jpg,target,dist1,dist2,lure,0,0,0,0,0,44,44,17,,,,,,,,,,,,,383.77558867260814,384.8032225240022,384.8032225240022,384.8032225240022,384.8032225240022,384.8032225240022,384.8032225240022,right,0,388.7980691473931,388.7980691473931,388.7980691473931,388.7980691473931,space,1.808440662920475,,390.78462807275355,390.78462807275355,3.4742599427700043,,,,,,,ST02_120922,2022-12-09_14h59.08.284,Hippopolis_Updating,2022.2.2,60.00220172735682,
Camponello,stimuli/subj_files/ST02_120922_cityB.csv,./stimuli/arnedillo.png,./stimuli/street_plate2.png,./stimuli/videos/camponello_part,./stimuli/videos/campo-satellite.mp4,MARTINI UTCA,stimuli/scenes/112a.jpg,scene,right,2,stimuli/objects/007a.jpg,stimuli/scenes/014b.jpg,stimuli/objects/007b.jpg,stimuli/objects/007a.jpg,stimuli/scenes/014a.jpg,dist2,lure,target,dist1,0,0,0,0,0,45,45,61,,,,,,,,,,,,,394.2778742592782,395.3054144959897,395.3054144959897,395.3054144959897,395.3054144959897,395.3054144959897,395.3054144959897,left,0,399.3117807973176,399.3117807973176,399.3117807973176,399.3117807973176,None,2.4737523794174194,,,,,,,,,,,ST02_120922,2022-12-09_14h59.08.284,Hippopolis_Updating,2022.2.2,60.00220172735682,
Camponello,stimuli/subj_files/ST02_120922_cityB.csv,./stimuli/arnedillo.png,./stimuli/street_plate2.png,./stimuli/videos/camponello_part,./stimuli/videos/campo-satellite.mp4,MUNKA UTCA,stimuli/scenes/118a.jpg,scene,right,1,stimuli/scenes/117a.jpg,stimuli/scenes/032b.jpg,stimuli/scenes/117a.jpg,stimuli/scenes/032a.jpg,stimuli/scenes/117b.jpg,dist2,target,dist1,lure,0,0,0,0,0,46,46,53,,,,,,,,,,,,,401.27896153740585,402.3005559556186,402.3005559556186,402.3005559556186,402.3005559556186,402.3005559556186,402.3005559556186,left,0,406.33337334915996,406.33337334915996,406.33337334915996,406.33337334915996,None,1.7666348740458488,,,,,,,,,,,ST02_120922,2022-12-09_14h59.08.284,Hippopolis_Updating,2022.2.2,60.00220172735682,
Camponello,stimuli/subj_files/ST02_120922_cityB.csv,./stimuli/arnedillo.png,./stimuli/street_plate2.png,./stimuli/videos/camponello_part,./stimuli/videos/campo-satellite.mp4,TOLMÁCS UTCA,stimuli/objects/051a.jpg,object,left,0,stimuli/objects/051a.jpg,stimuli/scenes/096a.jpg,stimuli/scenes/096b.jpg,stimuli/objects/051b.jpg,stimuli/objects/051a.jpg,dist1,dist2,lure,target,0,0,0,0,0,47,47,4,,,,,,,,,,,,,408.28324533998966,409.31041361391544,409.31041361391544,409.31041361391544,409.31041361391544,409.31041361391544,409.31041361391544,down,0,413.3187504503876,413.3187504503876,413.3187504503876,413.3187504503876,None,2.5806365683674812,,,,,,,,,,,ST02_120922,2022-12-09_14h59.08.284,Hippopolis_Updating,2022.2.2,60.00220172735682,
Camponello,stimuli/subj_files/ST02_120922_cityB.csv,./stimuli/arnedillo.png,./stimuli/street_plate2.png,./stimuli/videos/camponello_part,./stimuli/videos/campo-satellite.mp4,SÜTEMÉNY UTCA,stimuli/objects/103a.jpg,object,left,0,stimuli/objects/103a.jpg,stimuli/objects/103b.jpg,stimuli/objects/103a.jpg,stimuli/objects/049b.jpg,stimuli/objects/049a.jpg,lure,target,dist2,dist1,0,0,0,0,0,48,48,43,,,,,,,,,,,,,415.2857962138951,416.3046680819243,416.3046680819243,416.3046680819243,416.3046680819243,416.3046680819243,416.3046680819243,down,0,420.3214363027364,420.3214363027364,420.3214363027364,420.3214363027364,None,2.2585396878421307,,,,,,,,,,,ST02_120922,2022-12-09_14h59.08.284,Hippopolis_Updating,2022.2.2,60.00220172735682,
Camponello,stimuli/subj_files/ST02_120922_cityB.csv,./stimuli/arnedillo.png,./stimuli/street_plate2.png,./stimuli/videos/camponello_part,./stimuli/videos/campo-satellite.mp4,FÉSŰ UTCA,stimuli/scenes/039a.jpg,scene,right,2,stimuli/objects/065a.jpg,stimuli/objects/077b.jpg,stimuli/objects/065a.jpg,stimuli/objects/077a.jpg,stimuli/objects/065b.jpg,dist2,target,dist1,lure,0,0,0,0,0,49,49,45,,,,,,,,,,,,,422.30223787762225,423.32244023121893,423.32244023121893,423.32244023121893,423.32244023121893,423.32244023121893,423.32244023121893,down,0,427.36646753922105,427.36646753922105,427.36646753922105,427.36646753922105,None,1.14448307082057,,,,,,,,,,,ST02_120922,2022-12-09_14h59.08.284,Hippopolis_Updating,2022.2.2,60.00220172735682,
Camponello,stimuli/subj_files/ST02_120922_cityB.csv,./stimuli/arnedillo.png,./stimuli/street_plate2.png,./stimuli/videos/camponello_part,./stimuli/videos/campo-satellite.mp4,BONBON UTCA,stimuli/objects/003a.jpg,object,left,0,stimuli/objects/003a.jpg,stimuli/objects/003a.jpg,stimuli/objects/003b.jpg,stimuli/objects/108a.jpg,stimuli/objects/108b.jpg,target,lure,dist1,dist2,0,0,0,0,0,50,50,5,,,,,,,,,,,,,429.31910873018205,430.34065836295485,430.34065836295485,430.34065836295485,430.34065836295485,430.34065836295485,430.34065836295485,down,0,434.3509999476373,434.3509999476373,434.3509999476373,434.3509999476373,None,1.2781290486454964,430.34065836295485,,,,,,,,,,ST02_120922,2022-12-09_14h59.08.284,Hippopolis_Updating,2022.2.2,60.00220172735682,
Camponello,stimuli/subj_files/ST02_120922_cityB.csv,./stimuli/arnedillo.png,./stimuli/street_plate2.png,./stimuli/videos/camponello_part,./stimuli/videos/campo-satellite.mp4,FEJSZE UTCA,stimuli/objects/031a.jpg,object,left,0,stimuli/objects/031a.jpg,stimuli/objects/082a.jpg,stimuli/objects/031a.jpg,stimuli/objects/031b.jpg,stimuli/objects/082b.jpg,dist1,target,lure,dist2,0,0,0,0,0,51,51,60,,,,,,,,,,,,,436.32504584267735,437.3516729660332,437.3516729660332,437.3516729660332,437.3516729660332,437.3516729660332,437.3516729660332,down,0,441.3601115029305,441.3601115029305,441.3601115029305,441.3601115029305,None,1.6107295453548431,,,,,,,,,,,ST02_120922,2022-12-09_14h59.08.284,Hippopolis_Updating,2022.2.2,60.00220172735682,
Camponello,stimuli/subj_files/ST02_120922_cityB.csv,./stimuli/arnedillo.png,./stimuli/street_plate2.png,./stimuli/videos/camponello_part,./stimuli/videos/campo-satellite.mp4,HARMONIKA UTCA,stimuli/scenes/033a.jpg,scene,right,0,stimuli/scenes/033a.jpg,stimuli/scenes/033b.jpg,stimuli/objects/055b.jpg,stimuli/objects/055a.jpg,stimuli/scenes/033a.jpg,lure,dist2,dist1,target,0,0,0,0,0,52,52,55,,,,,,,,,,,,,443.3294114395976,444.3526150044054,444.3526150044054,444.3526150044054,444.3526150044054,444.3526150044054,444.3526150044054,right,0,448.3728929311037,448.3728929311037,448.3728929311037,448.3728929311037,None,2.0815845150500536,,,,,,,,,,,ST02_120922,2022-12-09_14h59.08.284,Hippopolis_Updating,2022.2.2,60.00220172735682,
Camponello,stimuli/subj_files/ST02_120922_cityB.csv,./stimuli/arnedillo.png,./stimuli/street_plate2.png,./stimuli/videos/camponello_part,./stimuli/videos/campo-satellite.mp4,HORGONY UTCA,stimuli/scenes/019a.jpg,scene,right,0,stimuli/scenes/019a.jpg,stimuli/objects/023b.jpg,stimuli/scenes/019b.jpg,stimuli/objects/023a.jpg,stimuli/scenes/019a.jpg,dist2,lure,dist1,target,0,0,0,0,0,53,53,7,,,,,,,,,,,,,450.3327699974179,451.35450903326273,451.35450903326273,451.35450903326273,451.35450903326273,451.35450903326273,451.35450903326273,down,0,455.37125019542873,455.37125019542873,455.37125019542873,455.37125019542873,None,1.2883863486349583,,,,,,,,,,,ST02_120922,2022-12-09_14h59.08.284,Hippopolis_Updating,2022.2.2,60.00220172735682,
Camponello,stimuli/subj_files/ST02_120922_cityB.csv,./stimuli/arnedillo.png,./stimuli/street_plate2.png,./stimuli/videos/camponello_part,./stimuli/videos/campo-satellite.mp4,LÉPCSŐ UTCA,stimuli/objects/049a.jpg,object,left,0,stimuli/objects/049a.jpg,stimuli/objects/049a.jpg,stimuli/objects/049b.jpg,stimuli/objects/031a.jpg,stimuli/objects/031b.jpg,target,lure,dist1,dist2,0,0,0,0,0,54,54,75,,,,,,,,,,,,,457.33966749720275,458.3607636820525,458.3607636820525,458.3607636820525,458.3607636820525,458.3607636820525,458.3607636820525,down,0,462.38349793851376,462.38349793851376,462.38349793851376,462.38349793851376,None,2.7617977913469076,,,,,,,,,,,ST02_120922,2022-12-09_14h59.08.284,Hippopolis_Updating,2022.2.2,60.00220172735682,
Camponello,stimuli/subj_files/ST02_120922_cityB.csv,./stimuli/arnedillo.png,./stimuli/street_plate2.png,./stimuli/videos/camponello_part,./stimuli/videos/campo-satellite.mp4,LEVÉL UTCA,stimuli/scenes/038a.jpg,scene,right,0,stimuli/scenes/038a.jpg,stimuli/scenes/052a.jpg,stimuli/scenes/038a.jpg,stimuli/scenes/052b.jpg,stimuli/scenes/038b.jpg,dist1,target,dist2,lure,0,0,0,0,0,55,55,50,,,,,,,,,,,,,464.35121454298496,465.37708249874413,465.37708249874413,465.37708249874413,465.37708249874413,465.37708249874413,465.37708249874413,right,0,469.38458614982665,469.38458614982665,469.38458614982665,469.38458614982665,None,2.689010476693511,,,,,,,,,,,ST02_120922,2022-12-09_14h59.08.284,Hippopolis_Updating,2022.2.2,60.00220172735682,
Camponello,stimuli/subj_files/ST02_120922_cityB.csv,./stimuli/arnedillo.png,./stimuli/street_plate2.png,./stimuli/videos/camponello_part,./stimuli/videos/campo-satellite.mp4,FOLYÓ UTCA,stimuli/scenes/052a.jpg,scene,right,0,stimuli/scenes/052a.jpg,stimuli/scenes/052b.jpg,stimuli/scenes/052a.jpg,stimuli/scenes/019a.jpg,stimuli/scenes/019b.jpg,lure,target,dist1,dist2,0,0,0,0,0,56,56,9,,,,,,,,,,,,,471.365318370983,472.3911231942475,472.3911231942475,472.3911231942475,472.3911231942475,472.3911231942475,472.3911231942475,right,0,476.38981634378433,476.38981634378433,476.38981634378433,476.38981634378433,None,2.5872302129864693,,,,,,,,,,,ST02_120922,2022-12-09_14h59.08.284,Hippopolis_Updating,2022.2.2,60.00220172735682,
Camponello,stimuli/subj_files/ST02_120922_cityB.csv,./stimuli/arnedillo.png,./stimuli/street_plate2.png,./stimuli/videos/camponello_part,./stimuli/videos/campo-satellite.mp4,KRÉTA UTCA,stimuli/scenes/054a.jpg,scene,right,0,stimuli/scenes/054a.jpg,stimuli/scenes/033a.jpg,stimuli/scenes/054b.jpg,stimuli/scenes/033b.jpg,stimuli/scenes/054a.jpg,dist1,lure,dist2,target,0,0,0,0,0,57,57,34,,,,,,,,,,,,,478.37350717000663,479.4012856390327,479.4012856390327,479.4012856390327,479.4012856390327,479.4012856390327,479.4012856390327,down,0,483.3944099098444,483.3944099098444,483.3944099098444,483.3944099098444,None,1.9288184866309166,,,,,,,,,,,ST02_120922,2022-12-09_14h59.08.284,Hippopolis_Updating,2022.2.2,60.00220172735682,
Camponello,stimuli/subj_files/ST02_120922_cityB.csv,./stimuli/arnedillo.png,./stimuli/street_plate2.png,./stimuli/videos/camponello_part,./stimuli/videos/campo-satellite.mp4,ORVOS UTCA,stimuli/objects/062a.jpg,object,left,0,stimuli/objects/062a.jpg,stimuli/objects/062a.jpg,stimuli/scenes/093a.jpg,stimuli/scenes/093b.jpg,stimuli/objects/062b.jpg,target,dist1,dist2,lure,0,0,0,0,0,58,58,27,,,,,,,,,,,,,485.3837109785527,486.40698856301606,486.40698856301606,486.40698856301606,486.40698856301606,486.40698856301606,486.40698856301606,left,0,490.4166907183826,490.4166907183826,490.4166907183826,490.4166907183826,None,1.5148674231022596,,,,,,,,,,,ST02_120922,2022-12-09_14h59.08.284,Hippopolis_Updating,2022.2.2,60.00220172735682,
Camponello,stimuli/subj_files/ST02_120922_cityB.csv,./stimuli/arnedillo.png,./stimuli/street_plate2.png,./stimuli/videos/camponello_part,./stimuli/videos/campo-satellite.mp4,ASZTAL UTCA,stimuli/scenes/045a.jpg,scene,right,0,stimuli/scenes/045a.jpg,stimuli/objects/119a.jpg,stimuli/objects/119b.jpg,stimuli/scenes/045a.jpg,stimuli/scenes/045b.jpg,dist1,dist2,target,lure,0,0,0,0,0,59,59,62,,,,,,,,,,,,,492.39559142291546,493.4222549330443,493.4222549330443,493.4222549330443,493.4222549330443,493.4222549330443,493.4222549330443,right,0,497.4184037409723,497.4184037409723,497.4184037409723,497.4184037409723,None,1.9716829434037209,,,,,,,,,,,ST02_120922,2022-12-09_14h59.08.284,Hippopolis_Updating,2022.2.2,60.00220172735682,
Camponello,stimuli/subj_files/ST02_120922_cityB.csv,./stimuli/arnedillo.png,./stimuli/street_plate2.png,./stimuli/videos/camponello_part,./stimuli/videos/campo-satellite.mp4,LIGET UTCA,stimuli/scenes/093a.jpg,scene,right,0,stimuli/scenes/093a.jpg,stimuli/scenes/093a.jpg,stimuli/scenes/093b.jpg,stimuli/scenes/046b.jpg,stimuli/scenes/046a.jpg,target,lure,dist2,dist1,0,0,0,0,0,60,60,23,,,,,,,,,,,,,499.406790452078,500.4327949397266,500.4327949397266,500.4327949397266,500.4327949397266,500.4327949397266,500.4327949397266,down,0,504.4344827719033,504.4344827719033,504.4344827719033,504.4344827719033,None,2.065272541716695,,,,,,,,,,,ST02_120922,2022-12-09_14h59.08.284,Hippopolis_Updating,2022.2.2,60.00220172735682,
Camponello,stimuli/subj_files/ST02_120922_cityB.csv,./stimuli/arnedillo.png,./stimuli/street_plate2.png,./stimuli/videos/camponello_part,./stimuli/videos/campo-satellite.mp4,MOCSÁR UTCA,stimuli/objects/022a.jpg,object,left,0,stimuli/objects/022a.jpg,stimuli/scenes/062b.jpg,stimuli/objects/022b.jpg,stimuli/objects/022a.jpg,stimuli/scenes/062a.jpg,dist2,lure,target,dist1,0,0,0,0,0,61,61,66,,,,,,,,,,,,,506.4193336497992,507.44416191242635,507.44416191242635,507.44416191242635,507.44416191242635,507.44416191242635,507.44416191242635,down,0,511.4496465101838,511.4496465101838,511.4496465101838,511.4496465101838,None,1.0853383615612984,,,,,,,,,,,ST02_120922,2022-12-09_14h59.08.284,Hippopolis_Updating,2022.2.2,60.00220172735682,
Camponello,stimuli/subj_files/ST02_120922_cityB.csv,./stimuli/arnedillo.png,./stimuli/street_plate2.png,./stimuli/videos/camponello_part,./stimuli/videos/campo-satellite.mp4,DOMINÓ UTCA,stimuli/objects/108a.jpg,object,left,0,stimuli/objects/108a.jpg,stimuli/objects/070a.jpg,stimuli/objects/108b.jpg,stimuli/objects/070b.jpg,stimuli/objects/108a.jpg,dist1,lure,dist2,target,0,0,0,0,0,62,62,44,,,,,,,,,,,,,513.4237732663751,514.4492306951433,514.4492306951433,514.4492306951433,514.4492306951433,514.4492306951433,514.4492306951433,left,0,518.451236685738,518.451236685738,518.451236685738,518.451236685738,None,1.5205370709300041,,,,,,,,,,,ST02_120922,2022-12-09_14h59.08.284,Hippopolis_Updating,2022.2.2,60.00220172735682,
Camponello,stimuli/subj_files/ST02_120922_cityB.csv,./stimuli/arnedillo.png,./stimuli/street_plate2.png,./stimuli/videos/camponello_part,./stimuli/videos/campo-satellite.mp4,SZIKLA UTCA,stimuli/scenes/114a.jpg,scene,right,0,stimuli/scenes/114a.jpg,stimuli/scenes/114a.jpg,stimuli/scenes/053a.jpg,stimuli/scenes/053b.jpg,stimuli/scenes/114b.jpg,target,dist1,dist2,lure,0,0,0,0,0,63,63,46,,,,,,,,,,,,,520.4324195552617,521.4531751889735,521.4531751889735,521.4531751889735,521.4531751889735,521.4531751889735,521.4531751889735,down,0,525.4704553261399,525.4704553261399,525.4704553261399,525.4704553261399,None,2.628152435645461,,,,,,,,,,,ST02_120922,2022-12-09_14h59.08.284,Hippopolis_Updating,2022.2.2,60.00220172735682,
Camponello,stimuli/subj_files/ST02_120922_cityB.csv,./stimuli/arnedillo.png,./stimuli/street_plate2.png,./stimuli/videos/camponello_part,./stimuli/videos/campo-satellite.mp4,HEGEDŰ UTCA,stimuli/objects/119a.jpg,object,left,0,stimuli/objects/119a.jpg,stimuli/objects/119a.jpg,stimuli/objects/119b.jpg,stimuli/scenes/109b.jpg,stimuli/scenes/109a.jpg,target,lure,dist2,dist1,0,0,0,0,0,64,64,79,,,,,,,,,,,,,527.4419064931571,528.4707206133753,528.4707206133753,528.4707206133753,528.4707206133753,528.4707206133753,528.4707206133753,left,0,532.4718968402594,532.4718968402594,532.4718968402594,532.4718968402594,None,2.2189451530575752,,,,,,,,,,,ST02_120922,2022-12-09_14h59.08.284,Hippopolis_Updating,2022.2.2,60.00220172735682,
Camponello,stimuli/subj_files/ST02_120922_cityB.csv,./stimuli/arnedillo.png,./stimuli/street_plate2.png,./stimuli/videos/camponello_part,./stimuli/videos/campo-satellite.mp4,TRIATLON UTCA,stimuli/scenes/105a.jpg,scene,right,0,stimuli/scenes/105a.jpg,stimuli/scenes/105a.jpg,stimuli/scenes/105b.jpg,stimuli/scenes/065a.jpg,stimuli/scenes/065b.jpg,target,lure,dist1,dist2,0,0,0,0,0,65,65,8,,,,,,,,,,,,,534.4481763821095,535.4720336832106,535.4720336832106,535.4720336832106,535.4720336832106,535.4720336832106,535.4720336832106,left,0,539.4790932182223,539.4790932182223,539.4790932182223,539.4790932182223,None,2.3056770619004965,,,,,,,,,,,ST02_120922,2022-12-09_14h59.08.284,Hippopolis_Updating,2022.2.2,60.00220172735682,
Camponello,stimuli/subj_files/ST02_120922_cityB.csv,./stimuli/arnedillo.png,./stimuli/street_plate2.png,./stimuli/videos/camponello_part,./stimuli/videos/campo-satellite.mp4,MAJOM UTCA,stimuli/objects/073a.jpg,object,left,2,stimuli/scenes/020a.jpg,stimuli/scenes/021a.jpg,stimuli/scenes/020b.jpg,stimuli/scenes/021b.jpg,stimuli/scenes/020a.jpg,dist1,lure,dist2,target,0,0,0,0,0,66,66,73,,,,,,,,,,,,,541.4654730036855,542.485417842865,542.485417842865,542.485417842865,542.485417842865,542.485417842865,542.485417842865,left,0,546.5212737694383,546.5212737694383,546.5212737694383,546.5212737694383,None,1.4996707197278738,,,,,,,,,,,ST02_120922,2022-12-09_14h59.08.284,Hippopolis_Updating,2022.2.2,60.00220172735682,
Camponello,stimuli/subj_files/ST02_120922_cityB.csv,./stimuli/arnedillo.png,./stimuli/street_plate2.png,./stimuli/videos/camponello_part,./stimuli/videos/campo-satellite.mp4,FÜZET UTCA,stimuli/scenes/027a.jpg,scene,right,1,stimuli/scenes/097a.jpg,stimuli/scenes/097a.jpg,stimuli/scenes/100b.jpg,stimuli/scenes/097b.jpg,stimuli/scenes/100a.jpg,target,dist2,lure,dist1,0,0,0,0,0,67,67,24,,,,,,,,,,,,,548.4734867047518,549.5008745491505,549.5008745491505,549.5008745491505,549.5008745491505,549.5008745491505,549.5008745491505,down,0,553.5078333187848,553.5078333187848,553.5078333187848,553.5078333187848,None,1.0929294060915709,,,,,,,,,,,ST02_120922,2022-12-09_14h59.08.284,Hippopolis_Updating,2022.2.2,60.00220172735682,
Camponello,stimuli/subj_files/ST02_120922_cityB.csv,./stimuli/arnedillo.png,./stimuli/street_plate2.png,./stimuli/videos/camponello_part,./stimuli/videos/campo-satellite.mp4,KAKAS UTCA,stimuli/objects/011a.jpg,object,left,1,stimuli/objects/069a.jpg,stimuli/scenes/117b.jpg,stimuli/objects/069a.jpg,stimuli/scenes/117a.jpg,stimuli/objects/069b.jpg,dist2,target,dist1,lure,0,0,0,0,0,68,68,70,,,,,,,,,,,,,555.4848085809499,556.5109017062932,556.5109017062932,556.5109017062932,556.5109017062932,556.5109017062932,556.5109017062932,down,0,560.5418110769242,560.5418110769242,560.5418110769242,560.5418110769242,None,2.08274270221591,,,,,,,,,,,ST02_120922,2022-12-09_14h59.08.284,Hippopolis_Updating,2022.2.2,60.00220172735682,
Camponello,stimuli/subj_files/ST02_120922_cityB.csv,./stimuli/arnedillo.png,./stimuli/street_plate2.png,./stimuli/videos/camponello_part,./stimuli/videos/campo-satellite.mp4,TENISZ UTCA,stimuli/scenes/005a.jpg,scene,right,2,stimuli/objects/077a.jpg,stimuli/scenes/026b.jpg,stimuli/objects/077b.jpg,stimuli/scenes/026a.jpg,stimuli/objects/077a.jpg,dist2,lure,dist1,target,0,0,0,0,0,69,69,29,,,,,,,,,,,,,562.4980294629931,563.5210961848497,563.5210961848497,563.5210961848497,563.5210961848497,563.5210961848497,563.5210961848497,right,0,567.5534735061228,567.5534735061228,567.5534735061228,567.5534735061228,None,2.112157065421343,,,,,,,,,,,ST02_120922,2022-12-09_14h59.08.284,Hippopolis_Updating,2022.2.2,60.00220172735682,
Camponello,stimuli/subj_files/ST02_120922_cityB.csv,./stimuli/arnedillo.png,./stimuli/street_plate2.png,./stimuli/videos/camponello_part,./stimuli/videos/campo-satellite.mp4,PULÓVER UTCA,stimuli/objects/035a.jpg,object,left,0,stimuli/objects/035a.jpg,stimuli/objects/035a.jpg,stimuli/scenes/029b.jpg,stimuli/scenes/029a.jpg,stimuli/objects/035b.jpg,target,dist2,dist1,lure,0,0,0,0,0,70,70,69,,,,,,,,,,,,,569.5117333382368,570.538659337908,570.538659337908,570.538659337908,570.538659337908,570.538659337908,570.538659337908,down,0,574.5409436803311,574.5409436803311,574.5409436803311,574.5409436803311,None,1.2863259315490723,,,,,,,,,,,ST02_120922,2022-12-09_14h59.08.284,Hippopolis_Updating,2022.2.2,60.00220172735682,
Camponello,stimuli/subj_files/ST02_120922_cityB.csv,./stimuli/arnedillo.png,./stimuli/street_plate2.png,./stimuli/videos/camponello_part,./stimuli/videos/campo-satellite.mp4,LEMEZ UTCA,stimuli/scenes/041a.jpg,scene,right,0,stimuli/scenes/041a.jpg,stimuli/objects/057a.jpg,stimuli/scenes/041b.jpg,stimuli/objects/057b.jpg,stimuli/scenes/041a.jpg,dist1,lure,dist2,target,0,0,0,0,0,71,71,1,,,,,,,,,,,,,576.5138618666679,577.532096169889,577.532096169889,577.532096169889,577.532096169889,577.532096169889,577.532096169889,down,0,581.530454678461,581.530454678461,581.530454678461,581.530454678461,None,1.9730675425380468,,,,,,,,,,,ST02_120922,2022-12-09_14h59.08.284,Hippopolis_Updating,2022.2.2,60.00220172735682,
Camponello,stimuli/subj_files/ST02_120922_cityB.csv,./stimuli/arnedillo.png,./stimuli/street_plate2.png,./stimuli/videos/camponello_part,./stimuli/videos/campo-satellite.mp4,CSILLAG UTCA,stimuli/scenes/106a.jpg,scene,right,0,stimuli/scenes/106a.jpg,stimuli/objects/062b.jpg,stimuli/objects/062a.jpg,stimuli/scenes/106a.jpg,stimuli/scenes/106b.jpg,dist2,dist1,target,lure,0,0,0,0,0,72,72,37,,,,,,,,,,,,,583.5130476504564,584.5404678415507,584.5404678415507,584.5404678415507,584.5404678415507,584.5404678415507,584.5404678415507,left,0,588.5490736979991,588.5490736979991,588.5490736979991,588.5490736979991,None,3.5884422045201063,,,,,,,,,,,ST02_120922,2022-12-09_14h59.08.284,Hippopolis_Updating,2022.2.2,60.00220172735682,
Camponello,stimuli/subj_files/ST02_120922_cityB.csv,./stimuli/arnedillo.png,./stimuli/street_plate2.png,./stimuli/videos/camponello_part,./stimuli/videos/campo-satellite.mp4,KÁRTYA UTCA,stimuli/objects/088a.jpg,object,left,0,stimuli/objects/088a.jpg,stimuli/objects/088a.jpg,stimuli/scenes/114b.jpg,stimuli/scenes/114a.jpg,stimuli/objects/088b.jpg,target,dist2,dist1,lure,0,0,0,0,0,73,73,77,,,,,,,,,,,,,590.5140609107912,591.5372277759016,591.5372277759016,591.5372277759016,591.5372277759016,591.5372277759016,591.5372277759016,left,0,595.5547445882112,595.5547445882112,595.5547445882112,595.5547445882112,None,2.0474282391369343,,,,,,,,,,,ST02_120922,2022-12-09_14h59.08.284,Hippopolis_Updating,2022.2.2,60.00220172735682,
Camponello,stimuli/subj_files/ST02_120922_cityB.csv,./stimuli/arnedillo.png,./stimuli/street_plate2.png,./stimuli/videos/camponello_part,./stimuli/videos/campo-satellite.mp4,SZŐNYEG UTCA,stimuli/scenes/101a.jpg,scene,right,2,stimuli/objects/072a.jpg,stimuli/objects/072b.jpg,stimuli/objects/072a.jpg,stimuli/scenes/103a.jpg,stimuli/scenes/103b.jpg,lure,target,dist1,dist2,0,0,0,0,0,74,74,59,,,,,,,,,,,,,597.5172935109586,598.5402516908944,598.5402516908944,598.5402516908944,598.5402516908944,598.5402516908944,598.5402516908944,right,0,602.5465993322432,602.5465993322432,602.5465993322432,602.5465993322432,None,1.6041953023523092,598.5402516908944,,,,,,,,,,ST02_120922,2022-12-09_14h59.08.284,Hippopolis_Updating,2022.2.2,60.00220172735682,
Camponello,stimuli/subj_files/ST02_120922_cityB.csv,./stimuli/arnedillo.png,./stimuli/street_plate2.png,./stimuli/videos/camponello_part,./stimuli/videos/campo-satellite.mp4,ZONGORA UTCA,stimuli/objects/050a.jpg,object,left,0,stimuli/objects/050a.jpg,stimuli/objects/050a.jpg,stimuli/scenes/045b.jpg,stimuli/objects/050b.jpg,stimuli/scenes/045a.jpg,target,dist2,lure,dist1,0,0,0,0,0,75,75,28,,,,,,,,,,,,,604.5313873868436,605.551745865494,605.551745865494,605.551745865494,605.551745865494,605.551745865494,605.551745865494,left,0,609.5702774915844,609.5702774915844,609.5702774915844,609.5702774915844,None,1.824981227517128,,,,,,,,,,,ST02_120922,2022-12-09_14h59.08.284,Hippopolis_Updating,2022.2.2,60.00220172735682,
Camponello,stimuli/subj_files/ST02_120922_cityB.csv,./stimuli/arnedillo.png,./stimuli/street_plate2.png,./stimuli/videos/camponello_part,./stimuli/videos/campo-satellite.mp4,KATONA UTCA,stimuli/scenes/017a.jpg,scene,right,1,stimuli/scenes/100a.jpg,stimuli/scenes/076a.jpg,stimuli/scenes/100a.jpg,stimuli/scenes/100b.jpg,stimuli/scenes/076b.jpg,dist1,target,lure,dist2,0,0,0,0,0,76,76,48,,,,,,,,,,,,,611.5455649252981,612.572351904586,612.572351904586,612.572351904586,612.572351904586,612.572351904586,612.572351904586,down,0,616.5722212828696,616.5722212828696,616.5722212828696,616.5722212828696,None,1.8283248580992222,,,,,,,,,,,ST02_120922,2022-12-09_14h59.08.284,Hippopolis_Updating,2022.2.2,60.00220172735682,
Camponello,stimuli/subj_files/ST02_120922_cityB.csv,./stimuli/arnedillo.png,./stimuli/street_plate2.png,./stimuli/videos/camponello_part,./stimuli/videos/campo-satellite.mp4,KERÉK UTCA,stimuli/scenes/077a.jpg,scene,right,0,stimuli/scenes/077a.jpg,stimuli/scenes/077a.jpg,stimuli/scenes/041b.jpg,stimuli/scenes/041a.jpg,stimuli/scenes/077b.jpg,target,dist2,dist1,lure,0,0,0,0,0,77,77,39,,,,,,,,,,,,,618.5469874683768,619.5676078125834,619.5676078125834,619.5676078125834,619.5676078125834,619.5676078125834,619.5676078125834,right,0,623.5644762907177,623.5644762907177,623.5644762907177,623.5644762907177,None,1.776621287688613,,,,,,,,,,,ST02_120922,2022-12-09_14h59.08.284,Hippopolis_Updating,2022.2.2,60.00220172735682,
Camponello,stimuli/subj_files/ST02_120922_cityB.csv,./stimuli/arnedillo.png,./stimuli/street_plate2.png,./stimuli/videos/camponello_part,./stimuli/videos/campo-satellite.mp4,MANDARIN UTCA,stimuli/scenes/071a.jpg,scene,right,0,stimuli/scenes/071a.jpg,stimuli/scenes/040b.jpg,stimuli/scenes/071a.jpg,stimuli/scenes/040a.jpg,stimuli/scenes/071b.jpg,dist2,target,dist1,lure,0,0,0,0,0,78,78,19,,,,,,,,,,,,,625.5720695108175,626.6001322399825,626.6001322399825,626.6001322399825,626.6001322399825,626.6001322399825,626.6001322399825,right,0,630.6047130525112,630.6047130525112,630.6047130525112,630.6047130525112,None,2.5362121034413576,,,,,,,,,,,ST02_120922,2022-12-09_14h59.08.284,Hippopolis_Updating,2022.2.2,60.00220172735682,
Camponello,stimuli/subj_files/ST02_120922_cityB.csv,./stimuli/arnedillo.png,./stimuli/street_plate2.png,./stimuli/videos/camponello_part,./stimuli/videos/campo-satellite.mp4,RIBIZLI UTCA,stimuli/scenes/029a.jpg,scene,right,0,stimuli/scenes/029a.jpg,stimuli/scenes/029b.jpg,stimuli/scenes/029a.jpg,stimuli/scenes/086a.jpg,stimuli/scenes/086b.jpg,lure,target,dist1,dist2,0,0,0,0,0,79,79,32,,,,,,,,,,,,,632.5736177004874,633.6009141094983,633.6009141094983,633.6009141094983,633.6009141094983,633.6009141094983,633.6009141094983,right,0,637.5887428745627,637.5887428745627,637.5887428745627,637.5887428745627,None,1.7752901818603277,,,,,,,,,,,ST02_120922,2022-12-09_14h59.08.284,Hippopolis_Updating,2022.2.2,60.00220172735682,
Hippopolis,stimuli/subj_files/ST02_120922_cityA.csv,./stimuli/seattle.jpg,./stimuli/street_plate1.png,./stimuli/videos/hippopolis_part,./stimuli/videos/hippo-satellite.mp4,TERASZ UTCA,stimuli/scenes/001a.jpg,scene,right,1,stimuli/scenes/087a.jpg,stimuli/scenes/087b.jpg,stimuli/objects/068b.jpg,stimuli/scenes/087a.jpg,stimuli/objects/068a.jpg,lure,dist2,target,dist1,0,1,1,1,0,0,0,22,,,,,643.8969610948116,643.8969610948116,0.03439170867204666,647.0805204883218,647.0805204883218,None,654.4954866748303,654.4954866748303,656.913214288652,657.892462387681,657.892462387681,657.892462387681,657.892462387681,657.892462387681,657.892462387681,left,0,661.9127891417593,661.9127891417593,661.9127891417593,661.9127891417593,None,1.9790774304419756,,,,,639.5802816357464,639.5802816357464,space,4.259792422875762,,,ST02_120922,2022-12-09_14h59.08.284,Hippopolis_Updating,2022.2.2,60.00220172735682,
Hippopolis,stimuli/subj_files/ST02_120922_cityA.csv,./stimuli/seattle.jpg,./stimuli/street_plate1.png,./stimuli/videos/hippopolis_part,./stimuli/videos/hippo-satellite.mp4,ZEBRA UTCA,stimuli/objects/004a.jpg,object,left,2,stimuli/scenes/081a.jpg,stimuli/scenes/081b.jpg,stimuli/scenes/003a.jpg,stimuli/scenes/003b.jpg,stimuli/scenes/081a.jpg,lure,dist1,dist2,target,0,1,1,1,0,1,1,44,,,,,,,,,,,,,663.8658399283886,664.8879957124591,664.8879957124591,664.8879957124591,664.8879957124591,664.8879957124591,664.8879957124591,down,0,668.9023066721857,668.9023066721857,668.9023066721857,668.9023066721857,None,3.256305107846856,,,,,,,,,,,ST02_120922,2022-12-09_14h59.08.284,Hippopolis_Updating,2022.2.2,60.00220172735682,
Hippopolis,stimuli/subj_files/ST02_120922_cityA.csv,./stimuli/seattle.jpg,./stimuli/street_plate1.png,./stimuli/videos/hippopolis_part,./stimuli/videos/hippo-satellite.mp4,BOHÓC UTCA,stimuli/objects/095a.jpg,object,left,0,stimuli/objects/095a.jpg,stimuli/objects/095a.jpg,stimuli/objects/095b.jpg,stimuli/scenes/072a.jpg,stimuli/scenes/072b.jpg,target,lure,dist1,dist2,0,1,1,1,0,2,2,24,,,,,,,,,,,,,670.8785644434392,671.9028422255069,671.9028422255069,671.9028422255069,671.9028422255069,671.9028422255069,671.9028422255069,left,0,675.9083924461156,675.9083924461156,675.9083924461156,675.9083924461156,None,1.5373087134212255,,,,,,,,,,,ST02_120922,2022-12-09_14h59.08.284,Hippopolis_Updating,2022.2.2,60.00220172735682,
Hippopolis,stimuli/subj_files/ST02_120922_cityA.csv,./stimuli/seattle.jpg,./stimuli/street_plate1.png,./stimuli/videos/hippopolis_part,./stimuli/videos/hippo-satellite.mp4,SZŐLŐ UTCA,stimuli/scenes/004a.jpg,scene,right,2,stimuli/objects/034a.jpg,stimuli/scenes/016a.jpg,stimuli/scenes/016b.jpg,stimuli/objects/034b.jpg,stimuli/objects/034a.jpg,dist1,dist2,lure,target,0,1,1,1,0,3,3,54,,,,,,,,,,,,,677.8901628050953,678.9224007949233,678.9224007949233,678.9224007949233,678.9224007949233,678.9224007949233,678.9224007949233,down,0,682.9610716402531,682.9610716402531,682.9610716402531,682.9610716402531,None,1.6691181976348162,,,,,,,,,,,ST02_120922,2022-12-09_14h59.08.284,Hippopolis_Updating,2022.2.2,60.00220172735682,
Hippopolis,stimuli/subj_files/ST02_120922_cityA.csv,./stimuli/seattle.jpg,./stimuli/street_plate1.png,./stimuli/videos/hippopolis_part,./stimuli/videos/hippo-satellite.mp4,HORDÓ UTCA,stimuli/scenes/085a.jpg,scene,right,1,stimuli/scenes/055a.jpg,stimuli/scenes/055b.jpg,stimuli/objects/009a.jpg,stimuli/scenes/055a.jpg,stimuli/objects/009b.jpg,lure,dist1,target,dist2,0,1,1,1,0,4,4,32,,,,,,,,,,,,,684.8905528075993,685.9203506410122,685.9203506410122,685.9203506410122,685.9203506410122,685.9203506410122,685.9203506410122,down,0,689.9332819767296,689.9332819767296,689.9332819767296,689.9332819767296,None,1.2953584901988506,,,,,,,,,,,ST02_120922,2022-12-09_14h59.08.284,Hippopolis_Updating,2022.2.2,60.00220172735682,
Hippopolis,stimuli/subj_files/ST02_120922_cityA.csv,./stimuli/seattle.jpg,./stimuli/street_plate1.png,./stimuli/videos/hippopolis_part,./stimuli/videos/hippo-satellite.mp4,TOBOZ UTCA,stimuli/scenes/030a.jpg,scene,right,2,stimuli/objects/061a.jpg,stimuli/objects/061b.jpg,stimuli/scenes/089b.jpg,stimuli/scenes/089a.jpg,stimuli/objects/061a.jpg,lure,dist2,dist1,target,0,1,1,1,0,5,5,34,,,,,,,,,,,,,691.896675279364,692.9175671339035,692.9175671339035,692.9175671339035,692.9175671339035,692.9175671339035,692.9175671339035,down,0,696.94120859541,696.94120859541,696.94120859541,696.94120859541,None,2.2342867869883776,,,,,,,,,,,ST02_120922,2022-12-09_14h59.08.284,Hippopolis_Updating,2022.2.2,60.00220172735682,
Hippopolis,stimuli/subj_files/ST02_120922_cityA.csv,./stimuli/seattle.jpg,./stimuli/street_plate1.png,./stimuli/videos/hippopolis_part,./stimuli/videos/hippo-satellite.mp4,SZAPPAN UTCA,stimuli/objects/118a.jpg,object,left,1,stimuli/objects/029a.jpg,stimuli/objects/101a.jpg,stimuli/objects/101b.jpg,stimuli/objects/029a.jpg,stimuli/objects/029b.jpg,dist1,dist2,target,lure,0,1,1,1,0,6,6,6,,,,,,,,,,,,,698.9042352233082,699.9341098740697,699.9341098740697,699.9341098740697,699.9341098740697,699.9341098740697,699.9341098740697,left,0,703.9563001804054,703.9563001804054,703.9563001804054,703.9563001804054,None,1.2968674935400486,,,,,,,,,,,ST02_120922,2022-12-09_14h59.08.284,Hippopolis_Updating,2022.2.2,60.00220172735682,
Hippopolis,stimuli/subj_files/ST02_120922_cityA.csv,./stimuli/seattle.jpg,./stimuli/street_plate1.png,./stimuli/videos/hippopolis_part,./stimuli/videos/hippo-satellite.mp4,MÁRVÁNY UTCA,stimuli/objects/024a.jpg,object,left,0,stimuli/objects/024a.jpg,stimuli/scenes/060b.jpg,stimuli/objects/024b.jpg,stimuli/objects/024a.jpg,stimuli/scenes/060a.jpg,dist2,lure,target,dist1,0,1,1,1,0,7,7,30,,,,,,,,,,,,,705.906713321805,706.9370202720165,706.9370202720165,706.9370202720165,706.9370202720165,706.9370202720165,706.9370202720165,left,0,710.9401962701231,710.9401962701231,710.9401962701231,710.9401962701231,None,1.1585576627403498,,,,,,,,,,,ST02_120922,2022-12-09_14h59.08.284,Hippopolis_Updating,2022.2.2,60.00220172735682,
Hippopolis,stimuli/subj_files/ST02_120922_cityA.csv,./stimuli/seattle.jpg,./stimuli/street_plate1.png,./stimuli/videos/hippopolis_part,./stimuli/videos/hippo-satellite.mp4,SZOBOR UTCA,stimuli/scenes/010a.jpg,scene,right,2,stimuli/objects/038a.jpg,stimuli/scenes/111a.jpg,stimuli/scenes/111b.jpg,stimuli/objects/038b.jpg,stimuli/objects/038a.jpg,dist1,dist2,lure,target,0,1,1,1,0,8,8,52,,,,,,,,,,,,,712.9131384026259,713.9400466755033,713.9400466755033,713.9400466755033,713.9400466755033,713.9400466755033,713.9400466755033,right,0,717.9784313961864,717.9784313961864,717.9784313961864,717.9784313961864,None,1.547009002417326,,,,,,,,,,,ST02_120922,2022-12-09_14h59.08.284,Hippopolis_Updating,2022.2.2,60.00220172735682,
Hippopolis,stimuli/subj_files/ST02_120922_cityA.csv,./stimuli/seattle.jpg,./stimuli/street_plate1.png,./stimuli/videos/hippopolis_part,./stimuli/videos/hippo-satellite.mp4,TÜKÖR UTCA,stimuli/objects/064a.jpg,object,left,0,stimuli/objects/064a.jpg,stimuli/objects/041a.jpg,stimuli/objects/041b.jpg,stimuli/objects/064a.jpg,stimuli/objects/064b.jpg,dist1,dist2,target,lure,0,1,1,1,0,9,9,16,,,,,,,,,,,,,719.924687936902,720.9329044148326,720.9329044148326,720.9329044148326,720.9329044148326,720.9329044148326,720.9329044148326,left,0,724.9453872777522,724.9453872777522,724.9453872777522,724.9453872777522,None,3.066525274887681,720.9329044148326,,,,,,,,,,ST02_120922,2022-12-09_14h59.08.284,Hippopolis_Updating,2022.2.2,60.00220172735682,
Hippopolis,stimuli/subj_files/ST02_120922_cityA.csv,./stimuli/seattle.jpg,./stimuli/street_plate1.png,./stimuli/videos/hippopolis_part,./stimuli/videos/hippo-satellite.mp4,LÁNDZSA UTCA,stimuli/scenes/042a.jpg,scene,right,1,stimuli/scenes/073a.jpg,stimuli/scenes/073a.jpg,stimuli/objects/001a.jpg,stimuli/objects/001b.jpg,stimuli/scenes/073b.jpg,target,dist1,dist2,lure,0,1,1,1,0,10,10,18,,,,,,,,,,,,,726.9442688990384,727.9685976840556,727.9685976840556,727.9685976840556,727.9685976840556,727.9685976840556,727.9685976840556,left,0,731.9966370873153,731.9966370873153,731.9966370873153,731.9966370873153,None,1.7903372924774885,,,,,,,,,,,ST02_120922,2022-12-09_14h59.08.284,Hippopolis_Updating,2022.2.2,60.00220172735682,
Hippopolis,stimuli/subj_files/ST02_120922_cityA.csv,./stimuli/seattle.jpg,./stimuli/street_plate1.png,./stimuli/videos/hippopolis_part,./stimuli/videos/hippo-satellite.mp4,MOGYORÓ UTCA,stimuli/objects/052a.jpg,object,left,1,stimuli/objects/090a.jpg,stimuli/scenes/007b.jpg,stimuli/objects/090b.jpg,stimuli/scenes/007a.jpg,stimuli/objects/090a.jpg,dist2,lure,dist1,target,0,1,1,1,0,11,11,31,,,,,,,,,,,,,733.9575146604329,734.9839284345508,734.9839284345508,734.9839284345508,734.9839284345508,734.9839284345508,734.9839284345508,down,0,739.0133266244084,739.0133266244084,739.0133266244084,739.0133266244084,None,1.7356735654175282,,,,,,,,,,,ST02_120922,2022-12-09_14h59.08.284,Hippopolis_Updating,2022.2.2,60.00220172735682,
Hippopolis,stimuli/subj_files/ST02_120922_cityA.csv,./stimuli/seattle.jpg,./stimuli/street_plate1.png,./stimuli/videos/hippopolis_part,./stimuli/videos/hippo-satellite.mp4,KÖMÉNYMAG UTCA,stimuli/scenes/058a.jpg,scene,right,2,stimuli/objects/033a.jpg,stimuli/objects/033b.jpg,stimuli/objects/033a.jpg,stimuli/objects/114a.jpg,stimuli/objects/114b.jpg,lure,target,dist1,dist2,0,1,1,1,0,12,12,9,,,,,,,,,,,,,740.9587170109153,741.9828131645918,741.9828131645918,741.9828131645918,741.9828131645918,741.9828131645918,741.9828131645918,down,0,746.0065501052886,746.0065501052886,746.0065501052886,746.0065501052886,None,1.1842461712658405,,,,,,,,,,,ST02_120922,2022-12-09_14h59.08.284,Hippopolis_Updating,2022.2.2,60.00220172735682,
Hippopolis,stimuli/subj_files/ST02_120922_cityA.csv,./stimuli/seattle.jpg,./stimuli/street_plate1.png,./stimuli/videos/hippopolis_part,./stimuli/videos/hippo-satellite.mp4,MOTOR UTCA,stimuli/scenes/028a.jpg,scene,right,0,stimuli/scenes/028a.jpg,stimuli/scenes/028a.jpg,stimuli/scenes/028b.jpg,stimuli/scenes/080a.jpg,stimuli/scenes/080b.jpg,target,lure,dist1,dist2,0,1,1,1,0,13,13,1,,,,,,,,,,,,,747.9638060089201,748.9794309698045,748.9794309698045,748.9794309698045,748.9794309698045,748.9794309698045,748.9794309698045,down,0,752.9911814145744,752.9911814145744,752.9911814145744,752.9911814145744,None,2.460005274042487,,,,,,,,,,,ST02_120922,2022-12-09_14h59.08.284,Hippopolis_Updating,2022.2.2,60.00220172735682,
Hippopolis,stimuli/subj_files/ST02_120922_cityA.csv,./stimuli/seattle.jpg,./stimuli/street_plate1.png,./stimuli/videos/hippopolis_part,./stimuli/videos/hippo-satellite.mp4,TIGRIS UTCA,stimuli/objects/087a.jpg,object,left,2,stimuli/scenes/063a.jpg,stimuli/scenes/047b.jpg,stimuli/scenes/063b.jpg,stimuli/scenes/047a.jpg,stimuli/scenes/063a.jpg,dist2,lure,dist1,target,0,1,1,1,0,14,14,13,,,,,,,,,,,,,754.9775117505342,756.0100529696792,756.0100529696792,756.0100529696792,756.0100529696792,756.0100529696792,756.0100529696792,right,0,760.0122427660972,760.0122427660972,760.0122427660972,760.0122427660972,None,1.6527346912771463,,,,,,,,,,,ST02_120922,2022-12-09_14h59.08.284,Hippopolis_Updating,2022.2.2,60.00220172735682,
Hippopolis,stimuli/subj_files/ST02_120922_cityA.csv,./stimuli/seattle.jpg,./stimuli/street_plate1.png,./stimuli/videos/hippopolis_part,./stimuli/videos/hippo-satellite.mp4,REPÜLŐ UTCA,stimuli/scenes/072a.jpg,scene,right,0,stimuli/scenes/072a.jpg,stimuli/objects/064b.jpg,stimuli/scenes/072a.jpg,stimuli/objects/064a.jpg,stimuli/scenes/072b.jpg,dist2,target,dist1,lure,0,1,1,1,0,15,15,71,,,,,,,,,,,,,761.9945185128599,763.0195122305304,763.0195122305304,763.0195122305304,763.0195122305304,763.0195122305304,763.0195122305304,down,0,767.006066178903,767.006066178903,767.006066178903,767.006066178903,None,2.8350071404129267,,,,,,,,,,,ST02_120922,2022-12-09_14h59.08.284,Hippopolis_Updating,2022.2.2,60.00220172735682,
Hippopolis,stimuli/subj_files/ST02_120922_cityA.csv,./stimuli/seattle.jpg,./stimuli/street_plate1.png,./stimuli/videos/hippopolis_part,./stimuli/videos/hippo-satellite.mp4,TÁSKA UTCA,stimuli/objects/008a.jpg,object,left,0,stimuli/objects/008a.jpg,stimuli/objects/008a.jpg,stimuli/scenes/090b.jpg,stimuli/objects/008b.jpg,stimuli/scenes/090a.jpg,target,dist2,lure,dist1,0,1,1,1,0,16,16,0,,,,,,,,,,,,,768.9900188725442,770.0202564690262,770.0202564690262,770.0202564690262,770.0202564690262,770.0202564690262,770.0202564690262,left,0,774.0079829115421,774.0079829115421,774.0079829115421,774.0079829115421,None,1.6260969936847687,,,,,,,,,,,ST02_120922,2022-12-09_14h59.08.284,Hippopolis_Updating,2022.2.2,60.00220172735682,
Hippopolis,stimuli/subj_files/ST02_120922_cityA.csv,./stimuli/seattle.jpg,./stimuli/street_plate1.png,./stimuli/videos/hippopolis_part,./stimuli/videos/hippo-satellite.mp4,TELEFON UTCA,stimuli/scenes/079a.jpg,scene,right,2,stimuli/objects/079a.jpg,stimuli/objects/079a.jpg,stimuli/objects/079b.jpg,stimuli/objects/034a.jpg,stimuli/objects/034b.jpg,target,lure,dist1,dist2,0,1,1,1,0,17,17,43,,,,,,,,,,,,,776.0059088096023,777.0368990432471,777.0368990432471,777.0368990432471,777.0368990432471,777.0368990432471,777.0368990432471,right,0,781.0677757561207,781.0677757561207,781.0677757561207,781.0677757561207,None,1.809596361592412,,,,,,,,,,,ST02_120922,2022-12-09_14h59.08.284,Hippopolis_Updating,2022.2.2,60.00220172735682,
Hippopolis,stimuli/subj_files/ST02_120922_cityA.csv,./stimuli/seattle.jpg,./stimuli/street_plate1.png,./stimuli/videos/hippopolis_part,./stimuli/videos/hippo-satellite.mp4,VITORLA UTCA,stimuli/scenes/034a.jpg,scene,right,1,stimuli/scenes/102a.jpg,stimuli/scenes/055a.jpg,stimuli/scenes/055b.jpg,stimuli/scenes/102b.jpg,stimuli/scenes/102a.jpg,dist1,dist2,lure,target,0,1,1,1,0,18,18,57,,,,,,,,,,,,,783.0077253989875,784.0403477922082,784.0403477922082,784.0403477922082,784.0403477922082,784.0403477922082,784.0403477922082,down,0,788.0293764192611,788.0293764192611,788.0293764192611,788.0293764192611,None,1.4316744580864906,,,,,,,,,,,ST02_120922,2022-12-09_14h59.08.284,Hippopolis_Updating,2022.2.2,60.00220172735682,
Hippopolis,stimuli/subj_files/ST02_120922_cityA.csv,./stimuli/seattle.jpg,./stimuli/street_plate1.png,./stimuli/videos/hippopolis_part,./stimuli/videos/hippo-satellite.mp4,FÉSZEK UTCA,stimuli/objects/015a.jpg,object,left,2,stimuli/scenes/089a.jpg,stimuli/scenes/089a.jpg,stimuli/objects/006b.jpg,stimuli/scenes/089b.jpg,stimuli/objects/006a.jpg,target,dist2,lure,dist1,0,1,1,1,0,19,19,48,,,,,,,,,,,,,790.0154371131212,791.033680126071,791.033680126071,791.033680126071,791.033680126071,791.033680126071,791.033680126071,left,0,795.0548976045102,795.0548976045102,795.0548976045102,795.0548976045102,None,2.213133377954364,791.033680126071,,,,,,,,,,ST02_120922,2022-12-09_14h59.08.284,Hippopolis_Updating,2022.2.2,60.00220172735682,
Hippopolis,stimuli/subj_files/ST02_120922_cityA.csv,./stimuli/seattle.jpg,./stimuli/street_plate1.png,./stimuli/videos/hippopolis_part,./stimuli/videos/hippo-satellite.mp4,TALICSKA UTCA,stimuli/scenes/012a.jpg,scene,right,2,stimuli/objects/060a.jpg,stimuli/objects/060b.jpg,stimuli/objects/061a.jpg,stimuli/objects/060a.jpg,stimuli/objects/061b.jpg,lure,dist1,target,dist2,0,1,1,1,0,20,20,41,,,,,,,,,,,,,797.0284160319716,798.0504293758422,798.0504293758422,798.0504293758422,798.0504293758422,798.0504293758422,798.0504293758422,right,0,802.0614937394857,802.0614937394857,802.0614937394857,802.0614937394857,None,2.0119448974728584,,,,,,,,,,,ST02_120922,2022-12-09_14h59.08.284,Hippopolis_Updating,2022.2.2,60.00220172735682,
Hippopolis,stimuli/subj_files/ST02_120922_cityA.csv,./stimuli/seattle.jpg,./stimuli/street_plate1.png,./stimuli/videos/hippopolis_part,./stimuli/videos/hippo-satellite.mp4,KOKTÉL UTCA,stimuli/objects/109a.jpg,object,left,2,stimuli/scenes/016a.jpg,stimuli/scenes/016a.jpg,stimuli/scenes/016b.jpg,stimuli/scenes/063b.jpg,stimuli/scenes/063a.jpg,target,lure,dist2,dist1,0,1,1,1,0,21,21,46,,,,,,,,,,,,,804.041275523603,805.068332457915,805.068332457915,805.068332457915,805.068332457915,805.068332457915,805.068332457915,left,0,809.0838638059795,809.0838638059795,809.0838638059795,809.0838638059795,None,3.0901011135429144,,,,,,,,,,,ST02_120922,2022-12-09_14h59.08.284,Hippopolis_Updating,2022.2.2,60.00220172735682,
Hippopolis,stimuli/subj_files/ST02_120922_cityA.csv,./stimuli/seattle.jpg,./stimuli/street_plate1.png,./stimuli/videos/hippopolis_part,./stimuli/videos/hippo-satellite.mp4,KOCSI UTCA,stimuli/objects/106a.jpg,object,left,2,stimuli/scenes/002a.jpg,stimuli/scenes/002b.jpg,stimuli/objects/110b.jpg,stimuli/scenes/002a.jpg,stimuli/objects/110a.jpg,lure,dist2,target,dist1,0,1,1,1,0,22,22,77,,,,,,,,,,,,,811.0618106536567,812.0833425596356,812.0833425596356,812.0833425596356,812.0833425596356,812.0833425596356,812.0833425596356,down,0,816.1049061883241,816.1049061883241,816.1049061883241,816.1049061883241,None,2.4267580695450306,,,,,,,,,,,ST02_120922,2022-12-09_14h59.08.284,Hippopolis_Updating,2022.2.2,60.00220172735682,
Hippopolis,stimuli/subj_files/ST02_120922_cityA.csv,./stimuli/seattle.jpg,./stimuli/street_plate1.png,./stimuli/videos/hippopolis_part,./stimuli/videos/hippo-satellite.mp4,SALÁTA UTCA,stimuli/scenes/108a.jpg,scene,right,2,stimuli/objects/093a.jpg,stimuli/objects/093b.jpg,stimuli/scenes/044b.jpg,stimuli/scenes/044a.jpg,stimuli/objects/093a.jpg,lure,dist2,dist1,target,0,1,1,1,0,23,23,8,,,,,,,,,,,,,818.0608919411898,819.0820263810456,819.0820263810456,819.0820263810456,819.0820263810456,819.0820263810456,819.0820263810456,right,0,823.0807733368129,823.0807733368129,823.0807733368129,823.0807733368129,None,1.7964146677404642,,,,,,,,,,,ST02_120922,2022-12-09_14h59.08.284,Hippopolis_Updating,2022.2.2,60.00220172735682,
Hippopolis,stimuli/subj_files/ST02_120922_cityA.csv,./stimuli/seattle.jpg,./stimuli/street_plate1.png,./stimuli/videos/hippopolis_part,./stimuli/videos/hippo-satellite.mp4,TÉRKÉP UTCA,stimuli/scenes/009a.jpg,scene,right,1,stimuli/scenes/064a.jpg,stimuli/objects/027b.jpg,stimuli/objects/027a.jpg,stimuli/scenes/064a.jpg,stimuli/scenes/064b.jpg,dist2,dist1,target,lure,0,1,1,1,0,24,24,76,,,,,,,,,,,,,825.0645820330828,826.0851401761174,826.0851401761174,826.0851401761174,826.0851401761174,826.0851401761174,826.0851401761174,right,0,830.0882810298353,830.0882810298353,830.0882810298353,830.0882810298353,None,3.76931419223547,826.0851401761174,,,,,,,,,,ST02_120922,2022-12-09_14h59.08.284,Hippopolis_Updating,2022.2.2,60.00220172735682,
Hippopolis,stimuli/subj_files/ST02_120922_cityA.csv,./stimuli/seattle.jpg,./stimuli/street_plate1.png,./stimuli/videos/hippopolis_part,./stimuli/videos/hippo-satellite.mp4,KÓKUSZ UTCA,stimuli/scenes/095a.jpg,scene,right,2,stimuli/objects/046a.jpg,stimuli/scenes/015a.jpg,stimuli/objects/046b.jpg,stimuli/objects/046a.jpg,stimuli/scenes/015b.jpg,dist1,lure,target,dist2,0,1,1,1,0,25,25,51,,,,,,,,,,,,,832.0698293317109,833.0990645550191,833.0990645550191,833.0990645550191,833.0990645550191,833.0990645550191,833.0990645550191,left,0,837.1033760365099,837.1033760365099,837.1033760365099,837.1033760365099,None,1.666892634704709,,,,,,,,,,,ST02_120922,2022-12-09_14h59.08.284,Hippopolis_Updating,2022.2.2,60.00220172735682,
Hippopolis,stimuli/subj_files/ST02_120922_cityA.csv,./stimuli/seattle.jpg,./stimuli/street_plate1.png,./stimuli/videos/hippopolis_part,./stimuli/videos/hippo-satellite.mp4,LAKAT UTCA,stimuli/objects/020a.jpg,object,left,1,stimuli/objects/001a.jpg,stimuli/objects/001a.jpg,stimuli/objects/102b.jpg,stimuli/objects/102a.jpg,stimuli/objects/001b.jpg,target,dist2,dist1,lure,0,1,1,1,0,26,26,64,,,,,,,,,,,,,839.071616685018,840.1012801639736,840.1012801639736,840.1012801639736,840.1012801639736,840.1012801639736,840.1012801639736,left,0,844.1276364009827,844.1276364009827,844.1276364009827,844.1276364009827,None,1.4641102477908134,,,,,,,,,,,ST02_120922,2022-12-09_14h59.08.284,Hippopolis_Updating,2022.2.2,60.00220172735682,
Hippopolis,stimuli/subj_files/ST02_120922_cityA.csv,./stimuli/seattle.jpg,./stimuli/street_plate1.png,./stimuli/videos/hippopolis_part,./stimuli/videos/hippo-satellite.mp4,SIVATAG UTCA,stimuli/scenes/018a.jpg,scene,right,2,stimuli/objects/096a.jpg,stimuli/objects/096b.jpg,stimuli/objects/112a.jpg,stimuli/objects/096a.jpg,stimuli/objects/112b.jpg,lure,dist1,target,dist2,0,1,1,1,0,27,27,65,,,,,,,,,,,,,846.0772922411561,847.0994760170579,847.0994760170579,847.0994760170579,847.0994760170579,847.0994760170579,847.0994760170579,down,0,851.1262564659119,851.1262564659119,851.1262564659119,851.1262564659119,None,1.5860350169241428,,,,,,,,,,,ST02_120922,2022-12-09_14h59.08.284,Hippopolis_Updating,2022.2.2,60.00220172735682,
Hippopolis,stimuli/subj_files/ST02_120922_cityA.csv,./stimuli/seattle.jpg,./stimuli/street_plate1.png,./stimuli/videos/hippopolis_part,./stimuli/videos/hippo-satellite.mp4,ECSET UTCA,stimuli/objects/067a.jpg,object,left,1,stimuli/objects/009a.jpg,stimuli/scenes/073a.jpg,stimuli/objects/009a.jpg,stimuli/objects/009b.jpg,stimuli/scenes/073b.jpg,dist1,target,lure,dist2,0,1,1,1,0,28,28,62,,,,,,,,,,,,,853.0886265579611,854.1178291253746,854.1178291253746,854.1178291253746,854.1178291253746,854.1178291253746,854.1178291253746,left,0,858.1497592180967,858.1497592180967,858.1497592180967,858.1497592180967,None,1.5916505493223667,,,,,,,,,,,ST02_120922,2022-12-09_14h59.08.284,Hippopolis_Updating,2022.2.2,60.00220172735682,
Hippopolis,stimuli/subj_files/ST02_120922_cityA.csv,./stimuli/seattle.jpg,./stimuli/street_plate1.png,./stimuli/videos/hippopolis_part,./stimuli/videos/hippo-satellite.mp4,KERET UTCA,stimuli/objects/063a.jpg,object,left,0,stimuli/objects/063a.jpg,stimuli/scenes/028a.jpg,stimuli/objects/063b.jpg,stimuli/scenes/028b.jpg,stimuli/objects/063a.jpg,dist1,lure,dist2,target,0,1,1,1,0,29,29,72,,,,,,,,,,,,,860.0944731682539,861.1176534071565,861.1176534071565,861.1176534071565,861.1176534071565,861.1176534071565,861.1176534071565,down,0,865.1359160132706,865.1359160132706,865.1359160132706,865.1359160132706,None,2.2080795224756002,,,,,,,,,,,ST02_120922,2022-12-09_14h59.08.284,Hippopolis_Updating,2022.2.2,60.00220172735682,
Hippopolis,stimuli/subj_files/ST02_120922_cityA.csv,./stimuli/seattle.jpg,./stimuli/street_plate1.png,./stimuli/videos/hippopolis_part,./stimuli/videos/hippo-satellite.mp4,BÚJÓCSKA UTCA,stimuli/scenes/068a.jpg,scene,right,0,stimuli/scenes/068a.jpg,stimuli/scenes/068b.jpg,stimuli/scenes/068a.jpg,stimuli/scenes/057b.jpg,stimuli/scenes/057a.jpg,lure,target,dist2,dist1,0,1,1,1,0,30,30,67,,,,,,,,,,,,,867.0961171481758,868.1222936231643,868.1222936231643,868.1222936231643,868.1222936231643,868.1222936231643,868.1222936231643,right,0,872.1271070688963,872.1271070688963,872.1271070688963,872.1271070688963,None,1.6037617586553097,,,,,,,,,,,ST02_120922,2022-12-09_14h59.08.284,Hippopolis_Updating,2022.2.2,60.00220172735682,
Hippopolis,stimuli/subj_files/ST02_120922_cityA.csv,./stimuli/seattle.jpg,./stimuli/street_plate1.png,./stimuli/videos/hippopolis_part,./stimuli/videos/hippo-satellite.mp4,POLIP UTCA,stimuli/scenes/090a.jpg,scene,right,0,stimuli/scenes/090a.jpg,stimuli/objects/008a.jpg,stimuli/objects/008b.jpg,stimuli/scenes/090b.jpg,stimuli/scenes/090a.jpg,dist1,dist2,lure,target,0,1,1,1,0,31,31,23,,,,,,,,,,,,,874.1116603147238,875.1318962555379,875.1318962555379,875.1318962555379,875.1318962555379,875.1318962555379,875.1318962555379,right,0,879.1508701331913,879.1508701331913,879.1508701331913,879.1508701331913,None,1.922000914812088,,,,,,,,,,,ST02_120922,2022-12-09_14h59.08.284,Hippopolis_Updating,2022.2.2,60.00220172735682,
Hippopolis,stimuli/subj_files/ST02_120922_cityA.csv,./stimuli/seattle.jpg,./stimuli/street_plate1.png,./stimuli/videos/hippopolis_part,./stimuli/videos/hippo-satellite.mp4,CUKOR UTCA,stimuli/objects/097a.jpg,object,left,2,stimuli/scenes/003a.jpg,stimuli/scenes/003a.jpg,stimuli/objects/060a.jpg,stimuli/scenes/003b.jpg,stimuli/objects/060b.jpg,target,dist1,lure,dist2,0,1,1,1,0,32,32,14,,,,,,,,,,,,,881.1144994907081,882.132526665926,882.132526665926,882.132526665926,882.132526665926,882.132526665926,882.132526665926,left,0,886.1571027021855,886.1571027021855,886.1571027021855,886.1571027021855,None,1.5449958574026823,882.132526665926,,,,,,,,,,ST02_120922,2022-12-09_14h59.08.284,Hippopolis_Updating,2022.2.2,60.00220172735682,
Hippopolis,stimuli/subj_files/ST02_120922_cityA.csv,./stimuli/seattle.jpg,./stimuli/street_plate1.png,./stimuli/videos/hippopolis_part,./stimuli/videos/hippo-satellite.mp4,ÜVEG UTCA,stimuli/objects/084a.jpg,object,left,0,stimuli/objects/084a.jpg,stimuli/objects/084a.jpg,stimuli/objects/084b.jpg,stimuli/objects/043a.jpg,stimuli/objects/043b.jpg,target,lure,dist1,dist2,0,1,1,1,0,33,33,40,,,,,,,,,,,,,888.1277368571609,889.1491148136556,889.1491148136556,889.1491148136556,889.1491148136556,889.1491148136556,889.1491148136556,left,0,893.1646069753915,893.1646069753915,893.1646069753915,893.1646069753915,None,3.024662571027875,,,,,,,,,,,ST02_120922,2022-12-09_14h59.08.284,Hippopolis_Updating,2022.2.2,60.00220172735682,
Hippopolis,stimuli/subj_files/ST02_120922_cityA.csv,./stimuli/seattle.jpg,./stimuli/street_plate1.png,./stimuli/videos/hippopolis_part,./stimuli/videos/hippo-satellite.mp4,CSAVAR UTCA,stimuli/scenes/025a.jpg,scene,right,1,stimuli/scenes/066a.jpg,stimuli/scenes/066a.jpg,stimuli/objects/014a.jpg,stimuli/objects/014b.jpg,stimuli/scenes/066b.jpg,target,dist1,dist2,lure,0,1,1,1,0,34,34,63,,,,,,,,,,,,,895.1351630669087,896.1663545202464,896.1663545202464,896.1663545202464,896.1663545202464,896.1663545202464,896.1663545202464,down,0,900.165547458455,900.165547458455,900.165547458455,900.165547458455,None,1.9111013859510422,,,,,,,,,,,ST02_120922,2022-12-09_14h59.08.284,Hippopolis_Updating,2022.2.2,60.00220172735682,
Hippopolis,stimuli/subj_files/ST02_120922_cityA.csv,./stimuli/seattle.jpg,./stimuli/street_plate1.png,./stimuli/videos/hippopolis_part,./stimuli/videos/hippo-satellite.mp4,KORONA UTCA,stimuli/objects/039a.jpg,object,left,2,stimuli/scenes/047a.jpg,stimuli/objects/094a.jpg,stimuli/scenes/047a.jpg,stimuli/objects/094b.jpg,stimuli/scenes/047b.jpg,dist1,target,dist2,lure,0,1,1,1,0,35,35,33,,,,,,,,,,,,,902.1399534977973,903.1646582912654,903.1646582912654,903.1646582912654,903.1646582912654,903.1646582912654,903.1646582912654,left,0,907.1795405689627,907.1795405689627,907.1795405689627,907.1795405689627,None,1.4884561393409967,,,,,,,,,,,ST02_120922,2022-12-09_14h59.08.284,Hippopolis_Updating,2022.2.2,60.00220172735682,
Hippopolis,stimuli/subj_files/ST02_120922_cityA.csv,./stimuli/seattle.jpg,./stimuli/street_plate1.png,./stimuli/videos/hippopolis_part,./stimuli/videos/hippo-satellite.mp4,RÓZSA UTCA,stimuli/scenes/104a.jpg,scene,right,1,stimuli/scenes/007a.jpg,stimuli/scenes/007b.jpg,stimuli/objects/117b.jpg,stimuli/scenes/007a.jpg,stimuli/objects/117a.jpg,lure,dist2,target,dist1,0,1,1,1,0,36,36,68,,,,,,,,,,,,,909.1458200123161,910.1645043436438,910.1645043436438,910.1645043436438,910.1645043436438,910.1645043436438,910.1645043436438,down,0,914.171040141955,914.171040141955,914.171040141955,914.171040141955,None,1.4162867944687605,,,,,,,,,,,ST02_120922,2022-12-09_14h59.08.284,Hippopolis_Updating,2022.2.2,60.00220172735682,
Hippopolis,stimuli/subj_files/ST02_120922_cityA.csv,./stimuli/seattle.jpg,./stimuli/street_plate1.png,./stimuli/videos/hippopolis_part,./stimuli/videos/hippo-satellite.mp4,ZÁSZLÓ UTCA,stimuli/scenes/069a.jpg,scene,right,0,stimuli/scenes/069a.jpg,stimuli/objects/028b.jpg,stimuli/objects/028a.jpg,stimuli/scenes/069b.jpg,stimuli/scenes/069a.jpg,dist2,dist1,lure,target,0,1,1,1,0,37,37,74,,,,,,,,,,,,,916.1598594617099,917.1807519383729,917.1807519383729,917.1807519383729,917.1807519383729,917.1807519383729,917.1807519383729,right,0,921.1909212265164,921.1909212265164,921.1909212265164,921.1909212265164,None,1.5838822312653065,,,,,,,,,,,ST02_120922,2022-12-09_14h59.08.284,Hippopolis_Updating,2022.2.2,60.00220172735682,
Hippopolis,stimuli/subj_files/ST02_120922_cityA.csv,./stimuli/seattle.jpg,./stimuli/street_plate1.png,./stimuli/videos/hippopolis_part,./stimuli/videos/hippo-satellite.mp4,ÁLOM UTCA,stimuli/scenes/083a.jpg,scene,right,1,stimuli/scenes/116a.jpg,stimuli/scenes/037a.jpg,stimuli/scenes/116b.jpg,stimuli/scenes/116a.jpg,stimuli/scenes/037b.jpg,dist1,lure,target,dist2,0,1,1,1,0,38,38,27,,,,,,,,,,,,,923.1762961503118,924.1867388114333,924.1867388114333,924.1867388114333,924.1867388114333,924.1867388114333,924.1867388114333,right,0,928.2443950437009,928.2443950437009,928.2443950437009,928.2443950437009,None,1.5065722614526749,,,,,,,,,,,ST02_120922,2022-12-09_14h59.08.284,Hippopolis_Updating,2022.2.2,60.00220172735682,
Hippopolis,stimuli/subj_files/ST02_120922_cityA.csv,./stimuli/seattle.jpg,./stimuli/street_plate1.png,./stimuli/videos/hippopolis_part,./stimuli/videos/hippo-satellite.mp4,BAGOLY UTCA,stimuli/objects/042a.jpg,object,left,1,stimuli/objects/027a.jpg,stimuli/objects/027a.jpg,stimuli/scenes/064b.jpg,stimuli/objects/027b.jpg,stimuli/scenes/064a.jpg,target,dist2,lure,dist1,0,1,1,1,0,39,39,5,,,,,,,,,,,,,930.1937924362719,931.2138822060078,931.2138822060078,931.2138822060078,931.2138822060078,931.2138822060078,931.2138822060078,left,0,935.2665526922792,935.2665526922792,935.2665526922792,935.2665526922792,None,3.086410401389003,,,,,,,,,,,ST02_120922,2022-12-09_14h59.08.284,Hippopolis_Updating,2022.2.2,60.00220172735682,
Hippopolis,stimuli/subj_files/ST02_120922_cityA.csv,./stimuli/seattle.jpg,./stimuli/street_plate1.png,./stimuli/videos/hippopolis_part,./stimuli/videos/hippo-satellite.mp4,PÁFRÁNY UTCA,stimuli/objects/026a.jpg,object,left,2,stimuli/scenes/111a.jpg,stimuli/scenes/111a.jpg,stimuli/scenes/111b.jpg,stimuli/objects/096b.jpg,stimuli/objects/096a.jpg,target,lure,dist2,dist1,0,1,1,1,0,40,40,70,,,,,,,,,,,,,937.201514415443,938.2305365987122,938.2305365987122,938.2305365987122,938.2305365987122,938.2305365987122,938.2305365987122,left,0,942.2445219326764,942.2445219326764,942.2445219326764,942.2445219326764,None,1.206079751253128,,,,,,,,,,,ST02_120922,2022-12-09_14h59.08.284,Hippopolis_Updating,2022.2.2,60.00220172735682,
Hippopolis,stimuli/subj_files/ST02_120922_cityA.csv,./stimuli/seattle.jpg,./stimuli/street_plate1.png,./stimuli/videos/hippopolis_part,./stimuli/videos/hippo-satellite.mp4,HENTES UTCA,stimuli/objects/032a.jpg,object,left,1,stimuli/objects/120a.jpg,stimuli/objects/017a.jpg,stimuli/objects/120a.jpg,stimuli/objects/120b.jpg,stimuli/objects/017b.jpg,dist1,target,lure,dist2,0,1,1,1,0,41,41,50,,,,,,,,,,,,,944.2217410262674,945.2431255150586,945.2431255150586,945.2431255150586,945.2431255150586,945.2431255150586,945.2431255150586,left,0,949.2713956851512,949.2713956851512,949.2713956851512,949.2713956851512,None,1.3298624716699123,945.2431255150586,,,,,,,,,,ST02_120922,2022-12-09_14h59.08.284,Hippopolis_Updating,2022.2.2,60.00220172735682,
Hippopolis,stimuli/subj_files/ST02_120922_cityA.csv,./stimuli/seattle.jpg,./stimuli/street_plate1.png,./stimuli/videos/hippopolis_part,./stimuli/videos/hippo-satellite.mp4,SZÖCSKE UTCA,stimuli/objects/044a.jpg,object,left,0,stimuli/objects/044a.jpg,stimuli/scenes/082b.jpg,stimuli/objects/044b.jpg,stimuli/objects/044a.jpg,stimuli/scenes/082a.jpg,dist2,lure,target,dist1,0,1,1,1,0,42,42,42,,,,,,,,,,,,,951.2361561730504,952.2672421950847,952.2672421950847,952.2672421950847,952.2672421950847,952.2672421950847,952.2672421950847,left,0,956.2618592958897,956.2618592958897,956.2618592958897,956.2618592958897,None,2.8331420347094536,,,,,,,,,,,ST02_120922,2022-12-09_14h59.08.284,Hippopolis_Updating,2022.2.2,60.00220172735682,
Hippopolis,stimuli/subj_files/ST02_120922_cityA.csv,./stimuli/seattle.jpg,./stimuli/street_plate1.png,./stimuli/videos/hippopolis_part,./stimuli/videos/hippo-satellite.mp4,PÁLMAFA UTCA,stimuli/objects/080a.jpg,object,left,1,stimuli/objects/058a.jpg,stimuli/objects/058b.jpg,stimuli/objects/058a.jpg,stimuli/scenes/067a.jpg,stimuli/scenes/067b.jpg,lure,target,dist1,dist2,0,1,1,1,0,43,43,61,,,,,,,,,,,,,958.243145108223,959.2640285659581,959.2640285659581,959.2640285659581,959.2640285659581,959.2640285659581,959.2640285659581,down,0,963.281915165484,963.281915165484,963.281915165484,963.281915165484,None,2.5240486431866884,,,,,,,,,,,ST02_120922,2022-12-09_14h59.08.284,Hippopolis_Updating,2022.2.2,60.00220172735682,
Hippopolis,stimuli/subj_files/ST02_120922_cityA.csv,./stimuli/seattle.jpg,./stimuli/street_plate1.png,./stimuli/videos/hippopolis_part,./stimuli/videos/hippo-satellite.mp4,VÁSÁR UTCA,stimuli/objects/086a.jpg,object,left,0,stimuli/objects/086a.jpg,stimuli/objects/086a.jpg,stimuli/scenes/050a.jpg,stimuli/scenes/050b.jpg,stimuli/objects/086b.jpg,target,dist1,dist2,lure,0,1,1,1,0,44,44,78,,,,,,,,,,,,,965.2592309806496,966.2828696444631,966.2828696444631,966.2828696444631,966.2828696444631,966.2828696444631,966.2828696444631,left,0,970.2918611485511,970.2918611485511,970.2918611485511,970.2918611485511,space,1.3131984397768974,,972.2756561618298,972.2756561618298,4.776709925383329,,,,,,,ST02_120922,2022-12-09_14h59.08.284,Hippopolis_Updating,2022.2.2,60.00220172735682,
Hippopolis,stimuli/subj_files/ST02_120922_cityA.csv,./stimuli/seattle.jpg,./stimuli/street_plate1.png,./stimuli/videos/hippopolis_part,./stimuli/videos/hippo-satellite.mp4,TÁNYÉR UTCA,stimuli/objects/041a.jpg,object,left,0,stimuli/objects/041a.jpg,stimuli/objects/041b.jpg,stimuli/objects/044a.jpg,stimuli/objects/044b.jpg,stimuli/objects/041a.jpg,lure,dist1,dist2,target,0,1,1,1,0,45,45,21,,,,,,,,,,,,,977.0750452205539,978.1033539548516,978.1033539548516,978.1033539548516,978.1033539548516,978.1033539548516,978.1033539548516,down,0,982.1041687913239,982.1041687913239,982.1041687913239,982.1041687913239,None,1.2849659007042646,,,,,,,,,,,ST02_120922,2022-12-09_14h59.08.284,Hippopolis_Updating,2022.2.2,60.00220172735682,
Hippopolis,stimuli/subj_files/ST02_120922_cityA.csv,./stimuli/seattle.jpg,./stimuli/street_plate1.png,./stimuli/videos/hippopolis_part,./stimuli/videos/hippo-satellite.mp4,POGÁCSA UTCA,stimuli/scenes/092a.jpg,scene,right,1,stimuli/scenes/067a.jpg,stimuli/objects/058b.jpg,stimuli/scenes/067a.jpg,stimuli/objects/058a.jpg,stimuli/scenes/067b.jpg,dist2,target,dist1,lure,0,1,1,1,0,46,46,47,,,,,,,,,,,,,984.0760681200773,985.0986437629908,985.0986437629908,985.0986437629908,985.0986437629908,985.0986437629908,985.0986437629908,left,0,989.095587503165,989.095587503165,989.095587503165,989.095587503165,None,1.3610707204788923,,,,,,,,,,,ST02_120922,2022-12-09_14h59.08.284,Hippopolis_Updating,2022.2.2,60.00220172735682,
Hippopolis,stimuli/subj_files/ST02_120922_cityA.csv,./stimuli/seattle.jpg,./stimuli/street_plate1.png,./stimuli/videos/hippopolis_part,./stimuli/videos/hippo-satellite.mp4,TERÍTŐ UTCA,stimuli/objects/085a.jpg,object,left,1,stimuli/objects/017a.jpg,stimuli/objects/120a.jpg,stimuli/objects/120b.jpg,stimuli/objects/017a.jpg,stimuli/objects/017b.jpg,dist1,dist2,target,lure,0,1,1,1,0,47,47,19,,,,,,,,,,,,,991.0922056194395,992.1180875711143,992.1180875711143,992.1180875711143,992.1180875711143,992.1180875711143,992.1180875711143,left,0,996.1382653564215,996.1382653564215,996.1382653564215,996.1382653564215,None,2.1182960215955973,,,,,,,,,,,ST02_120922,2022-12-09_14h59.08.284,Hippopolis_Updating,2022.2.2,60.00220172735682,
Hippopolis,stimuli/subj_files/ST02_120922_cityA.csv,./stimuli/seattle.jpg,./stimuli/street_plate1.png,./stimuli/videos/hippopolis_part,./stimuli/videos/hippo-satellite.mp4,HEGESZTŐ UTCA,stimuli/objects/043a.jpg,object,left,0,stimuli/objects/043a.jpg,stimuli/scenes/068b.jpg,stimuli/objects/043b.jpg,stimuli/objects/043a.jpg,stimuli/scenes/068a.jpg,dist2,lure,target,dist1,0,1,1,1,0,48,48,38,,,,,,,,,,,,,998.094528215006,999.1139026694,999.1139026694,999.1139026694,999.1139026694,999.1139026694,999.1139026694,down,0,1003.1342166736722,1003.1342166736722,1003.1342166736722,1003.1342166736722,None,1.6023709382861853,,,,,,,,,,,ST02_120922,2022-12-09_14h59.08.284,Hippopolis_Updating,2022.2.2,60.00220172735682,
Hippopolis,stimuli/subj_files/ST02_120922_cityA.csv,./stimuli/seattle.jpg,./stimuli/street_plate1.png,./stimuli/videos/hippopolis_part,./stimuli/videos/hippo-satellite.mp4,MUSTÁR UTCA,stimuli/objects/059a.jpg,object,left,1,stimuli/objects/056a.jpg,stimuli/objects/056b.jpg,stimuli/scenes/061a.jpg,stimuli/scenes/061b.jpg,stimuli/objects/056a.jpg,lure,dist1,dist2,target,0,1,1,1,0,49,49,2,,,,,,,,,,,,,1005.1016630139202,1006.1276718564332,1006.1276718564332,1006.1276718564332,1006.1276718564332,1006.1276718564332,1006.1276718564332,left,0,1010.1356112267822,1010.1356112267822,1010.1356112267822,1010.1356112267822,None,1.3724616393446922,,,,,,,,,,,ST02_120922,2022-12-09_14h59.08.284,Hippopolis_Updating,2022.2.2,60.00220172735682,
Hippopolis,stimuli/subj_files/ST02_120922_cityA.csv,./stimuli/seattle.jpg,./stimuli/street_plate1.png,./stimuli/videos/hippopolis_part,./stimuli/videos/hippo-satellite.mp4,KALAPÁCS UTCA,stimuli/objects/025a.jpg,object,left,1,stimuli/objects/068a.jpg,stimuli/scenes/066b.jpg,stimuli/scenes/066a.jpg,stimuli/objects/068b.jpg,stimuli/objects/068a.jpg,dist2,dist1,lure,target,0,1,1,1,0,50,50,17,,,,,,,,,,,,,1012.1022489499301,1013.1297512445599,1013.1297512445599,1013.1297512445599,1013.1297512445599,1013.1297512445599,1013.1297512445599,left,0,1017.1496276631951,1017.1496276631951,1017.1496276631951,1017.1496276631951,None,1.7938734348863363,,,,,,,,,,,ST02_120922,2022-12-09_14h59.08.284,Hippopolis_Updating,2022.2.2,60.00220172735682,
Hippopolis,stimuli/subj_files/ST02_120922_cityA.csv,./stimuli/seattle.jpg,./stimuli/street_plate1.png,./stimuli/videos/hippopolis_part,./stimuli/videos/hippo-satellite.mp4,PÉKSÉG UTCA,stimuli/scenes/050a.jpg,scene,right,0,stimuli/scenes/050a.jpg,stimuli/objects/084b.jpg,stimuli/scenes/050b.jpg,stimuli/scenes/050a.jpg,stimuli/objects/084a.jpg,dist2,lure,target,dist1,0,1,1,1,0,51,51,55,,,,,,,,,,,,,1019.1037567090243,1020.1347410306334,1020.1347410306334,1020.1347410306334,1020.1347410306334,1020.1347410306334,1020.1347410306334,down,0,1024.1456847246736,1024.1456847246736,1024.1456847246736,1024.1456847246736,None,3.1092351600527763,,,,,,,,,,,ST02_120922,2022-12-09_14h59.08.284,Hippopolis_Updating,2022.2.2,60.00220172735682,
Hippopolis,stimuli/subj_files/ST02_120922_cityA.csv,./stimuli/seattle.jpg,./stimuli/street_plate1.png,./stimuli/videos/hippopolis_part,./stimuli/videos/hippo-satellite.mp4,KÖNYVTÁR UTCA,stimuli/objects/002a.jpg,object,left,2,stimuli/scenes/011a.jpg,stimuli/scenes/011a.jpg,stimuli/objects/046a.jpg,stimuli/scenes/011b.jpg,stimuli/objects/046b.jpg,target,dist1,lure,dist2,0,1,1,1,0,52,52,12,,,,,,,,,,,,,1026.112832808867,1027.137772411108,1027.137772411108,1027.137772411108,1027.137772411108,1027.137772411108,1027.137772411108,down,0,1031.1396804340184,1031.1396804340184,1031.1396804340184,1031.1396804340184,None,1.5138759352266788,,,,,,,,,,,ST02_120922,2022-12-09_14h59.08.284,Hippopolis_Updating,2022.2.2,60.00220172735682,
Hippopolis,stimuli/subj_files/ST02_120922_cityA.csv,./stimuli/seattle.jpg,./stimuli/street_plate1.png,./stimuli/videos/hippopolis_part,./stimuli/videos/hippo-satellite.mp4,SIRÁLY UTCA,stimuli/objects/066a.jpg,object,left,1,stimuli/objects/102a.jpg,stimuli/objects/102b.jpg,stimuli/scenes/098b.jpg,stimuli/objects/102a.jpg,stimuli/scenes/098a.jpg,lure,dist2,target,dist1,0,1,1,1,0,53,53,37,,,,,,,,,,,,,1033.1250273678452,1034.149837281555,1034.149837281555,1034.149837281555,1034.149837281555,1034.149837281555,1034.149837281555,left,0,1038.185765672475,1038.185765672475,1038.185765672475,1038.185765672475,None,2.5021603237837553,,,,,,,,,,,ST02_120922,2022-12-09_14h59.08.284,Hippopolis_Updating,2022.2.2,60.00220172735682,
Hippopolis,stimuli/subj_files/ST02_120922_cityA.csv,./stimuli/seattle.jpg,./stimuli/street_plate1.png,./stimuli/videos/hippopolis_part,./stimuli/videos/hippo-satellite.mp4,KUTYA UTCA,stimuli/scenes/107a.jpg,scene,right,1,stimuli/scenes/022a.jpg,stimuli/scenes/088b.jpg,stimuli/scenes/022b.jpg,stimuli/scenes/022a.jpg,stimuli/scenes/088a.jpg,dist2,lure,target,dist1,0,1,1,1,0,54,54,35,,,,,,,,,,,,,1040.1502593178302,1041.1806297134608,1041.1806297134608,1041.1806297134608,1041.1806297134608,1041.1806297134608,1041.1806297134608,right,0,1045.195292731747,1045.195292731747,1045.195292731747,1045.195292731747,None,3.0391103718429804,,,,,,,,,,,ST02_120922,2022-12-09_14h59.08.284,Hippopolis_Updating,2022.2.2,60.00220172735682,
