CityName,StimuliFile,CityImage,StreetSign,Cue,Image,Category,Novelty,UpdateImage,TestImage1,TestImage2,TestImage3,TestImage4,TestImage1Type,TestImage2Type,TestImage3Type,TestImage4Type,CityBlock.thisRepN,CityBlock.thisTrialN,CityBlock.thisN,CityBlock.thisIndex,LearningTrials.thisRepN,LearningTrials.thisTrialN,LearningTrials.thisN,LearningTrials.thisIndex,learning_instructions_text.started,learning_instructions_text.stopped,intro_key.keys,intro_key.rt,intro_key.started,intro_key.stopped,cityname_text.started,cityname_text.stopped,city_image.started,city_image.stopped,fx_cross.started,fx_cross.stopped,plate_updating.started,plate_updating.stopped,city_text_updating.started,city_text_updating.stopped,street_text_updating.started,street_text_updating.stopped,test_image1.started,test_image1.stopped,test_image2.started,test_image2.stopped,test_image3.started,test_image3.stopped,test_image4.started,test_image4.stopped,button_d.started,button_d.stopped,button_f.started,button_f.stopped,button_j.started,button_j.stopped,button_k.started,button_k.stopped,key_resp.keys,key_resp.rt,key_resp.started,key_resp.stopped,test_resp,clock0.started,clock0.stopped,short_break_text.started,short_break_text.stopped,short_break_key.keys,short_break_key.started,short_break_key.stopped,short_break_key.rt,n_targets,n_lures,n_dist1s,n_dist2s,break_text.started,break_text.stopped,break_key_resp.keys,break_key_resp.rt,break_key_resp.started,break_key_resp.stopped,end_text.started,end_text.stopped,participant,date,expName,psychopyVersion,frameRate,
,,,,,,,,,,,,,,,,,,,,,,,,,13.410314400010975,None,space,15.05787310001324,13.410314400010975,None,,,,,,,,,,,,,,,,,,,,,,,,,,,,,,,,,,,,,,,,,,,,,,,,,,,,,,ST02_112522,2022-11-25_15h25.34.830,Hippopolis_4AFCT,2021.1.4,59.78168923173896,
Hippopolis,stimuli/subj_files/ST02_112522_cityA.csv,./stimuli/seattle.jpg,./stimuli/street_plate1.png,LÁNDZSA UTCA,stimuli/objects/065a.jpg,object,1,stimuli/objects/038a.jpg,stimuli/objects/003a.jpg,stimuli/objects/038a.jpg,stimuli/objects/003b.jpg,stimuli/objects/038b.jpg,dist1,target,dist2,lure,0,0,0,0,0,0,0,18,,,,,,,28.55401439999696,None,28.55401439999696,None,31.49985849999939,None,32.542116600001464,None,32.542116600001464,None,32.542116600001464,None,32.542116600001464,None,32.542116600001464,None,32.542116600001464,None,32.542116600001464,None,32.542116600001464,None,32.542116600001464,None,32.542116600001464,None,32.542116600001464,None,j,3.340066199976718,32.542116600001464,None,dist2,None,None,None,None,None,None,None,,,,,,,,,,,,,,ST02_112522,2022-11-25_15h25.34.830,Hippopolis_4AFCT,2021.1.4,59.78168923173896,
Hippopolis,stimuli/subj_files/ST02_112522_cityA.csv,./stimuli/seattle.jpg,./stimuli/street_plate1.png,KÖNYVTÁR UTCA,stimuli/objects/094a.jpg,object,1,stimuli/objects/062a.jpg,stimuli/objects/062b.jpg,stimuli/objects/062a.jpg,stimuli/objects/099a.jpg,stimuli/objects/099b.jpg,lure,target,dist1,dist2,0,0,0,0,0,1,1,33,,,,,,,,,,,35.913149700005306,None,36.9262660999957,None,36.9262660999957,None,36.9262660999957,None,36.9262660999957,None,36.9262660999957,None,36.9262660999957,None,36.9262660999957,None,36.9262660999957,None,36.9262660999957,None,36.9262660999957,None,36.9262660999957,None,f,2.7446182999992743,36.9262660999957,None,target,None,None,None,None,None,None,None,,,,,,,,,,,,,,ST02_112522,2022-11-25_15h25.34.830,Hippopolis_4AFCT,2021.1.4,59.78168923173896,
Hippopolis,stimuli/subj_files/ST02_112522_cityA.csv,./stimuli/seattle.jpg,./stimuli/street_plate1.png,KÖMÉNYMAG UTCA,stimuli/objects/026a.jpg,object,2,stimuli/scenes/108a.jpg,stimuli/scenes/108b.jpg,stimuli/objects/006b.jpg,stimuli/scenes/108a.jpg,stimuli/objects/006a.jpg,lure,dist2,target,dist1,0,0,0,0,0,2,2,14,,,,,,,,,,,39.69652510000742,None,40.71126229999936,None,40.71126229999936,None,40.71126229999936,None,40.71126229999936,None,40.71126229999936,None,40.71126229999936,None,40.71126229999936,None,40.71126229999936,None,40.71126229999936,None,40.71126229999936,None,40.71126229999936,None,j,2.5259670999948867,40.71126229999936,None,target,None,None,None,None,None,None,None,,,,,,,,,,,,,,ST02_112522,2022-11-25_15h25.34.830,Hippopolis_4AFCT,2021.1.4,59.78168923173896,
Hippopolis,stimuli/subj_files/ST02_112522_cityA.csv,./stimuli/seattle.jpg,./stimuli/street_plate1.png,FÉSŰ UTCA,stimuli/scenes/092a.jpg,scene,1,stimuli/scenes/091a.jpg,stimuli/scenes/020b.jpg,stimuli/scenes/091b.jpg,stimuli/scenes/091a.jpg,stimuli/scenes/020a.jpg,dist2,lure,target,dist1,0,0,0,0,0,3,3,54,,,,,,,,,,,43.26267219998408,None,44.27529940000386,None,44.27529940000386,None,44.27529940000386,None,44.27529940000386,None,44.27529940000386,None,44.27529940000386,None,44.27529940000386,None,44.27529940000386,None,44.27529940000386,None,44.27529940000386,None,44.27529940000386,None,j,2.3042937999998685,44.27529940000386,None,target,None,None,None,None,None,None,None,,,,,,,,,,,,,,ST02_112522,2022-11-25_15h25.34.830,Hippopolis_4AFCT,2021.1.4,59.78168923173896,
Hippopolis,stimuli/subj_files/ST02_112522_cityA.csv,./stimuli/seattle.jpg,./stimuli/street_plate1.png,FOLYÓ UTCA,stimuli/objects/104a.jpg,object,2,stimuli/scenes/033a.jpg,stimuli/scenes/033b.jpg,stimuli/objects/111a.jpg,stimuli/scenes/033a.jpg,stimuli/objects/111b.jpg,lure,dist1,target,dist2,0,0,0,0,0,4,4,27,,,,,,,,,,,46.612482500000624,None,47.63097860000562,None,47.63097860000562,None,47.63097860000562,None,47.63097860000562,None,47.63097860000562,None,47.63097860000562,None,47.63097860000562,None,47.63097860000562,None,47.63097860000562,None,47.63097860000562,None,47.63097860000562,None,k,3.163728200015612,47.63097860000562,None,dist2,None,None,None,None,None,None,None,,,,,,,,,,,,,,ST02_112522,2022-11-25_15h25.34.830,Hippopolis_4AFCT,2021.1.4,59.78168923173896,
Hippopolis,stimuli/subj_files/ST02_112522_cityA.csv,./stimuli/seattle.jpg,./stimuli/street_plate1.png,VÖDÖR UTCA,stimuli/scenes/016a.jpg,scene,0,stimuli/scenes/016a.jpg,stimuli/objects/054b.jpg,stimuli/objects/054a.jpg,stimuli/scenes/016b.jpg,stimuli/scenes/016a.jpg,dist2,dist1,lure,target,0,0,0,0,0,5,5,8,,,,,,,,,,,50.81293210000149,None,51.82659459998831,None,51.82659459998831,None,51.82659459998831,None,51.82659459998831,None,51.82659459998831,None,51.82659459998831,None,51.82659459998831,None,51.82659459998831,None,51.82659459998831,None,51.82659459998831,None,51.82659459998831,None,k,3.72334039999987,51.82659459998831,None,target,55.313463900005445,None,None,None,None,None,None,,,,,,,,,,,,,,ST02_112522,2022-11-25_15h25.34.830,Hippopolis_4AFCT,2021.1.4,59.78168923173896,
Hippopolis,stimuli/subj_files/ST02_112522_cityA.csv,./stimuli/seattle.jpg,./stimuli/street_plate1.png,MUNKA UTCA,stimuli/scenes/004a.jpg,scene,2,stimuli/objects/022a.jpg,stimuli/objects/022b.jpg,stimuli/objects/022a.jpg,stimuli/scenes/051a.jpg,stimuli/scenes/051b.jpg,lure,target,dist1,dist2,0,0,0,0,0,6,6,58,,,,,,,,,,,55.57951429998502,None,56.58613979999791,None,56.58613979999791,None,56.58613979999791,None,56.58613979999791,None,56.58613979999791,None,56.58613979999791,None,56.58613979999791,None,56.58613979999791,None,56.58613979999791,None,56.58613979999791,None,56.58613979999791,None,f,2.5170074999914505,56.58613979999791,None,target,None,None,None,None,None,None,None,,,,,,,,,,,,,,ST02_112522,2022-11-25_15h25.34.830,Hippopolis_4AFCT,2021.1.4,59.78168923173896,
Hippopolis,stimuli/subj_files/ST02_112522_cityA.csv,./stimuli/seattle.jpg,./stimuli/street_plate1.png,ORVOS UTCA,stimuli/scenes/060a.jpg,scene,0,stimuli/scenes/060a.jpg,stimuli/scenes/060b.jpg,stimuli/scenes/060a.jpg,stimuli/scenes/060a.jpg,stimuli/scenes/060b.jpg,lure,dist1,target,dist2,0,0,0,0,0,7,7,20,,,,,,,,,,,59.129246800002875,None,60.138206000003265,None,60.138206000003265,None,60.138206000003265,None,60.138206000003265,None,60.138206000003265,None,60.138206000003265,None,60.138206000003265,None,60.138206000003265,None,60.138206000003265,None,60.138206000003265,None,60.138206000003265,None,f,3.2439340999990236,60.138206000003265,None,dist1,None,None,None,None,None,None,None,,,,,,,,,,,,,,ST02_112522,2022-11-25_15h25.34.830,Hippopolis_4AFCT,2021.1.4,59.78168923173896,
Hippopolis,stimuli/subj_files/ST02_112522_cityA.csv,./stimuli/seattle.jpg,./stimuli/street_plate1.png,KESELYŰ UTCA,stimuli/objects/119a.jpg,object,2,stimuli/scenes/065a.jpg,stimuli/scenes/065a.jpg,stimuli/scenes/065b.jpg,stimuli/scenes/033b.jpg,stimuli/scenes/033a.jpg,target,lure,dist2,dist1,0,0,0,0,0,8,8,6,,,,,,,,,,,63.412163000000874,None,64.4195686999883,None,64.4195686999883,None,64.4195686999883,None,64.4195686999883,None,64.4195686999883,None,64.4195686999883,None,64.4195686999883,None,64.4195686999883,None,64.4195686999883,None,64.4195686999883,None,64.4195686999883,None,f,4.0859093999897595,64.4195686999883,None,lure,67.9134919999924,None,None,None,None,None,None,,,,,,,,,,,,,,ST02_112522,2022-11-25_15h25.34.830,Hippopolis_4AFCT,2021.1.4,59.78168923173896,
Hippopolis,stimuli/subj_files/ST02_112522_cityA.csv,./stimuli/seattle.jpg,./stimuli/street_plate1.png,KÓKUSZ UTCA,stimuli/scenes/070a.jpg,scene,2,stimuli/objects/091a.jpg,stimuli/objects/117b.jpg,stimuli/objects/117a.jpg,stimuli/objects/091a.jpg,stimuli/objects/091b.jpg,dist2,dist1,target,lure,0,0,0,0,0,9,9,39,,,,,,,,,,,68.52936809998937,None,69.54616860000533,None,69.54616860000533,None,69.54616860000533,None,69.54616860000533,None,69.54616860000533,None,69.54616860000533,None,69.54616860000533,None,69.54616860000533,None,69.54616860000533,None,69.54616860000533,None,69.54616860000533,None,f,1.8570797000138555,69.54616860000533,None,dist1,None,None,None,None,None,None,None,,,,,,,,,,,,,,ST02_112522,2022-11-25_15h25.34.830,Hippopolis_4AFCT,2021.1.4,59.78168923173896,
Hippopolis,stimuli/subj_files/ST02_112522_cityA.csv,./stimuli/seattle.jpg,./stimuli/street_plate1.png,PIZSAMA UTCA,stimuli/scenes/008a.jpg,scene,2,stimuli/objects/006a.jpg,stimuli/objects/006b.jpg,stimuli/objects/091a.jpg,stimuli/objects/006a.jpg,stimuli/objects/091b.jpg,lure,dist1,target,dist2,0,0,0,0,0,10,10,11,,,,,,,,,,,71.42931639999733,None,72.4374567999912,None,72.4374567999912,None,72.4374567999912,None,72.4374567999912,None,72.4374567999912,None,72.4374567999912,None,72.4374567999912,None,72.4374567999912,None,72.4374567999912,None,72.4374567999912,None,72.4374567999912,None,j,2.9454681999923196,72.4374567999912,None,target,None,None,None,None,None,None,None,,,,,,,,,,,,,,ST02_112522,2022-11-25_15h25.34.830,Hippopolis_4AFCT,2021.1.4,59.78168923173896,
Hippopolis,stimuli/subj_files/ST02_112522_cityA.csv,./stimuli/seattle.jpg,./stimuli/street_plate1.png,HAJÓ UTCA,stimuli/scenes/032a.jpg,scene,2,stimuli/objects/056a.jpg,stimuli/scenes/088b.jpg,stimuli/scenes/088a.jpg,stimuli/objects/056a.jpg,stimuli/objects/056b.jpg,dist2,dist1,target,lure,0,0,0,0,0,11,11,34,,,,,,,,,,,75.41254879999906,None,76.4321008999832,None,76.4321008999832,None,76.4321008999832,None,76.4321008999832,None,76.4321008999832,None,76.4321008999832,None,76.4321008999832,None,76.4321008999832,None,76.4321008999832,None,76.4321008999832,None,76.4321008999832,None,j,2.797462099988479,76.4321008999832,None,target,None,None,None,None,None,None,None,,,,,,,,,,,,,,ST02_112522,2022-11-25_15h25.34.830,Hippopolis_4AFCT,2021.1.4,59.78168923173896,
Hippopolis,stimuli/subj_files/ST02_112522_cityA.csv,./stimuli/seattle.jpg,./stimuli/street_plate1.png,REPÜLŐ UTCA,stimuli/objects/048a.jpg,object,1,stimuli/objects/095a.jpg,stimuli/objects/095a.jpg,stimuli/scenes/042b.jpg,stimuli/scenes/042a.jpg,stimuli/objects/095b.jpg,target,dist2,dist1,lure,0,0,0,0,0,12,12,60,,,,,,,,,,,79.26244699998642,None,80.27839610000956,None,80.27839610000956,None,80.27839610000956,None,80.27839610000956,None,80.27839610000956,None,80.27839610000956,None,80.27839610000956,None,80.27839610000956,None,80.27839610000956,None,80.27839610000956,None,80.27839610000956,None,d,4.58128419998684,80.27839610000956,None,target,83.77920230000746,None,None,None,None,None,None,,,,,,,,,,,,,,ST02_112522,2022-11-25_15h25.34.830,Hippopolis_4AFCT,2021.1.4,59.78168923173896,
Hippopolis,stimuli/subj_files/ST02_112522_cityA.csv,./stimuli/seattle.jpg,./stimuli/street_plate1.png,HORDÓ UTCA,stimuli/objects/052a.jpg,object,0,stimuli/objects/052a.jpg,stimuli/objects/052b.jpg,stimuli/objects/057b.jpg,stimuli/objects/052a.jpg,stimuli/objects/057a.jpg,lure,dist2,target,dist1,0,0,0,0,0,13,13,69,,,,,,,,,,,84.87914899998577,None,85.88800740000443,None,85.88800740000443,None,85.88800740000443,None,85.88800740000443,None,85.88800740000443,None,85.88800740000443,None,85.88800740000443,None,85.88800740000443,None,85.88800740000443,None,85.88800740000443,None,85.88800740000443,None,j,3.7669247000012547,85.88800740000443,None,target,89.37912130000768,None,None,None,None,None,None,,,,,,,,,,,,,,ST02_112522,2022-11-25_15h25.34.830,Hippopolis_4AFCT,2021.1.4,59.78168923173896,
Hippopolis,stimuli/subj_files/ST02_112522_cityA.csv,./stimuli/seattle.jpg,./stimuli/street_plate1.png,KIRAKÓ UTCA,stimuli/objects/024a.jpg,object,2,stimuli/scenes/047a.jpg,stimuli/objects/068a.jpg,stimuli/scenes/047b.jpg,stimuli/objects/068b.jpg,stimuli/scenes/047a.jpg,dist1,lure,dist2,target,0,0,0,0,0,14,14,19,,,,,,,,,,,89.67830319999484,None,90.68580929999007,None,90.68580929999007,None,90.68580929999007,None,90.68580929999007,None,90.68580929999007,None,90.68580929999007,None,90.68580929999007,None,90.68580929999007,None,90.68580929999007,None,90.68580929999007,None,90.68580929999007,None,k,3.704660799994599,90.68580929999007,None,target,94.1624809000059,None,None,None,None,None,None,,,,,,,,,,,,,,ST02_112522,2022-11-25_15h25.34.830,Hippopolis_4AFCT,2021.1.4,59.78168923173896,
Hippopolis,stimuli/subj_files/ST02_112522_cityA.csv,./stimuli/seattle.jpg,./stimuli/street_plate1.png,KÍGYÓ UTCA,stimuli/scenes/117a.jpg,scene,0,stimuli/scenes/117a.jpg,stimuli/objects/020b.jpg,stimuli/scenes/117b.jpg,stimuli/objects/020a.jpg,stimuli/scenes/117a.jpg,dist2,lure,dist1,target,0,0,0,0,0,15,15,5,,,,,,,,,,,94.41217930000857,None,95.42976759999874,None,95.42976759999874,None,95.42976759999874,None,95.42976759999874,None,95.42976759999874,None,95.42976759999874,None,95.42976759999874,None,95.42976759999874,None,95.42976759999874,None,95.42976759999874,None,95.42976759999874,None,k,3.360010600008536,95.42976759999874,None,target,None,None,None,None,None,None,None,,,,,,,,,,,,,,ST02_112522,2022-11-25_15h25.34.830,Hippopolis_4AFCT,2021.1.4,59.78168923173896,
Hippopolis,stimuli/subj_files/ST02_112522_cityA.csv,./stimuli/seattle.jpg,./stimuli/street_plate1.png,TOBOZ UTCA,stimuli/objects/034a.jpg,object,0,stimuli/objects/034a.jpg,stimuli/objects/034b.jpg,stimuli/objects/034a.jpg,stimuli/scenes/119a.jpg,stimuli/scenes/119b.jpg,lure,target,dist1,dist2,0,0,0,0,0,16,16,46,,,,,,,,,,,98.81217940000352,None,99.82976160000544,None,99.82976160000544,None,99.82976160000544,None,99.82976160000544,None,99.82976160000544,None,99.82976160000544,None,99.82976160000544,None,99.82976160000544,None,99.82976160000544,None,99.82976160000544,None,99.82976160000544,None,f,2.030500299995765,99.82976160000544,None,target,None,None,None,None,None,None,None,,,,,,,,,,,,,,ST02_112522,2022-11-25_15h25.34.830,Hippopolis_4AFCT,2021.1.4,59.78168923173896,
Hippopolis,stimuli/subj_files/ST02_112522_cityA.csv,./stimuli/seattle.jpg,./stimuli/street_plate1.png,SZŐNYEG UTCA,stimuli/scenes/036a.jpg,scene,0,stimuli/scenes/036a.jpg,stimuli/scenes/007a.jpg,stimuli/scenes/036a.jpg,stimuli/scenes/036b.jpg,stimuli/scenes/007b.jpg,dist1,target,lure,dist2,0,0,0,0,0,17,17,26,,,,,,,,,,,101.87873080000281,None,102.88795109998318,None,102.88795109998318,None,102.88795109998318,None,102.88795109998318,None,102.88795109998318,None,102.88795109998318,None,102.88795109998318,None,102.88795109998318,None,102.88795109998318,None,102.88795109998318,None,102.88795109998318,None,f,3.600414599990472,102.88795109998318,None,target,106.37939399998868,None,None,None,None,None,None,,,,,,,,,,,,,,ST02_112522,2022-11-25_15h25.34.830,Hippopolis_4AFCT,2021.1.4,59.78168923173896,
Hippopolis,stimuli/subj_files/ST02_112522_cityA.csv,./stimuli/seattle.jpg,./stimuli/street_plate1.png,ZONGORA UTCA,stimuli/scenes/056a.jpg,scene,0,stimuli/scenes/056a.jpg,stimuli/objects/011a.jpg,stimuli/scenes/056b.jpg,stimuli/objects/011b.jpg,stimuli/scenes/056a.jpg,dist1,lure,dist2,target,0,0,0,0,0,18,18,37,,,,,,,,,,,106.51189480000176,None,107.51828769998974,None,107.51828769998974,None,107.51828769998974,None,107.51828769998974,None,107.51828769998974,None,107.51828769998974,None,107.51828769998974,None,107.51828769998974,None,107.51828769998974,None,107.51828769998974,None,107.51828769998974,None,k,2.436193599976832,107.51828769998974,None,target,None,None,None,None,None,None,None,,,,,,,,,,,,,,ST02_112522,2022-11-25_15h25.34.830,Hippopolis_4AFCT,2021.1.4,59.78168923173896,
Hippopolis,stimuli/subj_files/ST02_112522_cityA.csv,./stimuli/seattle.jpg,./stimuli/street_plate1.png,KARTON UTCA,stimuli/objects/020a.jpg,object,0,stimuli/objects/020a.jpg,stimuli/objects/020b.jpg,stimuli/objects/081b.jpg,stimuli/objects/020a.jpg,stimuli/objects/081a.jpg,lure,dist2,target,dist1,0,0,0,0,0,19,19,57,,,,,,,,,,,109.9786160000076,None,110.98701439998695,None,110.98701439998695,None,110.98701439998695,None,110.98701439998695,None,110.98701439998695,None,110.98701439998695,None,110.98701439998695,None,110.98701439998695,None,110.98701439998695,None,110.98701439998695,None,110.98701439998695,None,j,3.0800635000050534,110.98701439998695,None,target,None,None,None,None,None,None,None,,,,,,,,,,,,,,ST02_112522,2022-11-25_15h25.34.830,Hippopolis_4AFCT,2021.1.4,59.78168923173896,
Hippopolis,stimuli/subj_files/ST02_112522_cityA.csv,./stimuli/seattle.jpg,./stimuli/street_plate1.png,PALACK UTCA,stimuli/objects/010a.jpg,object,2,stimuli/scenes/041a.jpg,stimuli/scenes/090a.jpg,stimuli/scenes/041b.jpg,stimuli/scenes/041a.jpg,stimuli/scenes/090b.jpg,dist1,lure,target,dist2,0,0,0,0,0,20,20,3,,,,,,,,,,,114.09460370001034,None,115.11360250000143,None,115.11360250000143,None,115.11360250000143,None,115.11360250000143,None,115.11360250000143,None,115.11360250000143,None,115.11360250000143,None,115.11360250000143,None,115.11360250000143,None,115.11360250000143,None,115.11360250000143,None,d,2.8456273000047076,115.11360250000143,None,dist1,None,None,None,None,None,None,None,,,,,,,,,,,,,,ST02_112522,2022-11-25_15h25.34.830,Hippopolis_4AFCT,2021.1.4,59.78168923173896,
Hippopolis,stimuli/subj_files/ST02_112522_cityA.csv,./stimuli/seattle.jpg,./stimuli/street_plate1.png,GYŰRŰ UTCA,stimuli/objects/012a.jpg,object,1,stimuli/objects/019a.jpg,stimuli/objects/019a.jpg,stimuli/objects/019b.jpg,stimuli/scenes/013b.jpg,stimuli/scenes/013a.jpg,target,lure,dist2,dist1,0,0,0,0,0,21,21,28,,,,,,,,,,,117.97797810001066,None,118.98198939999565,None,118.98198939999565,None,118.98198939999565,None,118.98198939999565,None,118.98198939999565,None,118.98198939999565,None,118.98198939999565,None,118.98198939999565,None,118.98198939999565,None,118.98198939999565,None,118.98198939999565,None,d,3.4745472999929916,118.98198939999565,None,target,122.47851270998362,None,None,None,None,None,None,,,,,,,,,,,,,,ST02_112522,2022-11-25_15h25.34.830,Hippopolis_4AFCT,2021.1.4,59.78168923173896,
Hippopolis,stimuli/subj_files/ST02_112522_cityA.csv,./stimuli/seattle.jpg,./stimuli/street_plate1.png,VASALÓ UTCA,stimuli/objects/057a.jpg,object,0,stimuli/objects/057a.jpg,stimuli/scenes/016b.jpg,stimuli/objects/057b.jpg,stimuli/scenes/016a.jpg,stimuli/objects/057a.jpg,dist2,lure,dist1,target,0,0,0,0,0,22,22,64,,,,,,,,,,,122.47781670000404,None,123.48164089999045,None,123.48164089999045,None,123.48164089999045,None,123.48164089999045,None,123.48164089999045,None,123.48164089999045,None,123.48164089999045,None,123.48164089999045,None,123.48164089999045,None,123.48164089999045,None,123.48164089999045,None,j,3.7453629999945406,123.48164089999045,None,dist1,126.97893370001111,None,None,None,None,None,None,,,,,,,,,,,,,,ST02_112522,2022-11-25_15h25.34.830,Hippopolis_4AFCT,2021.1.4,59.78168923173896,
Hippopolis,stimuli/subj_files/ST02_112522_cityA.csv,./stimuli/seattle.jpg,./stimuli/street_plate1.png,FEJSZE UTCA,stimuli/scenes/114a.jpg,scene,0,stimuli/scenes/114a.jpg,stimuli/scenes/114b.jpg,stimuli/objects/114a.jpg,stimuli/objects/114b.jpg,stimuli/scenes/114a.jpg,lure,dist1,dist2,target,0,0,0,0,0,23,23,72,,,,,,,,,,,127.24498849999509,None,128.2595147000102,None,128.2595147000102,None,128.2595147000102,None,128.2595147000102,None,128.2595147000102,None,128.2595147000102,None,128.2595147000102,None,128.2595147000102,None,128.2595147000102,None,128.2595147000102,None,128.2595147000102,None,k,2.601653300022008,128.2595147000102,None,target,None,None,None,None,None,None,None,,,,,,,,,,,,,,ST02_112522,2022-11-25_15h25.34.830,Hippopolis_4AFCT,2021.1.4,59.78168923173896,
Hippopolis,stimuli/subj_files/ST02_112522_cityA.csv,./stimuli/seattle.jpg,./stimuli/street_plate1.png,FÓKA UTCA,stimuli/scenes/085a.jpg,scene,0,stimuli/scenes/085a.jpg,stimuli/scenes/085b.jpg,stimuli/scenes/117a.jpg,stimuli/scenes/085a.jpg,stimuli/scenes/117b.jpg,lure,dist1,target,dist2,0,0,0,0,0,24,24,44,,,,,,,,,,,130.87737129998277,None,131.89377769999555,None,131.89377769999555,None,131.89377769999555,None,131.89377769999555,None,131.89377769999555,None,131.89377769999555,None,131.89377769999555,None,131.89377769999555,None,131.89377769999555,None,131.89377769999555,None,131.89377769999555,None,j,2.3780429999751505,131.89377769999555,None,target,None,None,None,None,None,None,None,,,,,,,,,,,,,,ST02_112522,2022-11-25_15h25.34.830,Hippopolis_4AFCT,2021.1.4,59.78168923173896,
Hippopolis,stimuli/subj_files/ST02_112522_cityA.csv,./stimuli/seattle.jpg,./stimuli/street_plate1.png,KAKAÓ UTCA,stimuli/objects/054a.jpg,object,0,stimuli/objects/054a.jpg,stimuli/objects/054a.jpg,stimuli/objects/054b.jpg,stimuli/objects/036a.jpg,stimuli/objects/036b.jpg,target,lure,dist1,dist2,0,0,0,0,0,25,25,74,,,,,,,,,,,134.29397090000566,None,135.30800560000353,None,135.30800560000353,None,135.30800560000353,None,135.30800560000353,None,135.30800560000353,None,135.30800560000353,None,135.30800560000353,None,135.30800560000353,None,135.30800560000353,None,135.30800560000353,None,135.30800560000353,None,d,2.3657022999832407,135.30800560000353,None,target,None,None,None,None,None,None,None,,,,,,,,,,,,,,ST02_112522,2022-11-25_15h25.34.830,Hippopolis_4AFCT,2021.1.4,59.78168923173896,
Hippopolis,stimuli/subj_files/ST02_112522_cityA.csv,./stimuli/seattle.jpg,./stimuli/street_plate1.png,PAPRIKA UTCA,stimuli/scenes/082a.jpg,scene,2,stimuli/objects/009a.jpg,stimuli/objects/106b.jpg,stimuli/objects/106a.jpg,stimuli/objects/009a.jpg,stimuli/objects/009b.jpg,dist2,dist1,target,lure,0,0,0,0,0,26,26,59,,,,,,,,,,,137.69462769999518,None,138.70958379999502,None,138.70958379999502,None,138.70958379999502,None,138.70958379999502,None,138.70958379999502,None,138.70958379999502,None,138.70958379999502,None,138.70958379999502,None,138.70958379999502,None,138.70958379999502,None,138.70958379999502,None,f,3.0878636999987066,138.70958379999502,None,dist1,None,None,None,None,None,None,None,,,,,,,,,,,,,,ST02_112522,2022-11-25_15h25.34.830,Hippopolis_4AFCT,2021.1.4,59.78168923173896,
Hippopolis,stimuli/subj_files/ST02_112522_cityA.csv,./stimuli/seattle.jpg,./stimuli/street_plate1.png,SAJTÓ UTCA,stimuli/objects/102a.jpg,object,1,stimuli/objects/051a.jpg,stimuli/objects/108b.jpg,stimuli/objects/051a.jpg,stimuli/objects/051b.jpg,stimuli/objects/108a.jpg,dist2,target,lure,dist1,0,0,0,0,0,27,27,13,,,,,,,,,,,141.82772669999395,None,142.83914589998312,None,142.83914589998312,None,142.83914589998312,None,142.83914589998312,None,142.83914589998312,None,142.83914589998312,None,142.83914589998312,None,142.83914589998312,None,142.83914589998312,None,142.83914589998312,None,142.83914589998312,None,k,3.304526399995666,142.83914589998312,None,dist1,None,None,None,None,None,None,None,,,,,,,,,,,,,,ST02_112522,2022-11-25_15h25.34.830,Hippopolis_4AFCT,2021.1.4,59.78168923173896,
Hippopolis,stimuli/subj_files/ST02_112522_cityA.csv,./stimuli/seattle.jpg,./stimuli/street_plate1.png,BOHÓC UTCA,stimuli/objects/120a.jpg,object,2,stimuli/scenes/079a.jpg,stimuli/scenes/038b.jpg,stimuli/scenes/079a.jpg,stimuli/scenes/038a.jpg,stimuli/scenes/079b.jpg,dist2,target,dist1,lure,0,0,0,0,0,28,28,36,,,,,,,,,,,146.16072640000493,None,147.16541129999678,None,147.16541129999678,None,147.16541129999678,None,147.16541129999678,None,147.16541129999678,None,147.16541129999678,None,147.16541129999678,None,147.16541129999678,None,147.16541129999678,None,147.16541129999678,None,147.16541129999678,None,f,2.80507229999057,147.16541129999678,None,target,None,None,None,None,None,None,None,,,,,,,,,,,,,,ST02_112522,2022-11-25_15h25.34.830,Hippopolis_4AFCT,2021.1.4,59.78168923173896,
Hippopolis,stimuli/subj_files/ST02_112522_cityA.csv,./stimuli/seattle.jpg,./stimuli/street_plate1.png,HARCSA UTCA,stimuli/objects/098a.jpg,object,2,stimuli/scenes/090a.jpg,stimuli/scenes/090b.jpg,stimuli/scenes/090a.jpg,stimuli/scenes/110a.jpg,stimuli/scenes/110b.jpg,lure,target,dist1,dist2,0,0,0,0,0,29,29,78,,,,,,,,,,,149.99450659999275,None,150.99874779998208,None,150.99874779998208,None,150.99874779998208,None,150.99874779998208,None,150.99874779998208,None,150.99874779998208,None,150.99874779998208,None,150.99874779998208,None,150.99874779998208,None,150.99874779998208,None,150.99874779998208,None,d,3.3248185999982525,150.99874779998208,None,lure,None,None,None,None,None,None,None,,,,,,,,,,,,,,ST02_112522,2022-11-25_15h25.34.830,Hippopolis_4AFCT,2021.1.4,59.78168923173896,
Hippopolis,stimuli/subj_files/ST02_112522_cityA.csv,./stimuli/seattle.jpg,./stimuli/street_plate1.png,PAPAGÁJ UTCA,stimuli/objects/114a.jpg,object,0,stimuli/objects/114a.jpg,stimuli/objects/114a.jpg,stimuli/objects/052b.jpg,stimuli/objects/052a.jpg,stimuli/objects/114b.jpg,target,dist2,dist1,lure,0,0,0,0,0,30,30,48,,,,,,,,,,,154.34447809998528,None,155.3504566999909,None,155.3504566999909,None,155.3504566999909,None,155.3504566999909,None,155.3504566999909,None,155.3504566999909,None,155.3504566999909,None,155.3504566999909,None,155.3504566999909,None,155.3504566999909,None,155.3504566999909,None,d,2.167544600000838,155.3504566999909,None,target,None,None,None,None,None,None,None,,,,,,,,,,,,,,ST02_112522,2022-11-25_15h25.34.830,Hippopolis_4AFCT,2021.1.4,59.78168923173896,
Hippopolis,stimuli/subj_files/ST02_112522_cityA.csv,./stimuli/seattle.jpg,./stimuli/street_plate1.png,ASZTAL UTCA,stimuli/scenes/072a.jpg,scene,2,stimuli/objects/001a.jpg,stimuli/objects/001a.jpg,stimuli/scenes/079b.jpg,stimuli/scenes/079a.jpg,stimuli/objects/001b.jpg,target,dist2,dist1,lure,0,0,0,0,0,31,31,42,,,,,,,,,,,157.54380059998948,None,158.55358579999302,None,158.55358579999302,None,158.55358579999302,None,158.55358579999302,None,158.55358579999302,None,158.55358579999302,None,158.55358579999302,None,158.55358579999302,None,158.55358579999302,None,158.55358579999302,None,158.55358579999302,None,d,3.900869300006889,158.55358579999302,None,target,162.04472129998612,None,None,None,None,None,None,,,,,,,,,,,,,,ST02_112522,2022-11-25_15h25.34.830,Hippopolis_4AFCT,2021.1.4,59.78168923173896,
Hippopolis,stimuli/subj_files/ST02_112522_cityA.csv,./stimuli/seattle.jpg,./stimuli/street_plate1.png,PÁFRÁNY UTCA,stimuli/objects/037a.jpg,object,1,stimuli/objects/070a.jpg,stimuli/objects/070a.jpg,stimuli/scenes/066a.jpg,stimuli/objects/070b.jpg,stimuli/scenes/066b.jpg,target,dist1,lure,dist2,0,0,0,0,0,32,32,73,,,,,,,,,,,162.47756369999843,None,163.48990479999338,None,163.48990479999338,None,163.48990479999338,None,163.48990479999338,None,163.48990479999338,None,163.48990479999338,None,163.48990479999338,None,163.48990479999338,None,163.48990479999338,None,163.48990479999338,None,163.48990479999338,None,f,4.279261400020914,163.48990479999338,None,dist1,166.978051699989,None,None,None,None,None,None,,,,,,,,,,,,,,ST02_112522,2022-11-25_15h25.34.830,Hippopolis_4AFCT,2021.1.4,59.78168923173896,
Hippopolis,stimuli/subj_files/ST02_112522_cityA.csv,./stimuli/seattle.jpg,./stimuli/street_plate1.png,SZAXOFON UTCA,stimuli/scenes/103a.jpg,scene,1,stimuli/scenes/018a.jpg,stimuli/scenes/071b.jpg,stimuli/scenes/018a.jpg,stimuli/scenes/071a.jpg,stimuli/scenes/018b.jpg,dist2,target,dist1,lure,0,0,0,0,0,33,33,55,,,,,,,,,,,167.79380579999997,None,168.80267760000424,None,168.80267760000424,None,168.80267760000424,None,168.80267760000424,None,168.80267760000424,None,168.80267760000424,None,168.80267760000424,None,168.80267760000424,None,168.80267760000424,None,168.80267760000424,None,168.80267760000424,None,f,3.0400634999969043,168.80267760000424,None,target,None,None,None,None,None,None,None,,,,,,,,,,,,,,ST02_112522,2022-11-25_15h25.34.830,Hippopolis_4AFCT,2021.1.4,59.78168923173896,
Hippopolis,stimuli/subj_files/ST02_112522_cityA.csv,./stimuli/seattle.jpg,./stimuli/street_plate1.png,SZOMSZÉD UTCA,stimuli/scenes/017a.jpg,scene,1,stimuli/scenes/013a.jpg,stimuli/scenes/015a.jpg,stimuli/scenes/015b.jpg,stimuli/scenes/013b.jpg,stimuli/scenes/013a.jpg,dist1,dist2,lure,target,0,0,0,0,0,34,34,12,,,,,,,,,,,171.86046379999607,None,172.86893560001045,None,172.86893560001045,None,172.86893560001045,None,172.86893560001045,None,172.86893560001045,None,172.86893560001045,None,172.86893560001045,None,172.86893560001045,None,172.86893560001045,None,172.86893560001045,None,172.86893560001045,None,d,2.606234000006225,172.86893560001045,None,dist1,None,None,None,None,None,None,None,,,,,,,,,,,,,,ST02_112522,2022-11-25_15h25.34.830,Hippopolis_4AFCT,2021.1.4,59.78168923173896,
Hippopolis,stimuli/subj_files/ST02_112522_cityA.csv,./stimuli/seattle.jpg,./stimuli/street_plate1.png,HEGESZTŐ UTCA,stimuli/objects/053a.jpg,object,2,stimuli/scenes/051a.jpg,stimuli/scenes/051a.jpg,stimuli/scenes/046b.jpg,stimuli/scenes/046a.jpg,stimuli/scenes/051b.jpg,target,dist2,dist1,lure,0,0,0,0,0,35,35,10,,,,,,,,,,,175.49410999999964,None,176.49805950000882,None,176.49805950000882,None,176.49805950000882,None,176.49805950000882,None,176.49805950000882,None,176.49805950000882,None,176.49805950000882,None,176.49805950000882,None,176.49805950000882,None,176.49805950000882,None,176.49805950000882,None,f,4.332385500019882,176.49805950000882,None,dist2,179.9942185000109,None,None,None,None,None,None,,,,,,,,,,,,,,ST02_112522,2022-11-25_15h25.34.830,Hippopolis_4AFCT,2021.1.4,59.78168923173896,
Hippopolis,stimuli/subj_files/ST02_112522_cityA.csv,./stimuli/seattle.jpg,./stimuli/street_plate1.png,RÁDIÓ UTCA,stimuli/scenes/007a.jpg,scene,0,stimuli/scenes/007a.jpg,stimuli/scenes/114b.jpg,stimuli/scenes/114a.jpg,stimuli/scenes/007a.jpg,stimuli/scenes/007b.jpg,dist2,dist1,target,lure,0,0,0,0,0,36,36,41,,,,,,,,,,,180.86041520000435,None,181.86816260000342,None,181.86816260000342,None,181.86816260000342,None,181.86816260000342,None,181.86816260000342,None,181.86816260000342,None,181.86816260000342,None,181.86816260000342,None,181.86816260000342,None,181.86816260000342,None,181.86816260000342,None,j,2.461962200002745,181.86816260000342,None,target,None,None,None,None,None,None,None,,,,,,,,,,,,,,ST02_112522,2022-11-25_15h25.34.830,Hippopolis_4AFCT,2021.1.4,59.78168923173896,
Hippopolis,stimuli/subj_files/ST02_112522_cityA.csv,./stimuli/seattle.jpg,./stimuli/street_plate1.png,KOSÁR UTCA,stimuli/objects/081a.jpg,object,0,stimuli/objects/081a.jpg,stimuli/objects/081a.jpg,stimuli/scenes/083a.jpg,stimuli/scenes/083b.jpg,stimuli/objects/081b.jpg,target,dist1,dist2,lure,0,0,0,0,0,37,37,77,,,,,,,,,,,184.36009929998545,None,185.36452189998818,None,185.36452189998818,None,185.36452189998818,None,185.36452189998818,None,185.36452189998818,None,185.36452189998818,None,185.36452189998818,None,185.36452189998818,None,185.36452189998818,None,185.36452189998818,None,185.36452189998818,None,f,4.545415200002026,185.36452189998818,None,dist1,188.8606437999988,None,None,None,None,None,None,,,,,,,,,,,,,,ST02_112522,2022-11-25_15h25.34.830,Hippopolis_4AFCT,2021.1.4,59.78168923173896,
Hippopolis,stimuli/subj_files/ST02_112522_cityA.csv,./stimuli/seattle.jpg,./stimuli/street_plate1.png,TÁSKA UTCA,stimuli/scenes/049a.jpg,scene,1,stimuli/scenes/112a.jpg,stimuli/objects/030b.jpg,stimuli/objects/030a.jpg,stimuli/scenes/112a.jpg,stimuli/scenes/112b.jpg,dist2,dist1,target,lure,0,0,0,0,0,38,38,9,,,,,,,,,,,189.92654719998245,None,190.9396693999879,None,190.9396693999879,None,190.9396693999879,None,190.9396693999879,None,190.9396693999879,None,190.9396693999879,None,190.9396693999879,None,190.9396693999879,None,190.9396693999879,None,190.9396693999879,None,190.9396693999879,None,f,3.364110000024084,190.9396693999879,None,dist1,None,None,None,None,None,None,None,,,,,,,,,,,,,,ST02_112522,2022-11-25_15h25.34.830,Hippopolis_4AFCT,2021.1.4,59.78168923173896,
Hippopolis,stimuli/subj_files/ST02_112522_cityA.csv,./stimuli/seattle.jpg,./stimuli/street_plate1.png,ÁLOM UTCA,stimuli/scenes/083a.jpg,scene,0,stimuli/scenes/083a.jpg,stimuli/objects/031b.jpg,stimuli/scenes/083b.jpg,stimuli/objects/031a.jpg,stimuli/scenes/083a.jpg,dist2,lure,dist1,target,0,0,0,0,0,39,39,30,,,,,,,,,,,194.32712259999244,None,195.3386191999889,None,195.3386191999889,None,195.3386191999889,None,195.3386191999889,None,195.3386191999889,None,195.3386191999889,None,195.3386191999889,None,195.3386191999889,None,195.3386191999889,None,195.3386191999889,None,195.3386191999889,None,f,3.1537750999850687,195.3386191999889,None,lure,None,None,None,None,None,None,None,,,,,,,,,,,,,,ST02_112522,2022-11-25_15h25.34.830,Hippopolis_4AFCT,2021.1.4,59.78168923173896,
Hippopolis,stimuli/subj_files/ST02_112522_cityA.csv,./stimuli/seattle.jpg,./stimuli/street_plate1.png,PÉKSÉG UTCA,stimuli/scenes/014a.jpg,scene,1,stimuli/scenes/020a.jpg,stimuli/scenes/104a.jpg,stimuli/scenes/104b.jpg,stimuli/scenes/020a.jpg,stimuli/scenes/020b.jpg,dist1,dist2,target,lure,0,0,0,0,0,40,40,52,,,,,,,,,,,198.50997990000178,None,199.51692110000295,None,199.51692110000295,None,199.51692110000295,None,199.51692110000295,None,199.51692110000295,None,199.51692110000295,None,199.51692110000295,None,199.51692110000295,None,199.51692110000295,None,199.51692110000295,None,199.51692110000295,None,j,3.245968500006711,199.51692110000295,None,target,None,None,None,None,None,None,None,,,,,,,,,,,,,,ST02_112522,2022-11-25_15h25.34.830,Hippopolis_4AFCT,2021.1.4,59.78168923173896,
Hippopolis,stimuli/subj_files/ST02_112522_cityA.csv,./stimuli/seattle.jpg,./stimuli/street_plate1.png,HORGONY UTCA,stimuli/objects/031a.jpg,object,0,stimuli/objects/031a.jpg,stimuli/objects/031a.jpg,stimuli/objects/031b.jpg,stimuli/scenes/085a.jpg,stimuli/scenes/085b.jpg,target,lure,dist1,dist2,0,0,0,0,0,41,41,75,,,,,,,,,,,202.7935465000046,None,203.7956540999876,None,203.7956540999876,None,203.7956540999876,None,203.7956540999876,None,203.7956540999876,None,203.7956540999876,None,203.7956540999876,None,203.7956540999876,None,203.7956540999876,None,203.7956540999876,None,203.7956540999876,None,d,2.6940214000060223,203.7956540999876,None,target,None,None,None,None,None,None,None,,,,,,,,,,,,,,ST02_112522,2022-11-25_15h25.34.830,Hippopolis_4AFCT,2021.1.4,59.78168923173896,
Hippopolis,stimuli/subj_files/ST02_112522_cityA.csv,./stimuli/seattle.jpg,./stimuli/street_plate1.png,MENTA UTCA,stimuli/objects/109a.jpg,object,2,stimuli/scenes/038a.jpg,stimuli/scenes/038a.jpg,stimuli/scenes/038b.jpg,stimuli/objects/061b.jpg,stimuli/objects/061a.jpg,target,lure,dist2,dist1,0,0,0,0,0,42,42,66,,,,,,,,,,,206.51016909998725,None,207.5160184999986,None,207.5160184999986,None,207.5160184999986,None,207.5160184999986,None,207.5160184999986,None,207.5160184999986,None,207.5160184999986,None,207.5160184999986,None,207.5160184999986,None,207.5160184999986,None,207.5160184999986,None,d,3.113388500001747,207.5160184999986,None,target,None,None,None,None,None,None,None,,,,,,,,,,,,,,ST02_112522,2022-11-25_15h25.34.830,Hippopolis_4AFCT,2021.1.4,59.78168923173896,
Hippopolis,stimuli/subj_files/ST02_112522_cityA.csv,./stimuli/seattle.jpg,./stimuli/street_plate1.png,SZAPPAN UTCA,stimuli/objects/011a.jpg,object,0,stimuli/objects/011a.jpg,stimuli/objects/011b.jpg,stimuli/scenes/010a.jpg,stimuli/scenes/010b.jpg,stimuli/objects/011a.jpg,lure,dist1,dist2,target,0,0,0,0,0,43,43,76,,,,,,,,,,,210.6601538999821,None,211.66701370000374,None,211.66701370000374,None,211.66701370000374,None,211.66701370000374,None,211.66701370000374,None,211.66701370000374,None,211.66701370000374,None,211.66701370000374,None,211.66701370000374,None,211.66701370000374,None,211.66701370000374,None,f,4.591662399994675,211.66701370000374,None,dist1,215.1604493999912,None,None,None,None,None,None,,,,,,,,,,,,,,ST02_112522,2022-11-25_15h25.34.830,Hippopolis_4AFCT,2021.1.4,59.78168923173896,
Hippopolis,stimuli/subj_files/ST02_112522_cityA.csv,./stimuli/seattle.jpg,./stimuli/street_plate1.png,BANÁN UTCA,stimuli/objects/015a.jpg,object,2,stimuli/scenes/073a.jpg,stimuli/scenes/073a.jpg,stimuli/objects/009a.jpg,stimuli/objects/009b.jpg,stimuli/scenes/073b.jpg,target,dist1,dist2,lure,0,0,0,0,0,44,44,43,,,,,,,,,,,216.2761668000021,None,217.28550070000347,None,217.28550070000347,None,217.28550070000347,None,217.28550070000347,None,217.28550070000347,None,217.28550070000347,None,217.28550070000347,None,217.28550070000347,None,217.28550070000347,None,217.28550070000347,None,217.28550070000347,None,k,1.8961232999863569,217.28550070000347,None,lure,None,None,219.21010810000007,None,space,219.21010810000007,None,4.4906916999898385,,,,,,,,,,,,,ST02_112522,2022-11-25_15h25.34.830,Hippopolis_4AFCT,2021.1.4,59.78168923173896,
Hippopolis,stimuli/subj_files/ST02_112522_cityA.csv,./stimuli/seattle.jpg,./stimuli/street_plate1.png,SZILVA UTCA,stimuli/objects/045a.jpg,object,1,stimuli/objects/092a.jpg,stimuli/objects/092b.jpg,stimuli/objects/097b.jpg,stimuli/objects/092a.jpg,stimuli/objects/097a.jpg,lure,dist2,target,dist1,0,0,0,0,0,45,45,0,,,,,,,,,,,223.72667370000272,None,224.73542429998633,None,224.73542429998633,None,224.73542429998633,None,224.73542429998633,None,224.73542429998633,None,224.73542429998633,None,224.73542429998633,None,224.73542429998633,None,224.73542429998633,None,224.73542429998633,None,224.73542429998633,None,k,2.469888000021456,224.73542429998633,None,dist1,None,None,None,None,None,None,None,,,,,,,,,,,,,,ST02_112522,2022-11-25_15h25.34.830,Hippopolis_4AFCT,2021.1.4,59.78168923173896,
Hippopolis,stimuli/subj_files/ST02_112522_cityA.csv,./stimuli/seattle.jpg,./stimuli/street_plate1.png,MARTINI UTCA,stimuli/scenes/078a.jpg,scene,1,stimuli/scenes/080a.jpg,stimuli/scenes/080a.jpg,stimuli/scenes/080b.jpg,stimuli/scenes/106b.jpg,stimuli/scenes/106a.jpg,target,lure,dist2,dist1,0,0,0,0,0,46,46,45,,,,,,,,,,,227.22583609999856,None,228.23486080000293,None,228.23486080000293,None,228.23486080000293,None,228.23486080000293,None,228.23486080000293,None,228.23486080000293,None,228.23486080000293,None,228.23486080000293,None,228.23486080000293,None,228.23486080000293,None,228.23486080000293,None,d,3.20464599999832,228.23486080000293,None,target,None,None,None,None,None,None,None,,,,,,,,,,,,,,ST02_112522,2022-11-25_15h25.34.830,Hippopolis_4AFCT,2021.1.4,59.78168923173896,
Hippopolis,stimuli/subj_files/ST02_112522_cityA.csv,./stimuli/seattle.jpg,./stimuli/street_plate1.png,TENISZ UTCA,stimuli/scenes/039a.jpg,scene,1,stimuli/scenes/011a.jpg,stimuli/scenes/011a.jpg,stimuli/objects/051b.jpg,stimuli/scenes/011b.jpg,stimuli/objects/051a.jpg,target,dist2,lure,dist1,0,0,0,0,0,47,47,23,,,,,,,,,,,231.4592805999855,None,232.46573769999668,None,232.46573769999668,None,232.46573769999668,None,232.46573769999668,None,232.46573769999668,None,232.46573769999668,None,232.46573769999668,None,232.46573769999668,None,232.46573769999668,None,232.46573769999668,None,232.46573769999668,None,d,2.848971100000199,232.46573769999668,None,target,None,None,None,None,None,None,None,,,,,,,,,,,,,,ST02_112522,2022-11-25_15h25.34.830,Hippopolis_4AFCT,2021.1.4,59.78168923173896,
Hippopolis,stimuli/subj_files/ST02_112522_cityA.csv,./stimuli/seattle.jpg,./stimuli/street_plate1.png,KESZTYŰ UTCA,stimuli/scenes/089a.jpg,scene,1,stimuli/scenes/106a.jpg,stimuli/scenes/106a.jpg,stimuli/scenes/029a.jpg,stimuli/scenes/106b.jpg,stimuli/scenes/029b.jpg,target,dist1,lure,dist2,0,0,0,0,0,48,48,1,,,,,,,,,,,235.34302520001074,None,236.34665570000652,None,236.34665570000652,None,236.34665570000652,None,236.34665570000652,None,236.34665570000652,None,236.34665570000652,None,236.34665570000652,None,236.34665570000652,None,236.34665570000652,None,236.34665570000652,None,236.34665570000652,None,d,3.364486299979035,236.34665570000652,None,target,None,None,None,None,None,None,None,,,,,,,,,,,,,,ST02_112522,2022-11-25_15h25.34.830,Hippopolis_4AFCT,2021.1.4,59.78168923173896,
Hippopolis,stimuli/subj_files/ST02_112522_cityA.csv,./stimuli/seattle.jpg,./stimuli/street_plate1.png,BÚJÓCSKA UTCA,stimuli/objects/035a.jpg,object,0,stimuli/objects/035a.jpg,stimuli/objects/034b.jpg,stimuli/objects/035a.jpg,stimuli/objects/034a.jpg,stimuli/objects/035b.jpg,dist2,target,dist1,lure,0,0,0,0,0,49,49,2,,,,,,,,,,,239.74238199999672,None,240.75301369998488,None,240.75301369998488,None,240.75301369998488,None,240.75301369998488,None,240.75301369998488,None,240.75301369998488,None,240.75301369998488,None,240.75301369998488,None,240.75301369998488,None,240.75301369998488,None,240.75301369998488,None,f,2.3353139999962877,240.75301369998488,None,target,None,None,None,None,None,None,None,,,,,,,,,,,,,,ST02_112522,2022-11-25_15h25.34.830,Hippopolis_4AFCT,2021.1.4,59.78168923173896,
Hippopolis,stimuli/subj_files/ST02_112522_cityA.csv,./stimuli/seattle.jpg,./stimuli/street_plate1.png,TRIATLON UTCA,stimuli/scenes/006a.jpg,scene,2,stimuli/objects/103a.jpg,stimuli/objects/103b.jpg,stimuli/scenes/041a.jpg,stimuli/objects/103a.jpg,stimuli/scenes/041b.jpg,lure,dist1,target,dist2,0,0,0,0,0,50,50,31,,,,,,,,,,,243.1090821000107,None,244.11811179999495,None,244.11811179999495,None,244.11811179999495,None,244.11811179999495,None,244.11811179999495,None,244.11811179999495,None,244.11811179999495,None,244.11811179999495,None,244.11811179999495,None,244.11811179999495,None,244.11811179999495,None,j,4.500633400020888,244.11811179999495,None,target,247.60975899998448,None,None,None,None,None,None,,,,,,,,,,,,,,ST02_112522,2022-11-25_15h25.34.830,Hippopolis_4AFCT,2021.1.4,59.78168923173896,
Hippopolis,stimuli/subj_files/ST02_112522_cityA.csv,./stimuli/seattle.jpg,./stimuli/street_plate1.png,TOLMÁCS UTCA,stimuli/objects/044a.jpg,object,2,stimuli/scenes/110a.jpg,stimuli/scenes/110a.jpg,stimuli/scenes/110b.jpg,stimuli/objects/028b.jpg,stimuli/objects/028a.jpg,target,lure,dist2,dist1,0,0,0,0,0,51,51,63,,,,,,,,,,,248.6425384999893,None,249.6504530000093,None,249.6504530000093,None,249.6504530000093,None,249.6504530000093,None,249.6504530000093,None,249.6504530000093,None,249.6504530000093,None,249.6504530000093,None,249.6504530000093,None,249.6504530000093,None,249.6504530000093,None,d,2.831429100013338,249.6504530000093,None,target,None,None,None,None,None,None,None,,,,,,,,,,,,,,ST02_112522,2022-11-25_15h25.34.830,Hippopolis_4AFCT,2021.1.4,59.78168923173896,
Hippopolis,stimuli/subj_files/ST02_112522_cityA.csv,./stimuli/seattle.jpg,./stimuli/street_plate1.png,OLDAL UTCA,stimuli/objects/079a.jpg,object,0,stimuli/objects/079a.jpg,stimuli/objects/079a.jpg,stimuli/scenes/120a.jpg,stimuli/objects/079b.jpg,stimuli/scenes/120b.jpg,target,dist1,lure,dist2,0,0,0,0,0,52,52,70,,,,,,,,,,,252.50870050000958,None,253.5168188000098,None,253.5168188000098,None,253.5168188000098,None,253.5168188000098,None,253.5168188000098,None,253.5168188000098,None,253.5168188000098,None,253.5168188000098,None,253.5168188000098,None,253.5168188000098,None,253.5168188000098,None,d,2.62481619999744,253.5168188000098,None,target,None,None,None,None,None,None,None,,,,,,,,,,,,,,ST02_112522,2022-11-25_15h25.34.830,Hippopolis_4AFCT,2021.1.4,59.78168923173896,
Hippopolis,stimuli/subj_files/ST02_112522_cityA.csv,./stimuli/seattle.jpg,./stimuli/street_plate1.png,TOJÁS UTCA,stimuli/scenes/001a.jpg,scene,2,stimuli/objects/072a.jpg,stimuli/scenes/108b.jpg,stimuli/scenes/108a.jpg,stimuli/objects/072a.jpg,stimuli/objects/072b.jpg,dist2,dist1,target,lure,0,0,0,0,0,53,53,65,,,,,,,,,,,256.15894269998535,None,257.16403809998883,None,257.16403809998883,None,257.16403809998883,None,257.16403809998883,None,257.16403809998883,None,257.16403809998883,None,257.16403809998883,None,257.16403809998883,None,257.16403809998883,None,257.16403809998883,None,257.16403809998883,None,j,2.6440644999966025,257.16403809998883,None,target,None,None,None,None,None,None,None,,,,,,,,,,,,,,ST02_112522,2022-11-25_15h25.34.830,Hippopolis_4AFCT,2021.1.4,59.78168923173896,
Hippopolis,stimuli/subj_files/ST02_112522_cityA.csv,./stimuli/seattle.jpg,./stimuli/street_plate1.png,PÁRNA UTCA,stimuli/objects/021a.jpg,object,2,stimuli/scenes/046a.jpg,stimuli/scenes/073b.jpg,stimuli/scenes/046a.jpg,stimuli/scenes/046b.jpg,stimuli/scenes/073a.jpg,dist2,target,lure,dist1,0,0,0,0,0,54,54,40,,,,,,,,,,,259.8254755999951,None,260.82807339998544,None,260.82807339998544,None,260.82807339998544,None,260.82807339998544,None,260.82807339998544,None,260.82807339998544,None,260.82807339998544,None,260.82807339998544,None,260.82807339998544,None,260.82807339998544,None,260.82807339998544,None,f,3.8356483000097796,260.82807339998544,None,target,264.32622009998886,None,None,None,None,None,None,,,,,,,,,,,,,,ST02_112522,2022-11-25_15h25.34.830,Hippopolis_4AFCT,2021.1.4,59.78168923173896,
Hippopolis,stimuli/subj_files/ST02_112522_cityA.csv,./stimuli/seattle.jpg,./stimuli/street_plate1.png,KOKTÉL UTCA,stimuli/scenes/010a.jpg,scene,0,stimuli/scenes/010a.jpg,stimuli/scenes/010a.jpg,stimuli/objects/079a.jpg,stimuli/scenes/010b.jpg,stimuli/objects/079b.jpg,target,dist1,lure,dist2,0,0,0,0,0,55,55,62,,,,,,,,,,,264.6924689000007,None,265.69933090000995,None,265.69933090000995,None,265.69933090000995,None,265.69933090000995,None,265.69933090000995,None,265.69933090000995,None,265.69933090000995,None,265.69933090000995,None,265.69933090000995,None,265.69933090000995,None,265.69933090000995,None,d,2.6483674999908544,265.69933090000995,None,target,None,None,None,None,None,None,None,,,,,,,,,,,,,,ST02_112522,2022-11-25_15h25.34.830,Hippopolis_4AFCT,2021.1.4,59.78168923173896,
Hippopolis,stimuli/subj_files/ST02_112522_cityA.csv,./stimuli/seattle.jpg,./stimuli/street_plate1.png,ÁLLOMÁS UTCA,stimuli/scenes/053a.jpg,scene,1,stimuli/scenes/015a.jpg,stimuli/objects/038b.jpg,stimuli/scenes/015b.jpg,stimuli/scenes/015a.jpg,stimuli/objects/038a.jpg,dist2,lure,target,dist1,0,0,0,0,0,56,56,67,,,,,,,,,,,268.37581609998597,None,269.3847309999983,None,269.3847309999983,None,269.3847309999983,None,269.3847309999983,None,269.3847309999983,None,269.3847309999983,None,269.3847309999983,None,269.3847309999983,None,269.3847309999983,None,269.3847309999983,None,269.3847309999983,None,j,4.600573900010204,269.3847309999983,None,target,272.8765761000104,None,None,None,None,None,None,,,,,,,,,,,,,,ST02_112522,2022-11-25_15h25.34.830,Hippopolis_4AFCT,2021.1.4,59.78168923173896,
Hippopolis,stimuli/subj_files/ST02_112522_cityA.csv,./stimuli/seattle.jpg,./stimuli/street_plate1.png,KULLANCS UTCA,stimuli/scenes/057a.jpg,scene,1,stimuli/scenes/066a.jpg,stimuli/scenes/080a.jpg,stimuli/scenes/066b.jpg,stimuli/scenes/080b.jpg,stimuli/scenes/066a.jpg,dist1,lure,dist2,target,0,0,0,0,0,57,57,71,,,,,,,,,,,274.0089647999848,None,275.0111084000091,None,275.0111084000091,None,275.0111084000091,None,275.0111084000091,None,275.0111084000091,None,275.0111084000091,None,275.0111084000091,None,275.0111084000091,None,275.0111084000091,None,275.0111084000091,None,275.0111084000091,None,k,2.5503560999932233,275.0111084000091,None,target,None,None,None,None,None,None,None,,,,,,,,,,,,,,ST02_112522,2022-11-25_15h25.34.830,Hippopolis_4AFCT,2021.1.4,59.78168923173896,
Hippopolis,stimuli/subj_files/ST02_112522_cityA.csv,./stimuli/seattle.jpg,./stimuli/street_plate1.png,PADLÓ UTCA,stimuli/scenes/062a.jpg,scene,2,stimuli/objects/028a.jpg,stimuli/objects/028a.jpg,stimuli/objects/028b.jpg,stimuli/objects/103b.jpg,stimuli/objects/103a.jpg,target,lure,dist2,dist1,0,0,0,0,0,58,58,32,,,,,,,,,,,277.59223740000743,None,278.6077905999846,None,278.6077905999846,None,278.6077905999846,None,278.6077905999846,None,278.6077905999846,None,278.6077905999846,None,278.6077905999846,None,278.6077905999846,None,278.6077905999846,None,278.6077905999846,None,278.6077905999846,None,d,2.567623700015247,278.6077905999846,None,target,None,None,None,None,None,None,None,,,,,,,,,,,,,,ST02_112522,2022-11-25_15h25.34.830,Hippopolis_4AFCT,2021.1.4,59.78168923173896,
Hippopolis,stimuli/subj_files/ST02_112522_cityA.csv,./stimuli/seattle.jpg,./stimuli/street_plate1.png,MÁRVÁNY UTCA,stimuli/scenes/035a.jpg,scene,1,stimuli/scenes/042a.jpg,stimuli/scenes/112a.jpg,stimuli/scenes/042b.jpg,stimuli/scenes/112b.jpg,stimuli/scenes/042a.jpg,dist1,lure,dist2,target,0,0,0,0,0,59,59,61,,,,,,,,,,,281.20786580001004,None,282.2163847000047,None,282.2163847000047,None,282.2163847000047,None,282.2163847000047,None,282.2163847000047,None,282.2163847000047,None,282.2163847000047,None,282.2163847000047,None,282.2163847000047,None,282.2163847000047,None,282.2163847000047,None,f,1.9349934000056237,282.2163847000047,None,lure,None,None,None,None,None,None,None,,,,,,,,,,,,,,ST02_112522,2022-11-25_15h25.34.830,Hippopolis_4AFCT,2021.1.4,59.78168923173896,
Hippopolis,stimuli/subj_files/ST02_112522_cityA.csv,./stimuli/seattle.jpg,./stimuli/street_plate1.png,CITROM UTCA,stimuli/scenes/043a.jpg,scene,2,stimuli/objects/117a.jpg,stimuli/objects/117a.jpg,stimuli/objects/022a.jpg,stimuli/objects/022b.jpg,stimuli/objects/117b.jpg,target,dist1,dist2,lure,0,0,0,0,0,60,60,29,,,,,,,,,,,284.1753434999846,None,285.1847524000041,None,285.1847524000041,None,285.1847524000041,None,285.1847524000041,None,285.1847524000041,None,285.1847524000041,None,285.1847524000041,None,285.1847524000041,None,285.1847524000041,None,285.1847524000041,None,285.1847524000041,None,d,2.392190099984873,285.1847524000041,None,target,None,None,None,None,None,None,None,,,,,,,,,,,,,,ST02_112522,2022-11-25_15h25.34.830,Hippopolis_4AFCT,2021.1.4,59.78168923173896,
Hippopolis,stimuli/subj_files/ST02_112522_cityA.csv,./stimuli/seattle.jpg,./stimuli/street_plate1.png,VITORLA UTCA,stimuli/objects/027a.jpg,object,2,stimuli/scenes/094a.jpg,stimuli/objects/056a.jpg,stimuli/scenes/094a.jpg,stimuli/objects/056b.jpg,stimuli/scenes/094b.jpg,dist1,target,dist2,lure,0,0,0,0,0,61,61,17,,,,,,,,,,,287.60831999999937,None,288.62615900000674,None,288.62615900000674,None,288.62615900000674,None,288.62615900000674,None,288.62615900000674,None,288.62615900000674,None,288.62615900000674,None,288.62615900000674,None,288.62615900000674,None,288.62615900000674,None,288.62615900000674,None,k,4.300236799987033,288.62615900000674,None,lure,292.12616029998753,None,None,None,None,None,None,,,,,,,,,,,,,,ST02_112522,2022-11-25_15h25.34.830,Hippopolis_4AFCT,2021.1.4,59.78168923173896,
Hippopolis,stimuli/subj_files/ST02_112522_cityA.csv,./stimuli/seattle.jpg,./stimuli/street_plate1.png,FÉNYKÉP UTCA,stimuli/objects/036a.jpg,object,0,stimuli/objects/036a.jpg,stimuli/scenes/036a.jpg,stimuli/scenes/036b.jpg,stimuli/objects/036b.jpg,stimuli/objects/036a.jpg,dist1,dist2,lure,target,0,0,0,0,0,62,62,24,,,,,,,,,,,292.9586367000011,None,293.9624790000089,None,293.9624790000089,None,293.9624790000089,None,293.9624790000089,None,293.9624790000089,None,293.9624790000089,None,293.9624790000089,None,293.9624790000089,None,293.9624790000089,None,293.9624790000089,None,293.9624790000089,None,k,2.6619352999841794,293.9624790000089,None,target,None,None,None,None,None,None,None,,,,,,,,,,,,,,ST02_112522,2022-11-25_15h25.34.830,Hippopolis_4AFCT,2021.1.4,59.78168923173896,
Hippopolis,stimuli/subj_files/ST02_112522_cityA.csv,./stimuli/seattle.jpg,./stimuli/street_plate1.png,EGÉR UTCA,stimuli/scenes/120a.jpg,scene,0,stimuli/scenes/120a.jpg,stimuli/scenes/056b.jpg,stimuli/scenes/120a.jpg,stimuli/scenes/056a.jpg,stimuli/scenes/120b.jpg,dist2,target,dist1,lure,0,0,0,0,0,63,63,35,,,,,,,,,,,296.6418583999912,None,297.6493466999964,None,297.6493466999964,None,297.6493466999964,None,297.6493466999964,None,297.6493466999964,None,297.6493466999964,None,297.6493466999964,None,297.6493466999964,None,297.6493466999964,None,297.6493466999964,None,297.6493466999964,None,f,4.533521900011692,297.6493466999964,None,target,301.142585900001,None,None,None,None,None,None,,,,,,,,,,,,,,ST02_112522,2022-11-25_15h25.34.830,Hippopolis_4AFCT,2021.1.4,59.78168923173896,
Hippopolis,stimuli/subj_files/ST02_112522_cityA.csv,./stimuli/seattle.jpg,./stimuli/street_plate1.png,TELEFON UTCA,stimuli/objects/113a.jpg,object,2,stimuli/scenes/088a.jpg,stimuli/scenes/088b.jpg,stimuli/scenes/094b.jpg,stimuli/scenes/094a.jpg,stimuli/scenes/088a.jpg,lure,dist2,dist1,target,0,0,0,0,0,64,64,7,,,,,,,,,,,302.2085124999867,None,303.2123736999929,None,303.2123736999929,None,303.2123736999929,None,303.2123736999929,None,303.2123736999929,None,303.2123736999929,None,303.2123736999929,None,303.2123736999929,None,303.2123736999929,None,303.2123736999929,None,303.2123736999929,None,j,4.749652500002412,303.2123736999929,None,dist1,306.7091053999902,None,None,None,None,None,None,,,,,,,,,,,,,,ST02_112522,2022-11-25_15h25.34.830,Hippopolis_4AFCT,2021.1.4,59.78168923173896,
Hippopolis,stimuli/subj_files/ST02_112522_cityA.csv,./stimuli/seattle.jpg,./stimuli/street_plate1.png,KERÉK UTCA,stimuli/objects/039a.jpg,object,1,stimuli/objects/097a.jpg,stimuli/objects/019a.jpg,stimuli/objects/097b.jpg,stimuli/objects/019b.jpg,stimuli/objects/097a.jpg,dist1,lure,dist2,target,0,0,0,0,0,65,65,15,,,,,,,,,,,307.991735699994,None,309.00166419998277,None,309.00166419998277,None,309.00166419998277,None,309.00166419998277,None,309.00166419998277,None,309.00166419998277,None,309.00166419998277,None,309.00166419998277,None,309.00166419998277,None,309.00166419998277,None,309.00166419998277,None,k,3.5590416000050027,309.00166419998277,None,target,312.49163370000315,None,None,None,None,None,None,,,,,,,,,,,,,,ST02_112522,2022-11-25_15h25.34.830,Hippopolis_4AFCT,2021.1.4,59.78168923173896,
Hippopolis,stimuli/subj_files/ST02_112522_cityA.csv,./stimuli/seattle.jpg,./stimuli/street_plate1.png,KÁRTYA UTCA,stimuli/objects/018a.jpg,object,1,stimuli/objects/003a.jpg,stimuli/objects/003b.jpg,stimuli/objects/016b.jpg,stimuli/objects/003a.jpg,stimuli/objects/016a.jpg,lure,dist2,target,dist1,0,0,0,0,0,66,66,68,,,,,,,,,,,312.59124899999006,None,313.59818390000146,None,313.59818390000146,None,313.59818390000146,None,313.59818390000146,None,313.59818390000146,None,313.59818390000146,None,313.59818390000146,None,313.59818390000146,None,313.59818390000146,None,313.59818390000146,None,313.59818390000146,None,j,3.4680095000076108,313.59818390000146,None,target,317.07554869999876,None,None,None,None,None,None,,,,,,,,,,,,,,ST02_112522,2022-11-25_15h25.34.830,Hippopolis_4AFCT,2021.1.4,59.78168923173896,
Hippopolis,stimuli/subj_files/ST02_112522_cityA.csv,./stimuli/seattle.jpg,./stimuli/street_plate1.png,AKÁC UTCA,stimuli/scenes/063a.jpg,scene,1,stimuli/scenes/071a.jpg,stimuli/scenes/071a.jpg,stimuli/scenes/071b.jpg,stimuli/scenes/091b.jpg,stimuli/scenes/091a.jpg,target,lure,dist2,dist1,0,0,0,0,0,67,67,50,,,,,,,,,,,317.09118379998836,None,318.10125139998854,None,318.10125139998854,None,318.10125139998854,None,318.10125139998854,None,318.10125139998854,None,318.10125139998854,None,318.10125139998854,None,318.10125139998854,None,318.10125139998854,None,318.10125139998854,None,318.10125139998854,None,d,2.8552744000044186,318.10125139998854,None,target,None,None,None,None,None,None,None,,,,,,,,,,,,,,ST02_112522,2022-11-25_15h25.34.830,Hippopolis_4AFCT,2021.1.4,59.78168923173896,
Hippopolis,stimuli/subj_files/ST02_112522_cityA.csv,./stimuli/seattle.jpg,./stimuli/street_plate1.png,FÜGE UTCA,stimuli/objects/080a.jpg,object,1,stimuli/objects/030a.jpg,stimuli/objects/030b.jpg,stimuli/objects/030a.jpg,stimuli/objects/070a.jpg,stimuli/objects/070b.jpg,lure,target,dist1,dist2,0,0,0,0,0,68,68,22,,,,,,,,,,,320.974228600011,None,321.9859718999942,None,321.9859718999942,None,321.9859718999942,None,321.9859718999942,None,321.9859718999942,None,321.9859718999942,None,321.9859718999942,None,321.9859718999942,None,321.9859718999942,None,321.9859718999942,None,321.9859718999942,None,j,2.151326399995014,321.9859718999942,None,dist1,None,None,None,None,None,None,None,,,,,,,,,,,,,,ST02_112522,2022-11-25_15h25.34.830,Hippopolis_4AFCT,2021.1.4,59.78168923173896,
Hippopolis,stimuli/subj_files/ST02_112522_cityA.csv,./stimuli/seattle.jpg,./stimuli/street_plate1.png,TISZTÁS UTCA,stimuli/scenes/031a.jpg,scene,2,stimuli/objects/068a.jpg,stimuli/objects/068b.jpg,stimuli/scenes/047b.jpg,stimuli/objects/068a.jpg,stimuli/scenes/047a.jpg,lure,dist2,target,dist1,0,0,0,0,0,69,69,51,,,,,,,,,,,324.1582589999889,None,325.1660818000091,None,325.1660818000091,None,325.1660818000091,None,325.1660818000091,None,325.1660818000091,None,325.1660818000091,None,325.1660818000091,None,325.1660818000091,None,325.1660818000091,None,325.1660818000091,None,325.1660818000091,None,j,3.5001908999984153,325.1660818000091,None,target,328.65880509998533,None,None,None,None,None,None,,,,,,,,,,,,,,ST02_112522,2022-11-25_15h25.34.830,Hippopolis_4AFCT,2021.1.4,59.78168923173896,
Hippopolis,stimuli/subj_files/ST02_112522_cityA.csv,./stimuli/seattle.jpg,./stimuli/street_plate1.png,KRÉTA UTCA,stimuli/scenes/119a.jpg,scene,0,stimuli/scenes/119a.jpg,stimuli/objects/035b.jpg,stimuli/scenes/119b.jpg,stimuli/objects/035a.jpg,stimuli/scenes/119a.jpg,dist2,lure,dist1,target,0,0,0,0,0,70,70,79,,,,,,,,,,,328.6908683000074,None,329.69819190001,None,329.69819190001,None,329.69819190001,None,329.69819190001,None,329.69819190001,None,329.69819190001,None,329.69819190001,None,329.69819190001,None,329.69819190001,None,329.69819190001,None,329.69819190001,None,k,2.808839800010901,329.69819190001,None,target,None,None,None,None,None,None,None,,,,,,,,,,,,,,ST02_112522,2022-11-25_15h25.34.830,Hippopolis_4AFCT,2021.1.4,59.78168923173896,
Hippopolis,stimuli/subj_files/ST02_112522_cityA.csv,./stimuli/seattle.jpg,./stimuli/street_plate1.png,TÜKÖR UTCA,stimuli/objects/025a.jpg,object,1,stimuli/objects/108a.jpg,stimuli/objects/108a.jpg,stimuli/objects/108b.jpg,stimuli/scenes/011b.jpg,stimuli/scenes/011a.jpg,target,lure,dist2,dist1,0,0,0,0,0,71,71,21,,,,,,,,,,,332.52413569999044,None,333.53358309998293,None,333.53358309998293,None,333.53358309998293,None,333.53358309998293,None,333.53358309998293,None,333.53358309998293,None,333.53358309998293,None,333.53358309998293,None,333.53358309998293,None,333.53358309998293,None,333.53358309998293,None,d,4.269775900000241,333.53358309998293,None,target,337.02473050000845,None,None,None,None,None,None,,,,,,,,,,,,,,ST02_112522,2022-11-25_15h25.34.830,Hippopolis_4AFCT,2021.1.4,59.78168923173896,
Hippopolis,stimuli/subj_files/ST02_112522_cityA.csv,./stimuli/seattle.jpg,./stimuli/street_plate1.png,RÓZSA UTCA,stimuli/scenes/102a.jpg,scene,2,stimuli/objects/061a.jpg,stimuli/objects/061b.jpg,stimuli/objects/001b.jpg,stimuli/objects/061a.jpg,stimuli/objects/001a.jpg,lure,dist2,target,dist1,0,0,0,0,0,72,72,38,,,,,,,,,,,337.8246593000076,None,338.82977859998937,None,338.82977859998937,None,338.82977859998937,None,338.82977859998937,None,338.82977859998937,None,338.82977859998937,None,338.82977859998937,None,338.82977859998937,None,338.82977859998937,None,338.82977859998937,None,338.82977859998937,None,j,4.414652000006754,338.82977859998937,None,target,342.3245348999917,None,None,None,None,None,None,,,,,,,,,,,,,,ST02_112522,2022-11-25_15h25.34.830,Hippopolis_4AFCT,2021.1.4,59.78168923173896,
Hippopolis,stimuli/subj_files/ST02_112522_cityA.csv,./stimuli/seattle.jpg,./stimuli/street_plate1.png,LEMEZ UTCA,stimuli/scenes/111a.jpg,scene,2,stimuli/objects/106a.jpg,stimuli/scenes/065a.jpg,stimuli/objects/106a.jpg,stimuli/objects/106b.jpg,stimuli/scenes/065b.jpg,dist1,target,lure,dist2,0,0,0,0,0,73,73,49,,,,,,,,,,,343.27436099998886,None,344.27923099999316,None,344.27923099999316,None,344.27923099999316,None,344.27923099999316,None,344.27923099999316,None,344.27923099999316,None,344.27923099999316,None,344.27923099999316,None,344.27923099999316,None,344.27923099999316,None,344.27923099999316,None,f,2.086129500006791,344.27923099999316,None,target,None,None,None,None,None,None,None,,,,,,,,,,,,,,ST02_112522,2022-11-25_15h25.34.830,Hippopolis_4AFCT,2021.1.4,59.78168923173896,
Hippopolis,stimuli/subj_files/ST02_112522_cityA.csv,./stimuli/seattle.jpg,./stimuli/street_plate1.png,KORONG UTCA,stimuli/objects/046a.jpg,object,1,stimuli/objects/099a.jpg,stimuli/objects/099a.jpg,stimuli/objects/099b.jpg,stimuli/objects/062a.jpg,stimuli/objects/062b.jpg,target,lure,dist1,dist2,0,0,0,0,0,74,74,53,,,,,,,,,,,346.3910256999952,None,347.4013644999941,None,347.4013644999941,None,347.4013644999941,None,347.4013644999941,None,347.4013644999941,None,347.4013644999941,None,347.4013644999941,None,347.4013644999941,None,347.4013644999941,None,347.4013644999941,None,347.4013644999941,None,d,2.6327389999933075,347.4013644999941,None,target,None,None,None,None,None,None,None,,,,,,,,,,,,,,ST02_112522,2022-11-25_15h25.34.830,Hippopolis_4AFCT,2021.1.4,59.78168923173896,
Hippopolis,stimuli/subj_files/ST02_112522_cityA.csv,./stimuli/seattle.jpg,./stimuli/street_plate1.png,KORONA UTCA,stimuli/scenes/116a.jpg,scene,1,stimuli/scenes/104a.jpg,stimuli/scenes/104b.jpg,stimuli/scenes/018a.jpg,stimuli/scenes/104a.jpg,stimuli/scenes/018b.jpg,lure,dist1,target,dist2,0,0,0,0,0,75,75,56,,,,,,,,,,,350.0577149000019,None,351.0616391999938,None,351.0616391999938,None,351.0616391999938,None,351.0616391999938,None,351.0616391999938,None,351.0616391999938,None,351.0616391999938,None,351.0616391999938,None,351.0616391999938,None,351.0616391999938,None,351.0616391999938,None,j,4.452254499978153,351.0616391999938,None,target,354.55781199998455,None,None,None,None,None,None,,,,,,,,,,,,,,ST02_112522,2022-11-25_15h25.34.830,Hippopolis_4AFCT,2021.1.4,59.78168923173896,
Hippopolis,stimuli/subj_files/ST02_112522_cityA.csv,./stimuli/seattle.jpg,./stimuli/street_plate1.png,KOCKA UTCA,stimuli/scenes/002a.jpg,scene,2,stimuli/objects/111a.jpg,stimuli/objects/111a.jpg,stimuli/objects/072a.jpg,stimuli/objects/072b.jpg,stimuli/objects/111b.jpg,target,dist1,dist2,lure,0,0,0,0,0,76,76,16,,,,,,,,,,,355.5402749000059,None,356.5483556999825,None,356.5483556999825,None,356.5483556999825,None,356.5483556999825,None,356.5483556999825,None,356.5483556999825,None,356.5483556999825,None,356.5483556999825,None,356.5483556999825,None,356.5483556999825,None,356.5483556999825,None,k,3.886725300020771,356.5483556999825,None,lure,360.04153970000334,None,None,None,None,None,None,,,,,,,,,,,,,,ST02_112522,2022-11-25_15h25.34.830,Hippopolis_4AFCT,2021.1.4,59.78168923173896,
Hippopolis,stimuli/subj_files/ST02_112522_cityA.csv,./stimuli/seattle.jpg,./stimuli/street_plate1.png,HARMONIKA UTCA,stimuli/objects/023a.jpg,object,1,stimuli/objects/090a.jpg,stimuli/objects/090a.jpg,stimuli/objects/092b.jpg,stimuli/objects/092a.jpg,stimuli/objects/090b.jpg,target,dist2,dist1,lure,0,0,0,0,0,77,77,25,,,,,,,,,,,360.4575782000029,None,361.465246000007,None,361.465246000007,None,361.465246000007,None,361.465246000007,None,361.465246000007,None,361.465246000007,None,361.465246000007,None,361.465246000007,None,361.465246000007,None,361.465246000007,None,361.465246000007,None,d,2.3861076000030152,361.465246000007,None,target,None,None,None,None,None,None,None,,,,,,,,,,,,,,ST02_112522,2022-11-25_15h25.34.830,Hippopolis_4AFCT,2021.1.4,59.78168923173896,
Hippopolis,stimuli/subj_files/ST02_112522_cityA.csv,./stimuli/seattle.jpg,./stimuli/street_plate1.png,SZIKLA UTCA,stimuli/scenes/055a.jpg,scene,1,stimuli/scenes/029a.jpg,stimuli/objects/090a.jpg,stimuli/objects/090b.jpg,stimuli/scenes/029b.jpg,stimuli/scenes/029a.jpg,dist1,dist2,lure,target,0,0,0,0,0,78,78,4,,,,,,,,,,,363.87387469998794,None,364.88166340001044,None,364.88166340001044,None,364.88166340001044,None,364.88166340001044,None,364.88166340001044,None,364.88166340001044,None,364.88166340001044,None,364.88166340001044,None,364.88166340001044,None,364.88166340001044,None,364.88166340001044,None,k,3.310701300011715,364.88166340001044,None,target,None,None,None,None,None,None,None,,,,,,,,,,,,,,ST02_112522,2022-11-25_15h25.34.830,Hippopolis_4AFCT,2021.1.4,59.78168923173896,
Hippopolis,stimuli/subj_files/ST02_112522_cityA.csv,./stimuli/seattle.jpg,./stimuli/street_plate1.png,LABDA UTCA,stimuli/objects/063a.jpg,object,1,stimuli/objects/016a.jpg,stimuli/objects/095b.jpg,stimuli/objects/016b.jpg,stimuli/objects/095a.jpg,stimuli/objects/016a.jpg,dist2,lure,dist1,target,0,0,0,0,0,79,79,47,,,,,,,,,,,368.2240940000047,None,369.2314878999896,None,369.2314878999896,None,369.2314878999896,None,369.2314878999896,None,369.2314878999896,None,369.2314878999896,None,369.2314878999896,None,369.2314878999896,None,369.2314878999896,None,369.2314878999896,None,369.2314878999896,None,k,4.519739500014111,369.2314878999896,None,target,372.7242611999973,None,None,None,None,None,None,,,,,,,,,,,,,,ST02_112522,2022-11-25_15h25.34.830,Hippopolis_4AFCT,2021.1.4,59.78168923173896,
Camponello,stimuli/subj_files/ST02_112522_cityB.csv,./stimuli/hallstatt.jpg,./stimuli/street_plate2.png,FIÓK UTCA,stimuli/scenes/059a.jpg,scene,0,stimuli/scenes/059a.jpg,stimuli/scenes/059b.jpg,stimuli/scenes/084b.jpg,stimuli/scenes/084a.jpg,stimuli/scenes/059a.jpg,lure,dist2,dist1,target,0,1,1,1,0,0,0,3,,,,,,,395.57059210000443,None,395.57059210000443,None,398.5777686999936,None,399.6220530999999,None,399.6220530999999,None,399.6220530999999,None,399.6220530999999,None,399.6220530999999,None,399.6220530999999,None,399.6220530999999,None,399.6220530999999,None,399.6220530999999,None,399.6220530999999,None,399.6220530999999,None,j,3.2837694000045303,399.6220530999999,None,dist1,None,None,None,None,None,None,None,,56,7,14,3,373.7734310000087,None,space,21.761475300008897,373.7734310000087,None,,,ST02_112522,2022-11-25_15h25.34.830,Hippopolis_4AFCT,2021.1.4,59.78168923173896,
Camponello,stimuli/subj_files/ST02_112522_cityB.csv,./stimuli/hallstatt.jpg,./stimuli/street_plate2.png,CSILLAG UTCA,stimuli/scenes/025a.jpg,scene,2,stimuli/objects/060a.jpg,stimuli/scenes/044a.jpg,stimuli/scenes/044b.jpg,stimuli/objects/060a.jpg,stimuli/objects/060b.jpg,dist1,dist2,target,lure,0,1,1,1,0,1,1,19,,,,,,,,,,,402.92288470000494,None,403.9347262000083,None,403.9347262000083,None,403.9347262000083,None,403.9347262000083,None,403.9347262000083,None,403.9347262000083,None,403.9347262000083,None,403.9347262000083,None,403.9347262000083,None,403.9347262000083,None,403.9347262000083,None,j,3.130678999994416,403.9347262000083,None,target,None,None,None,None,None,None,None,,,,,,,,,,,,,,ST02_112522,2022-11-25_15h25.34.830,Hippopolis_4AFCT,2021.1.4,59.78168923173896,
Camponello,stimuli/subj_files/ST02_112522_cityB.csv,./stimuli/hallstatt.jpg,./stimuli/street_plate2.png,KERET UTCA,stimuli/scenes/075a.jpg,scene,0,stimuli/scenes/075a.jpg,stimuli/scenes/075b.jpg,stimuli/scenes/075a.jpg,stimuli/objects/082b.jpg,stimuli/objects/082a.jpg,lure,target,dist2,dist1,0,1,1,1,0,2,2,14,,,,,,,,,,,407.08990110000013,None,408.09940770000685,None,408.09940770000685,None,408.09940770000685,None,408.09940770000685,None,408.09940770000685,None,408.09940770000685,None,408.09940770000685,None,408.09940770000685,None,408.09940770000685,None,408.09940770000685,None,408.09940770000685,None,f,2.665657499979716,408.09940770000685,None,target,None,None,None,None,None,None,None,,,,,,,,,,,,,,ST02_112522,2022-11-25_15h25.34.830,Hippopolis_4AFCT,2021.1.4,59.78168923173896,
Camponello,stimuli/subj_files/ST02_112522_cityB.csv,./stimuli/hallstatt.jpg,./stimuli/street_plate2.png,HERNYÓ UTCA,stimuli/scenes/019a.jpg,scene,0,stimuli/scenes/019a.jpg,stimuli/objects/014b.jpg,stimuli/objects/014a.jpg,stimuli/scenes/019a.jpg,stimuli/scenes/019b.jpg,dist2,dist1,target,lure,0,1,1,1,0,3,3,12,,,,,,,,,,,410.7898092000105,None,411.79909469999257,None,411.79909469999257,None,411.79909469999257,None,411.79909469999257,None,411.79909469999257,None,411.79909469999257,None,411.79909469999257,None,411.79909469999257,None,411.79909469999257,None,411.79909469999257,None,411.79909469999257,None,k,4.533084800001234,411.79909469999257,None,lure,415.2900556999957,None,None,None,None,None,None,,,,,,,,,,,,,,ST02_112522,2022-11-25_15h25.34.830,Hippopolis_4AFCT,2021.1.4,59.78168923173896,
Camponello,stimuli/subj_files/ST02_112522_cityB.csv,./stimuli/hallstatt.jpg,./stimuli/street_plate2.png,ÜVEG UTCA,stimuli/scenes/076a.jpg,scene,2,stimuli/objects/066a.jpg,stimuli/objects/066b.jpg,stimuli/objects/066a.jpg,stimuli/objects/047a.jpg,stimuli/objects/047b.jpg,lure,target,dist1,dist2,0,1,1,1,0,4,4,47,,,,,,,,,,,416.3560725999996,None,417.3725715999899,None,417.3725715999899,None,417.3725715999899,None,417.3725715999899,None,417.3725715999899,None,417.3725715999899,None,417.3725715999899,None,417.3725715999899,None,417.3725715999899,None,417.3725715999899,None,417.3725715999899,None,f,1.9827753999852575,417.3725715999899,None,target,None,None,None,None,None,None,None,,,,,,,,,,,,,,ST02_112522,2022-11-25_15h25.34.830,Hippopolis_4AFCT,2021.1.4,59.78168923173896,
Camponello,stimuli/subj_files/ST02_112522_cityB.csv,./stimuli/hallstatt.jpg,./stimuli/street_plate2.png,LIGET UTCA,stimuli/objects/042a.jpg,object,1,stimuli/objects/008a.jpg,stimuli/objects/008a.jpg,stimuli/objects/071a.jpg,stimuli/objects/008b.jpg,stimuli/objects/071b.jpg,target,dist1,lure,dist2,0,1,1,1,0,5,5,21,,,,,,,,,,,419.37309119998827,None,420.38781640000525,None,420.38781640000525,None,420.38781640000525,None,420.38781640000525,None,420.38781640000525,None,420.38781640000525,None,420.38781640000525,None,420.38781640000525,None,420.38781640000525,None,420.38781640000525,None,420.38781640000525,None,d,3.1974213999928907,420.38781640000525,None,target,None,None,None,None,None,None,None,,,,,,,,,,,,,,ST02_112522,2022-11-25_15h25.34.830,Hippopolis_4AFCT,2021.1.4,59.78168923173896,
Camponello,stimuli/subj_files/ST02_112522_cityB.csv,./stimuli/hallstatt.jpg,./stimuli/street_plate2.png,MOGYORÓ UTCA,stimuli/objects/089a.jpg,object,0,stimuli/objects/089a.jpg,stimuli/objects/089b.jpg,stimuli/objects/089a.jpg,stimuli/scenes/027b.jpg,stimuli/scenes/027a.jpg,lure,target,dist2,dist1,0,1,1,1,0,6,6,5,,,,,,,,,,,423.6062333000009,None,424.6180710000044,None,424.6180710000044,None,424.6180710000044,None,424.6180710000044,None,424.6180710000044,None,424.6180710000044,None,424.6180710000044,None,424.6180710000044,None,424.6180710000044,None,424.6180710000044,None,424.6180710000044,None,f,3.1653789000120014,424.6180710000044,None,target,None,None,None,None,None,None,None,,,,,,,,,,,,,,ST02_112522,2022-11-25_15h25.34.830,Hippopolis_4AFCT,2021.1.4,59.78168923173896,
Camponello,stimuli/subj_files/ST02_112522_cityB.csv,./stimuli/hallstatt.jpg,./stimuli/street_plate2.png,SZOBOR UTCA,stimuli/scenes/084a.jpg,scene,0,stimuli/scenes/084a.jpg,stimuli/scenes/061b.jpg,stimuli/scenes/061a.jpg,stimuli/scenes/084b.jpg,stimuli/scenes/084a.jpg,dist2,dist1,lure,target,0,1,1,1,0,7,7,50,,,,,,,,,,,427.8062120999966,None,428.8098076999886,None,428.8098076999886,None,428.8098076999886,None,428.8098076999886,None,428.8098076999886,None,428.8098076999886,None,428.8098076999886,None,428.8098076999886,None,428.8098076999886,None,428.8098076999886,None,428.8098076999886,None,k,2.921268899983261,428.8098076999886,None,target,None,None,None,None,None,None,None,,,,,,,,,,,,,,ST02_112522,2022-11-25_15h25.34.830,Hippopolis_4AFCT,2021.1.4,59.78168923173896,
Camponello,stimuli/subj_files/ST02_112522_cityB.csv,./stimuli/hallstatt.jpg,./stimuli/street_plate2.png,MUSTÁR UTCA,stimuli/scenes/028a.jpg,scene,0,stimuli/scenes/028a.jpg,stimuli/scenes/028b.jpg,stimuli/objects/004a.jpg,stimuli/objects/004b.jpg,stimuli/scenes/028a.jpg,lure,dist1,dist2,target,0,1,1,1,0,8,8,24,,,,,,,,,,,431.75557770000887,None,432.76638429999,None,432.76638429999,None,432.76638429999,None,432.76638429999,None,432.76638429999,None,432.76638429999,None,432.76638429999,None,432.76638429999,None,432.76638429999,None,432.76638429999,None,432.76638429999,None,k,2.7438312000012957,432.76638429999,None,target,None,None,None,None,None,None,None,,,,,,,,,,,,,,ST02_112522,2022-11-25_15h25.34.830,Hippopolis_4AFCT,2021.1.4,59.78168923173896,
Camponello,stimuli/subj_files/ST02_112522_cityB.csv,./stimuli/hallstatt.jpg,./stimuli/street_plate2.png,PAPUCS UTCA,stimuli/objects/043a.jpg,object,0,stimuli/objects/043a.jpg,stimuli/objects/043b.jpg,stimuli/objects/043a.jpg,stimuli/scenes/028b.jpg,stimuli/scenes/028a.jpg,lure,target,dist2,dist1,0,1,1,1,0,9,9,45,,,,,,,,,,,435.53907249998883,None,436.54872659998364,None,436.54872659998364,None,436.54872659998364,None,436.54872659998364,None,436.54872659998364,None,436.54872659998364,None,436.54872659998364,None,436.54872659998364,None,436.54872659998364,None,436.54872659998364,None,436.54872659998364,None,f,2.827140200010035,436.54872659998364,None,target,None,None,None,None,None,None,None,,,,,,,,,,,,,,ST02_112522,2022-11-25_15h25.34.830,Hippopolis_4AFCT,2021.1.4,59.78168923173896,
Camponello,stimuli/subj_files/ST02_112522_cityB.csv,./stimuli/hallstatt.jpg,./stimuli/street_plate2.png,MOSODA UTCA,stimuli/scenes/105a.jpg,scene,2,stimuli/objects/005a.jpg,stimuli/objects/049b.jpg,stimuli/objects/049a.jpg,stimuli/objects/005b.jpg,stimuli/objects/005a.jpg,dist2,dist1,lure,target,0,1,1,1,0,10,10,26,,,,,,,,,,,439.40565820000484,None,440.4159897000063,None,440.4159897000063,None,440.4159897000063,None,440.4159897000063,None,440.4159897000063,None,440.4159897000063,None,440.4159897000063,None,440.4159897000063,None,440.4159897000063,None,440.4159897000063,None,440.4159897000063,None,f,2.8025261999864597,440.4159897000063,None,dist1,None,None,None,None,None,None,None,,,,,,,,,,,,,,ST02_112522,2022-11-25_15h25.34.830,Hippopolis_4AFCT,2021.1.4,59.78168923173896,
Camponello,stimuli/subj_files/ST02_112522_cityB.csv,./stimuli/hallstatt.jpg,./stimuli/street_plate2.png,TÁNYÉR UTCA,stimuli/scenes/097a.jpg,scene,2,stimuli/objects/116a.jpg,stimuli/scenes/113b.jpg,stimuli/scenes/113a.jpg,stimuli/objects/116a.jpg,stimuli/objects/116b.jpg,dist2,dist1,target,lure,0,1,1,1,0,11,11,42,,,,,,,,,,,443.23932429999695,None,444.24371619999874,None,444.24371619999874,None,444.24371619999874,None,444.24371619999874,None,444.24371619999874,None,444.24371619999874,None,444.24371619999874,None,444.24371619999874,None,444.24371619999874,None,444.24371619999874,None,444.24371619999874,None,j,4.16323750000447,444.24371619999874,None,target,447.7398936999962,None,None,None,None,None,None,,,,,,,,,,,,,,ST02_112522,2022-11-25_15h25.34.830,Hippopolis_4AFCT,2021.1.4,59.78168923173896,
Camponello,stimuli/subj_files/ST02_112522_cityB.csv,./stimuli/hallstatt.jpg,./stimuli/street_plate2.png,LEGELŐ UTCA,stimuli/scenes/052a.jpg,scene,0,stimuli/scenes/052a.jpg,stimuli/scenes/052a.jpg,stimuli/scenes/052b.jpg,stimuli/scenes/059b.jpg,stimuli/scenes/059a.jpg,target,lure,dist2,dist1,0,1,1,1,0,12,12,30,,,,,,,,,,,448.4391967999982,None,449.4452265999862,None,449.4452265999862,None,449.4452265999862,None,449.4452265999862,None,449.4452265999862,None,449.4452265999862,None,449.4452265999862,None,449.4452265999862,None,449.4452265999862,None,449.4452265999862,None,449.4452265999862,None,d,2.9082170000183396,449.4452265999862,None,target,None,None,None,None,None,None,None,,,,,,,,,,,,,,ST02_112522,2022-11-25_15h25.34.830,Hippopolis_4AFCT,2021.1.4,59.78168923173896,
Camponello,stimuli/subj_files/ST02_112522_cityB.csv,./stimuli/hallstatt.jpg,./stimuli/street_plate2.png,ECSET UTCA,stimuli/objects/115a.jpg,object,1,stimuli/objects/007a.jpg,stimuli/scenes/074b.jpg,stimuli/objects/007b.jpg,stimuli/objects/007a.jpg,stimuli/scenes/074a.jpg,dist2,lure,target,dist1,0,1,1,1,0,13,13,43,,,,,,,,,,,452.3724288000085,None,453.3814788000018,None,453.3814788000018,None,453.3814788000018,None,453.3814788000018,None,453.3814788000018,None,453.3814788000018,None,453.3814788000018,None,453.3814788000018,None,453.3814788000018,None,453.3814788000018,None,453.3814788000018,None,j,2.9300370999844745,453.3814788000018,None,target,None,None,None,None,None,None,None,,,,,,,,,,,,,,ST02_112522,2022-11-25_15h25.34.830,Hippopolis_4AFCT,2021.1.4,59.78168923173896,
Camponello,stimuli/subj_files/ST02_112522_cityB.csv,./stimuli/hallstatt.jpg,./stimuli/street_plate2.png,ÁRNYÉK UTCA,stimuli/objects/088a.jpg,object,0,stimuli/objects/088a.jpg,stimuli/objects/089a.jpg,stimuli/objects/088a.jpg,stimuli/objects/089b.jpg,stimuli/objects/088b.jpg,dist1,target,dist2,lure,0,1,1,1,0,14,14,31,,,,,,,,,,,456.33910029998515,None,457.3500386000087,None,457.3500386000087,None,457.3500386000087,None,457.3500386000087,None,457.3500386000087,None,457.3500386000087,None,457.3500386000087,None,457.3500386000087,None,457.3500386000087,None,457.3500386000087,None,457.3500386000087,None,f,2.1507044000027236,457.3500386000087,None,target,None,None,None,None,None,None,None,,,,,,,,,,,,,,ST02_112522,2022-11-25_15h25.34.830,Hippopolis_4AFCT,2021.1.4,59.78168923173896,
Camponello,stimuli/subj_files/ST02_112522_cityB.csv,./stimuli/hallstatt.jpg,./stimuli/street_plate2.png,VIHAR UTCA,stimuli/objects/059a.jpg,object,2,stimuli/scenes/113a.jpg,stimuli/scenes/113a.jpg,stimuli/scenes/068a.jpg,stimuli/scenes/068b.jpg,stimuli/scenes/113b.jpg,target,dist1,dist2,lure,0,1,1,1,0,15,15,18,,,,,,,,,,,459.5218557000044,None,460.5298768999928,None,460.5298768999928,None,460.5298768999928,None,460.5298768999928,None,460.5298768999928,None,460.5298768999928,None,460.5298768999928,None,460.5298768999928,None,460.5298768999928,None,460.5298768999928,None,460.5298768999928,None,d,3.5921757000032812,460.5298768999928,None,target,464.02247880000505,None,None,None,None,None,None,,,,,,,,,,,,,,ST02_112522,2022-11-25_15h25.34.830,Hippopolis_4AFCT,2021.1.4,59.78168923173896,
Camponello,stimuli/subj_files/ST02_112522_cityB.csv,./stimuli/hallstatt.jpg,./stimuli/street_plate2.png,SIRÁLY UTCA,stimuli/objects/033a.jpg,object,0,stimuli/objects/033a.jpg,stimuli/scenes/069a.jpg,stimuli/objects/033a.jpg,stimuli/objects/033b.jpg,stimuli/scenes/069b.jpg,dist1,target,lure,dist2,0,1,1,1,0,16,16,15,,,,,,,,,,,464.13856019999366,None,465.1454442999966,None,465.1454442999966,None,465.1454442999966,None,465.1454442999966,None,465.1454442999966,None,465.1454442999966,None,465.1454442999966,None,465.1454442999966,None,465.1454442999966,None,465.1454442999966,None,465.1454442999966,None,f,2.657363600010285,465.1454442999966,None,target,None,None,None,None,None,None,None,,,,,,,,,,,,,,ST02_112522,2022-11-25_15h25.34.830,Hippopolis_4AFCT,2021.1.4,59.78168923173896,
Camponello,stimuli/subj_files/ST02_112522_cityB.csv,./stimuli/hallstatt.jpg,./stimuli/street_plate2.png,MANDARIN UTCA,stimuli/scenes/118a.jpg,scene,1,stimuli/scenes/022a.jpg,stimuli/scenes/022a.jpg,stimuli/scenes/022b.jpg,stimuli/scenes/048a.jpg,stimuli/scenes/048b.jpg,target,lure,dist1,dist2,0,1,1,1,0,17,17,22,,,,,,,,,,,467.8216657000012,None,468.8278093999834,None,468.8278093999834,None,468.8278093999834,None,468.8278093999834,None,468.8278093999834,None,468.8278093999834,None,468.8278093999834,None,468.8278093999834,None,468.8278093999834,None,468.8278093999834,None,468.8278093999834,None,d,3.8044021999812685,468.8278093999834,None,target,472.322731799999,None,None,None,None,None,None,,,,,,,,,,,,,,ST02_112522,2022-11-25_15h25.34.830,Hippopolis_4AFCT,2021.1.4,59.78168923173896,
Camponello,stimuli/subj_files/ST02_112522_cityB.csv,./stimuli/hallstatt.jpg,./stimuli/street_plate2.png,NARANCS UTCA,stimuli/objects/032a.jpg,object,0,stimuli/objects/032a.jpg,stimuli/objects/032b.jpg,stimuli/objects/077a.jpg,stimuli/objects/032a.jpg,stimuli/objects/077b.jpg,lure,dist1,target,dist2,0,1,1,1,0,18,18,10,,,,,,,,,,,472.6555255999847,None,473.6692331999948,None,473.6692331999948,None,473.6692331999948,None,473.6692331999948,None,473.6692331999948,None,473.6692331999948,None,473.6692331999948,None,473.6692331999948,None,473.6692331999948,None,473.6692331999948,None,473.6692331999948,None,d,2.962366799998563,473.6692331999948,None,lure,None,None,None,None,None,None,None,,,,,,,,,,,,,,ST02_112522,2022-11-25_15h25.34.830,Hippopolis_4AFCT,2021.1.4,59.78168923173896,
Camponello,stimuli/subj_files/ST02_112522_cityB.csv,./stimuli/hallstatt.jpg,./stimuli/street_plate2.png,POLIP UTCA,stimuli/scenes/003a.jpg,scene,0,stimuli/scenes/003a.jpg,stimuli/scenes/003b.jpg,stimuli/scenes/003a.jpg,stimuli/scenes/075a.jpg,stimuli/scenes/075b.jpg,lure,target,dist1,dist2,0,1,1,1,0,19,19,34,,,,,,,,,,,476.6548153999902,None,477.6636090000102,None,477.6636090000102,None,477.6636090000102,None,477.6636090000102,None,477.6636090000102,None,477.6636090000102,None,477.6636090000102,None,477.6636090000102,None,477.6636090000102,None,477.6636090000102,None,477.6636090000102,None,None,,477.6636090000102,None,invalid,481.1560141000082,482.65581239998573,None,None,None,None,None,,,,,,,,,,,,,,ST02_112522,2022-11-25_15h25.34.830,Hippopolis_4AFCT,2021.1.4,59.78168923173896,
Camponello,stimuli/subj_files/ST02_112522_cityB.csv,./stimuli/hallstatt.jpg,./stimuli/street_plate2.png,LÉPCSŐ UTCA,stimuli/objects/085a.jpg,object,2,stimuli/scenes/044a.jpg,stimuli/scenes/044b.jpg,stimuli/scenes/044a.jpg,stimuli/scenes/037b.jpg,stimuli/scenes/037a.jpg,lure,target,dist2,dist1,0,1,1,1,0,20,20,41,,,,,,,,,,,482.6712247999967,None,483.6766867999977,None,483.6766867999977,None,483.6766867999977,None,483.6766867999977,None,483.6766867999977,None,483.6766867999977,None,483.6766867999977,None,483.6766867999977,None,483.6766867999977,None,483.6766867999977,None,483.6766867999977,None,f,3.1282062999962363,483.6766867999977,None,target,None,None,None,None,None,None,None,,,,,,,,,,,,,,ST02_112522,2022-11-25_15h25.34.830,Hippopolis_4AFCT,2021.1.4,59.78168923173896,
Camponello,stimuli/subj_files/ST02_112522_cityB.csv,./stimuli/hallstatt.jpg,./stimuli/street_plate2.png,TELEP UTCA,stimuli/scenes/109a.jpg,scene,0,stimuli/scenes/109a.jpg,stimuli/objects/074b.jpg,stimuli/objects/074a.jpg,stimuli/scenes/109a.jpg,stimuli/scenes/109b.jpg,dist2,dist1,target,lure,0,1,1,1,0,21,21,28,,,,,,,,,,,486.82180760000483,None,487.83768820000114,None,487.83768820000114,None,487.83768820000114,None,487.83768820000114,None,487.83768820000114,None,487.83768820000114,None,487.83768820000114,None,487.83768820000114,None,487.83768820000114,None,487.83768820000114,None,487.83768820000114,None,d,3.81764550000662,487.83768820000114,None,dist2,491.3386193999904,None,None,None,None,None,None,,,,,,,,,,,,,,ST02_112522,2022-11-25_15h25.34.830,Hippopolis_4AFCT,2021.1.4,59.78168923173896,
Camponello,stimuli/subj_files/ST02_112522_cityB.csv,./stimuli/hallstatt.jpg,./stimuli/street_plate2.png,BONBON UTCA,stimuli/objects/096a.jpg,object,0,stimuli/objects/096a.jpg,stimuli/scenes/109b.jpg,stimuli/objects/096a.jpg,stimuli/scenes/109a.jpg,stimuli/objects/096b.jpg,dist2,target,dist1,lure,0,1,1,1,0,22,22,61,,,,,,,,,,,491.6712966999912,None,492.68105469999136,None,492.68105469999136,None,492.68105469999136,None,492.68105469999136,None,492.68105469999136,None,492.68105469999136,None,492.68105469999136,None,492.68105469999136,None,492.68105469999136,None,492.68105469999136,None,492.68105469999136,None,f,4.199059699982172,492.68105469999136,None,target,496.172395600006,None,None,None,None,None,None,,,,,,,,,,,,,,ST02_112522,2022-11-25_15h25.34.830,Hippopolis_4AFCT,2021.1.4,59.78168923173896,
Camponello,stimuli/subj_files/ST02_112522_cityB.csv,./stimuli/hallstatt.jpg,./stimuli/street_plate2.png,RIBIZLI UTCA,stimuli/objects/084a.jpg,object,1,stimuli/objects/076a.jpg,stimuli/objects/076b.jpg,stimuli/objects/076a.jpg,stimuli/scenes/064b.jpg,stimuli/scenes/064a.jpg,lure,target,dist2,dist1,0,1,1,1,0,23,23,71,,,,,,,,,,,496.9050000999996,None,497.9148896999832,None,497.9148896999832,None,497.9148896999832,None,497.9148896999832,None,497.9148896999832,None,497.9148896999832,None,497.9148896999832,None,497.9148896999832,None,497.9148896999832,None,497.9148896999832,None,497.9148896999832,None,f,2.659152300009737,497.9148896999832,None,target,None,None,None,None,None,None,None,,,,,,,,,,,,,,ST02_112522,2022-11-25_15h25.34.830,Hippopolis_4AFCT,2021.1.4,59.78168923173896,
Camponello,stimuli/subj_files/ST02_112522_cityB.csv,./stimuli/hallstatt.jpg,./stimuli/street_plate2.png,MOCSÁR UTCA,stimuli/scenes/034a.jpg,scene,0,stimuli/scenes/034a.jpg,stimuli/scenes/009a.jpg,stimuli/scenes/034a.jpg,stimuli/scenes/009b.jpg,stimuli/scenes/034b.jpg,dist1,target,dist2,lure,0,1,1,1,0,24,24,79,,,,,,,,,,,500.6049662999867,None,501.6116240999836,None,501.6116240999836,None,501.6116240999836,None,501.6116240999836,None,501.6116240999836,None,501.6116240999836,None,501.6116240999836,None,501.6116240999836,None,501.6116240999836,None,501.6116240999836,None,501.6116240999836,None,f,2.1345945999783,501.6116240999836,None,target,None,None,None,None,None,None,None,,,,,,,,,,,,,,ST02_112522,2022-11-25_15h25.34.830,Hippopolis_4AFCT,2021.1.4,59.78168923173896,
Camponello,stimuli/subj_files/ST02_112522_cityB.csv,./stimuli/hallstatt.jpg,./stimuli/street_plate2.png,BOLYGÓ UTCA,stimuli/scenes/069a.jpg,scene,0,stimuli/scenes/069a.jpg,stimuli/scenes/050a.jpg,stimuli/scenes/069a.jpg,stimuli/scenes/069b.jpg,stimuli/scenes/050b.jpg,dist1,target,lure,dist2,0,1,1,1,0,25,25,52,,,,,,,,,,,503.7713831999863,None,504.7733118000033,None,504.7733118000033,None,504.7733118000033,None,504.7733118000033,None,504.7733118000033,None,504.7733118000033,None,504.7733118000033,None,504.7733118000033,None,504.7733118000033,None,504.7733118000033,None,504.7733118000033,None,f,2.0631527999939863,504.7733118000033,None,target,None,None,None,None,None,None,None,,,,,,,,,,,,,,ST02_112522,2022-11-25_15h25.34.830,Hippopolis_4AFCT,2021.1.4,59.78168923173896,
Camponello,stimuli/subj_files/ST02_112522_cityB.csv,./stimuli/hallstatt.jpg,./stimuli/street_plate2.png,TORONY UTCA,stimuli/scenes/067a.jpg,scene,1,stimuli/scenes/064a.jpg,stimuli/scenes/064a.jpg,stimuli/objects/083a.jpg,stimuli/scenes/064b.jpg,stimuli/objects/083b.jpg,target,dist1,lure,dist2,0,1,1,1,0,26,26,63,,,,,,,,,,,506.85434059999534,None,507.8692797999829,None,507.8692797999829,None,507.8692797999829,None,507.8692797999829,None,507.8692797999829,None,507.8692797999829,None,507.8692797999829,None,507.8692797999829,None,507.8692797999829,None,507.8692797999829,None,507.8692797999829,None,j,4.089125600003172,507.8692797999829,None,lure,511.354926400003,None,None,None,None,None,None,,,,,,,,,,,,,,ST02_112522,2022-11-25_15h25.34.830,Hippopolis_4AFCT,2021.1.4,59.78168923173896,
Camponello,stimuli/subj_files/ST02_112522_cityB.csv,./stimuli/hallstatt.jpg,./stimuli/street_plate2.png,SALÁTA UTCA,stimuli/scenes/021a.jpg,scene,1,stimuli/scenes/058a.jpg,stimuli/objects/076a.jpg,stimuli/scenes/058b.jpg,stimuli/scenes/058a.jpg,stimuli/objects/076b.jpg,dist1,lure,target,dist2,0,1,1,1,0,27,27,56,,,,,,,,,,,511.98824440001044,None,512.9991792000073,None,512.9991792000073,None,512.9991792000073,None,512.9991792000073,None,512.9991792000073,None,512.9991792000073,None,512.9991792000073,None,512.9991792000073,None,512.9991792000073,None,512.9991792000073,None,512.9991792000073,None,j,2.6073738999839406,512.9991792000073,None,target,None,None,None,None,None,None,None,,,,,,,,,,,,,,ST02_112522,2022-11-25_15h25.34.830,Hippopolis_4AFCT,2021.1.4,59.78168923173896,
Camponello,stimuli/subj_files/ST02_112522_cityB.csv,./stimuli/hallstatt.jpg,./stimuli/street_plate2.png,TOLLTARTÓ UTCA,stimuli/objects/074a.jpg,object,0,stimuli/objects/074a.jpg,stimuli/objects/074a.jpg,stimuli/objects/074b.jpg,stimuli/objects/032a.jpg,stimuli/objects/032b.jpg,target,lure,dist1,dist2,0,1,1,1,0,28,28,16,,,,,,,,,,,515.6375117999851,None,516.6534609000082,None,516.6534609000082,None,516.6534609000082,None,516.6534609000082,None,516.6534609000082,None,516.6534609000082,None,516.6534609000082,None,516.6534609000082,None,516.6534609000082,None,516.6534609000082,None,516.6534609000082,None,d,4.768146100017475,516.6534609000082,None,target,520.1386270000075,None,None,None,None,None,None,,,,,,,,,,,,,,ST02_112522,2022-11-25_15h25.34.830,Hippopolis_4AFCT,2021.1.4,59.78168923173896,
Camponello,stimuli/subj_files/ST02_112522_cityB.csv,./stimuli/hallstatt.jpg,./stimuli/street_plate2.png,LÉTRA UTCA,stimuli/objects/041a.jpg,object,0,stimuli/objects/041a.jpg,stimuli/objects/041b.jpg,stimuli/objects/041a.jpg,stimuli/objects/073a.jpg,stimuli/objects/073b.jpg,lure,target,dist1,dist2,0,1,1,1,0,29,29,69,,,,,,,,,,,521.4375969000102,None,522.4530624999898,None,522.4530624999898,None,522.4530624999898,None,522.4530624999898,None,522.4530624999898,None,522.4530624999898,None,522.4530624999898,None,522.4530624999898,None,522.4530624999898,None,522.4530624999898,None,522.4530624999898,None,j,4.196675100014545,522.4530624999898,None,dist1,525.9384662999946,None,None,None,None,None,None,,,,,,,,,,,,,,ST02_112522,2022-11-25_15h25.34.830,Hippopolis_4AFCT,2021.1.4,59.78168923173896,
Camponello,stimuli/subj_files/ST02_112522_cityB.csv,./stimuli/hallstatt.jpg,./stimuli/street_plate2.png,TULIPÁN UTCA,stimuli/objects/040a.jpg,object,0,stimuli/objects/040a.jpg,stimuli/scenes/077a.jpg,stimuli/objects/040b.jpg,stimuli/objects/040a.jpg,stimuli/scenes/077b.jpg,dist1,lure,target,dist2,0,1,1,1,0,30,30,13,,,,,,,,,,,526.670884399995,None,527.6842532999872,None,527.6842532999872,None,527.6842532999872,None,527.6842532999872,None,527.6842532999872,None,527.6842532999872,None,527.6842532999872,None,527.6842532999872,None,527.6842532999872,None,527.6842532999872,None,527.6842532999872,None,j,4.74449939999613,527.6842532999872,None,target,531.1718983000028,None,None,None,None,None,None,,,,,,,,,,,,,,ST02_112522,2022-11-25_15h25.34.830,Hippopolis_4AFCT,2021.1.4,59.78168923173896,
Camponello,stimuli/subj_files/ST02_112522_cityB.csv,./stimuli/hallstatt.jpg,./stimuli/street_plate2.png,SÜTŐ UTCA,stimuli/objects/058a.jpg,object,0,stimuli/objects/058a.jpg,stimuli/objects/058b.jpg,stimuli/scenes/052b.jpg,stimuli/objects/058a.jpg,stimuli/scenes/052a.jpg,lure,dist2,target,dist1,0,1,1,1,0,31,31,25,,,,,,,,,,,532.4543916999828,None,533.463567800005,None,533.463567800005,None,533.463567800005,None,533.463567800005,None,533.463567800005,None,533.463567800005,None,533.463567800005,None,533.463567800005,None,533.463567800005,None,533.463567800005,None,533.463567800005,None,j,3.420255300006829,533.463567800005,None,target,None,None,None,None,None,None,None,,,,,,,,,,,,,,ST02_112522,2022-11-25_15h25.34.830,Hippopolis_4AFCT,2021.1.4,59.78168923173896,
Camponello,stimuli/subj_files/ST02_112522_cityB.csv,./stimuli/hallstatt.jpg,./stimuli/street_plate2.png,FOGAS UTCA,stimuli/scenes/023a.jpg,scene,0,stimuli/scenes/023a.jpg,stimuli/objects/064b.jpg,stimuli/scenes/023b.jpg,stimuli/objects/064a.jpg,stimuli/scenes/023a.jpg,dist2,lure,dist1,target,0,1,1,1,0,32,32,53,,,,,,,,,,,536.9044591999846,None,537.9146453999856,None,537.9146453999856,None,537.9146453999856,None,537.9146453999856,None,537.9146453999856,None,537.9146453999856,None,537.9146453999856,None,537.9146453999856,None,537.9146453999856,None,537.9146453999856,None,537.9146453999856,None,k,2.6348319000098854,537.9146453999856,None,target,None,None,None,None,None,None,None,,,,,,,,,,,,,,ST02_112522,2022-11-25_15h25.34.830,Hippopolis_4AFCT,2021.1.4,59.78168923173896,
Camponello,stimuli/subj_files/ST02_112522_cityB.csv,./stimuli/hallstatt.jpg,./stimuli/street_plate2.png,KECSKE UTCA,stimuli/scenes/077a.jpg,scene,0,stimuli/scenes/077a.jpg,stimuli/scenes/077b.jpg,stimuli/scenes/054a.jpg,stimuli/scenes/077a.jpg,stimuli/scenes/054b.jpg,lure,dist1,target,dist2,0,1,1,1,0,33,33,2,,,,,,,,,,,540.5704846000008,None,541.5765514000086,None,541.5765514000086,None,541.5765514000086,None,541.5765514000086,None,541.5765514000086,None,541.5765514000086,None,541.5765514000086,None,541.5765514000086,None,541.5765514000086,None,541.5765514000086,None,541.5765514000086,None,j,2.7205558999849018,541.5765514000086,None,target,None,None,None,None,None,None,None,,,,,,,,,,,,,,ST02_112522,2022-11-25_15h25.34.830,Hippopolis_4AFCT,2021.1.4,59.78168923173896,
Camponello,stimuli/subj_files/ST02_112522_cityB.csv,./stimuli/hallstatt.jpg,./stimuli/street_plate2.png,TERÍTŐ UTCA,stimuli/scenes/115a.jpg,scene,0,stimuli/scenes/115a.jpg,stimuli/objects/093a.jpg,stimuli/scenes/115a.jpg,stimuli/scenes/115b.jpg,stimuli/objects/093b.jpg,dist1,target,lure,dist2,0,1,1,1,0,34,34,7,,,,,,,,,,,544.3204274000018,None,545.3368237999966,None,545.3368237999966,None,545.3368237999966,None,545.3368237999966,None,545.3368237999966,None,545.3368237999966,None,545.3368237999966,None,545.3368237999966,None,545.3368237999966,None,545.3368237999966,None,545.3368237999966,None,f,3.4327727000054438,545.3368237999966,None,target,None,None,None,None,None,None,None,,,,,,,,,,,,,,ST02_112522,2022-11-25_15h25.34.830,Hippopolis_4AFCT,2021.1.4,59.78168923173896,
Camponello,stimuli/subj_files/ST02_112522_cityB.csv,./stimuli/hallstatt.jpg,./stimuli/street_plate2.png,KANÁL UTCA,stimuli/scenes/009a.jpg,scene,0,stimuli/scenes/009a.jpg,stimuli/scenes/009b.jpg,stimuli/scenes/003b.jpg,stimuli/scenes/009a.jpg,stimuli/scenes/003a.jpg,lure,dist2,target,dist1,0,1,1,1,0,35,35,60,,,,,,,,,,,548.7869616000098,None,549.7915688999929,None,549.7915688999929,None,549.7915688999929,None,549.7915688999929,None,549.7915688999929,None,549.7915688999929,None,549.7915688999929,None,549.7915688999929,None,549.7915688999929,None,549.7915688999929,None,549.7915688999929,None,j,3.342048499995144,549.7915688999929,None,target,None,None,None,None,None,None,None,,,,,,,,,,,,,,ST02_112522,2022-11-25_15h25.34.830,Hippopolis_4AFCT,2021.1.4,59.78168923173896,
Camponello,stimuli/subj_files/ST02_112522_cityB.csv,./stimuli/hallstatt.jpg,./stimuli/street_plate2.png,SUGÁR UTCA,stimuli/objects/107a.jpg,object,0,stimuli/objects/107a.jpg,stimuli/objects/107b.jpg,stimuli/scenes/115b.jpg,stimuli/scenes/115a.jpg,stimuli/objects/107a.jpg,lure,dist2,dist1,target,0,1,1,1,0,36,36,51,,,,,,,,,,,553.1536173000059,None,554.1670424999902,None,554.1670424999902,None,554.1670424999902,None,554.1670424999902,None,554.1670424999902,None,554.1670424999902,None,554.1670424999902,None,554.1670424999902,None,554.1670424999902,None,554.1670424999902,None,554.1670424999902,None,j,2.2491348999901675,554.1670424999902,None,dist1,None,None,None,None,None,None,None,,,,,,,,,,,,,,ST02_112522,2022-11-25_15h25.34.830,Hippopolis_4AFCT,2021.1.4,59.78168923173896,
Camponello,stimuli/subj_files/ST02_112522_cityB.csv,./stimuli/hallstatt.jpg,./stimuli/street_plate2.png,BÖGRE UTCA,stimuli/scenes/030a.jpg,scene,0,stimuli/scenes/030a.jpg,stimuli/objects/118b.jpg,stimuli/objects/118a.jpg,stimuli/scenes/030b.jpg,stimuli/scenes/030a.jpg,dist2,dist1,lure,target,0,1,1,1,0,37,37,48,,,,,,,,,,,556.4367316999997,None,557.4526172000042,None,557.4526172000042,None,557.4526172000042,None,557.4526172000042,None,557.4526172000042,None,557.4526172000042,None,557.4526172000042,None,557.4526172000042,None,557.4526172000042,None,557.4526172000042,None,557.4526172000042,None,k,2.1906958000035957,557.4526172000042,None,target,None,None,None,None,None,None,None,,,,,,,,,,,,,,ST02_112522,2022-11-25_15h25.34.830,Hippopolis_4AFCT,2021.1.4,59.78168923173896,
Camponello,stimuli/subj_files/ST02_112522_cityB.csv,./stimuli/hallstatt.jpg,./stimuli/street_plate2.png,KÖTÉNY UTCA,stimuli/objects/118a.jpg,object,0,stimuli/objects/118a.jpg,stimuli/scenes/093b.jpg,stimuli/objects/118a.jpg,stimuli/scenes/093a.jpg,stimuli/objects/118b.jpg,dist2,target,dist1,lure,0,1,1,1,0,38,38,58,,,,,,,,,,,559.6706215000013,None,560.6792177000025,None,560.6792177000025,None,560.6792177000025,None,560.6792177000025,None,560.6792177000025,None,560.6792177000025,None,560.6792177000025,None,560.6792177000025,None,560.6792177000025,None,560.6792177000025,None,560.6792177000025,None,k,2.25958320000791,560.6792177000025,None,lure,None,None,None,None,None,None,None,,,,,,,,,,,,,,ST02_112522,2022-11-25_15h25.34.830,Hippopolis_4AFCT,2021.1.4,59.78168923173896,
Camponello,stimuli/subj_files/ST02_112522_cityB.csv,./stimuli/hallstatt.jpg,./stimuli/street_plate2.png,KATONA UTCA,stimuli/scenes/087a.jpg,scene,0,stimuli/scenes/087a.jpg,stimuli/scenes/087b.jpg,stimuli/scenes/040a.jpg,stimuli/scenes/087a.jpg,stimuli/scenes/040b.jpg,lure,dist1,target,dist2,0,1,1,1,0,39,39,77,,,,,,,,,,,562.9699625000067,None,563.9773294999904,None,563.9773294999904,None,563.9773294999904,None,563.9773294999904,None,563.9773294999904,None,563.9773294999904,None,563.9773294999904,None,563.9773294999904,None,563.9773294999904,None,563.9773294999904,None,563.9773294999904,None,j,3.3272575000009965,563.9773294999904,None,target,None,None,None,None,None,None,None,,,,,,,,,,,,,,ST02_112522,2022-11-25_15h25.34.830,Hippopolis_4AFCT,2021.1.4,59.78168923173896,
Camponello,stimuli/subj_files/ST02_112522_cityB.csv,./stimuli/hallstatt.jpg,./stimuli/street_plate2.png,MAJOM UTCA,stimuli/objects/029a.jpg,object,0,stimuli/objects/029a.jpg,stimuli/objects/043b.jpg,stimuli/objects/029b.jpg,stimuli/objects/029a.jpg,stimuli/objects/043a.jpg,dist2,lure,target,dist1,0,1,1,1,0,40,40,38,,,,,,,,,,,567.3366668999952,None,568.3459750000038,None,568.3459750000038,None,568.3459750000038,None,568.3459750000038,None,568.3459750000038,None,568.3459750000038,None,568.3459750000038,None,568.3459750000038,None,568.3459750000038,None,568.3459750000038,None,568.3459750000038,None,j,2.267005900008371,568.3459750000038,None,target,None,None,None,None,None,None,None,,,,,,,,,,,,,,ST02_112522,2022-11-25_15h25.34.830,Hippopolis_4AFCT,2021.1.4,59.78168923173896,
Camponello,stimuli/subj_files/ST02_112522_cityB.csv,./stimuli/hallstatt.jpg,./stimuli/street_plate2.png,POGÁCSA UTCA,stimuli/objects/075a.jpg,object,0,stimuli/objects/075a.jpg,stimuli/objects/075b.jpg,stimuli/objects/075a.jpg,stimuli/objects/112a.jpg,stimuli/objects/112b.jpg,lure,target,dist1,dist2,0,1,1,1,0,41,41,76,,,,,,,,,,,570.6366605999938,None,571.6466691000096,None,571.6466691000096,None,571.6466691000096,None,571.6466691000096,None,571.6466691000096,None,571.6466691000096,None,571.6466691000096,None,571.6466691000096,None,571.6466691000096,None,571.6466691000096,None,571.6466691000096,None,f,2.297887799999444,571.6466691000096,None,target,None,None,None,None,None,None,None,,,,,,,,,,,,,,ST02_112522,2022-11-25_15h25.34.830,Hippopolis_4AFCT,2021.1.4,59.78168923173896,
Camponello,stimuli/subj_files/ST02_112522_cityB.csv,./stimuli/hallstatt.jpg,./stimuli/street_plate2.png,LOVAGLÁS UTCA,stimuli/objects/077a.jpg,object,0,stimuli/objects/077a.jpg,stimuli/objects/077b.jpg,stimuli/objects/077a.jpg,stimuli/objects/096a.jpg,stimuli/objects/096b.jpg,lure,target,dist1,dist2,0,1,1,1,0,42,42,37,,,,,,,,,,,573.9699879999971,None,574.9794608000084,None,574.9794608000084,None,574.9794608000084,None,574.9794608000084,None,574.9794608000084,None,574.9794608000084,None,574.9794608000084,None,574.9794608000084,None,574.9794608000084,None,574.9794608000084,None,574.9794608000084,None,f,2.2170135999913327,574.9794608000084,None,target,None,None,None,None,None,None,None,,,,,,,,,,,,,,ST02_112522,2022-11-25_15h25.34.830,Hippopolis_4AFCT,2021.1.4,59.78168923173896,
Camponello,stimuli/subj_files/ST02_112522_cityB.csv,./stimuli/hallstatt.jpg,./stimuli/street_plate2.png,CUKOR UTCA,stimuli/objects/078a.jpg,object,2,stimuli/scenes/037a.jpg,stimuli/scenes/037b.jpg,stimuli/objects/066b.jpg,stimuli/scenes/037a.jpg,stimuli/objects/066a.jpg,lure,dist2,target,dist1,0,1,1,1,0,43,43,68,,,,,,,,,,,577.220244600001,None,578.2246274999925,None,578.2246274999925,None,578.2246274999925,None,578.2246274999925,None,578.2246274999925,None,578.2246274999925,None,578.2246274999925,None,578.2246274999925,None,578.2246274999925,None,578.2246274999925,None,578.2246274999925,None,d,3.0348435000050813,578.2246274999925,None,lure,None,None,None,None,None,None,None,,,,,,,,,,,,,,ST02_112522,2022-11-25_15h25.34.830,Hippopolis_4AFCT,2021.1.4,59.78168923173896,
