CityName,StimuliFile,CityImage,StreetSign,VideoFile,Cue,Image,Category,Novelty,UpdateImage,TestImage1,TestImage2,TestImage3,TestImage4,TestImage1Type,TestImage2Type,TestImage3Type,TestImage4Type,CityBlock.thisRepN,CityBlock.thisTrialN,CityBlock.thisN,CityBlock.thisIndex,LearningTrials.thisRepN,LearningTrials.thisTrialN,LearningTrials.thisN,LearningTrials.thisIndex,trials.thisRepN,trials.thisTrialN,trials.thisN,trials.thisIndex,learning_instructions_text.started,intro_key.started,intro_key.keys,intro_key.rt,cityname_text_intro.started,city_image_2.started,load_video.started,movie.started,end_vid_key.started,end_vid_key.keys,cityname_text.started,city_image.started,text_countdown.started,fx_cross.started,plate.started,city_text.started,street_text.started,learning_image.started,short_break_key.keys,fx_cross.stopped,short_break_text.started,short_break_key.started,short_break_key.rt,test_text.started,key_resp.started,key_resp.keys,key_resp.rt,plate_test.started,city_text_test.started,street_text_test.started,test_question.started,test_key_resp.started,button_image.started,test_key_resp.keys,verbal_test_key_resp.keys,test_key_resp.rt,plate_verbal.started,street_text_verbal.started,city_text_verbal.started,question_verbal.started,verbal_test_key_resp.started,verbal_test_key_resp.rt,n_remembered,break_text.started,break_key_resp.started,break_key_resp.keys,break_key_resp.rt,end_text.started,participant,date,expName,psychopyVersion,frameRate,
,,,,,,,,,,,,,,,,,,,,,,,,,,,,,,30.74740402959287,30.74740402959287,space,23.12173137627542,,,,,,,,,,,,,,,,,,,,,,,,,,,,,,,,,,,,,,,,,,,,,ST03_112822,2022-11-29_13h26.22.621,Hippopolis_Learning,2022.2.2,52.75531729006574,
Camponello,stimuli/subj_files/ST03_112822_cityB.csv,./stimuli/arnedillo.png,./stimuli/street_plate2.png,./stimuli/videos/camponello_part1.mp4,SALÁTA UTCA,stimuli/scenes/044a.jpg,scene,0,stimuli/scenes/044a.jpg,stimuli/scenes/044b.jpg,stimuli/objects/045b.jpg,stimuli/objects/045a.jpg,stimuli/scenes/044a.jpg,lure,dist2,dist1,target,0,0,0,0,0,0,0,53,,,,,,,,,54.07422665134072,54.07422665134072,0.15790323168039322,57.419059032574296,57.419059032574296,None,85.25840774737298,85.25840774737298,87.721589256078,90.75958957150578,91.73656732402742,91.73656732402742,91.73656732402742,91.73656732402742,None,,,,,,,,,,,,,,,,,,,,,,,,,,,,,,ST03_112822,2022-11-29_13h26.22.621,Hippopolis_Learning,2022.2.2,52.75531729006574,
Camponello,stimuli/subj_files/ST03_112822_cityB.csv,./stimuli/arnedillo.png,./stimuli/street_plate2.png,./stimuli/videos/camponello_part1.mp4,ASZTAL UTCA,stimuli/scenes/062a.jpg,scene,2,stimuli/objects/111a.jpg,stimuli/scenes/049a.jpg,stimuli/objects/111a.jpg,stimuli/objects/111b.jpg,stimuli/scenes/049b.jpg,dist1,target,lure,dist2,0,0,0,0,0,1,1,5,,,,,,,,,,,,,,,,,,94.71131640300155,95.74295228533447,95.74295228533447,95.74295228533447,95.74295228533447,None,,,,,,,,,,,,,,,,,,,,,,,,,,,,,,ST03_112822,2022-11-29_13h26.22.621,Hippopolis_Learning,2022.2.2,52.75531729006574,
Camponello,stimuli/subj_files/ST03_112822_cityB.csv,./stimuli/arnedillo.png,./stimuli/street_plate2.png,./stimuli/videos/camponello_part1.mp4,ÁLLOMÁS UTCA,stimuli/scenes/061a.jpg,scene,0,stimuli/scenes/061a.jpg,stimuli/scenes/061a.jpg,stimuli/scenes/061b.jpg,stimuli/scenes/036a.jpg,stimuli/scenes/036b.jpg,target,lure,dist1,dist2,0,0,0,0,0,2,2,47,,,,,,,,,,,,,,,,,,98.72434757091105,99.7390581741929,99.7390581741929,99.7390581741929,99.7390581741929,None,99.7390581741929,,,,,,,,,,,,,,,,,,,,,,,,,,,,,ST03_112822,2022-11-29_13h26.22.621,Hippopolis_Learning,2022.2.2,52.75531729006574,
Camponello,stimuli/subj_files/ST03_112822_cityB.csv,./stimuli/arnedillo.png,./stimuli/street_plate2.png,./stimuli/videos/camponello_part1.mp4,ORVOS UTCA,stimuli/scenes/063a.jpg,scene,0,stimuli/scenes/063a.jpg,stimuli/scenes/063b.jpg,stimuli/objects/120a.jpg,stimuli/scenes/063a.jpg,stimuli/objects/120b.jpg,lure,dist1,target,dist2,0,0,0,0,0,3,3,23,,,,,,,,,,,,,,,,,,102.73081494867802,103.76395827904344,103.76395827904344,103.76395827904344,103.76395827904344,None,103.76395827904344,,,,,,,,,,,,,,,,,,,,,,,,,,,,,ST03_112822,2022-11-29_13h26.22.621,Hippopolis_Learning,2022.2.2,52.75531729006574,
Camponello,stimuli/subj_files/ST03_112822_cityB.csv,./stimuli/arnedillo.png,./stimuli/street_plate2.png,./stimuli/videos/camponello_part1.mp4,BETON UTCA,stimuli/objects/097a.jpg,object,0,stimuli/objects/097a.jpg,stimuli/scenes/095a.jpg,stimuli/scenes/095b.jpg,stimuli/objects/097b.jpg,stimuli/objects/097a.jpg,dist1,dist2,lure,target,0,0,0,0,0,4,4,21,,,,,,,,,,,,,,,,,,106.74512995220721,107.80768266692758,107.80768266692758,107.80768266692758,107.80768266692758,None,,,,,,,,,,,,,,,,,,,,,,,,,,,,,,ST03_112822,2022-11-29_13h26.22.621,Hippopolis_Learning,2022.2.2,52.75531729006574,
Camponello,stimuli/subj_files/ST03_112822_cityB.csv,./stimuli/arnedillo.png,./stimuli/street_plate2.png,./stimuli/videos/camponello_part1.mp4,KOSÁR UTCA,stimuli/objects/078a.jpg,object,0,stimuli/objects/078a.jpg,stimuli/objects/078a.jpg,stimuli/objects/078b.jpg,stimuli/objects/007b.jpg,stimuli/objects/007a.jpg,target,lure,dist2,dist1,0,0,0,0,0,5,5,79,,,,,,,,,,,,,,,,,,110.74456298723817,111.77096711844206,111.77096711844206,111.77096711844206,111.77096711844206,None,,,,,,,,,,,,,,,,,,,,,,,,,,,,,,ST03_112822,2022-11-29_13h26.22.621,Hippopolis_Learning,2022.2.2,52.75531729006574,
Camponello,stimuli/subj_files/ST03_112822_cityB.csv,./stimuli/arnedillo.png,./stimuli/street_plate2.png,./stimuli/videos/camponello_part1.mp4,HERNYÓ UTCA,stimuli/objects/057a.jpg,object,0,stimuli/objects/057a.jpg,stimuli/objects/061a.jpg,stimuli/objects/057b.jpg,stimuli/objects/057a.jpg,stimuli/objects/061b.jpg,dist1,lure,target,dist2,0,0,0,0,0,6,6,40,,,,,,,,,,,,,,,,,,114.76103544048965,115.79412994161248,115.79412994161248,115.79412994161248,115.79412994161248,None,,,,,,,,,,,,,,,,,,,,,,,,,,,,,,ST03_112822,2022-11-29_13h26.22.621,Hippopolis_Learning,2022.2.2,52.75531729006574,
Camponello,stimuli/subj_files/ST03_112822_cityB.csv,./stimuli/arnedillo.png,./stimuli/street_plate2.png,./stimuli/videos/camponello_part1.mp4,KALAPÁCS UTCA,stimuli/scenes/002a.jpg,scene,0,stimuli/scenes/002a.jpg,stimuli/scenes/002b.jpg,stimuli/objects/038a.jpg,stimuli/objects/038b.jpg,stimuli/scenes/002a.jpg,lure,dist1,dist2,target,0,0,0,0,0,7,7,33,,,,,,,,,,,,,,,,,,118.76455478928983,119.78236519172788,119.78236519172788,119.78236519172788,119.78236519172788,None,,,,,,,,,,,,,,,,,,,,,,,,,,,,,,ST03_112822,2022-11-29_13h26.22.621,Hippopolis_Learning,2022.2.2,52.75531729006574,
Camponello,stimuli/subj_files/ST03_112822_cityB.csv,./stimuli/arnedillo.png,./stimuli/street_plate2.png,./stimuli/videos/camponello_part1.mp4,LÉTRA UTCA,stimuli/objects/012a.jpg,object,1,stimuli/objects/049a.jpg,stimuli/objects/049a.jpg,stimuli/objects/049b.jpg,stimuli/objects/109b.jpg,stimuli/objects/109a.jpg,target,lure,dist2,dist1,0,0,0,0,0,8,8,30,,,,,,,,,,,,,,,,,,122.76547909900546,123.8084517866373,123.8084517866373,123.8084517866373,123.8084517866373,None,,,,,,,,,,,,,,,,,,,,,,,,,,,,,,ST03_112822,2022-11-29_13h26.22.621,Hippopolis_Learning,2022.2.2,52.75531729006574,
Camponello,stimuli/subj_files/ST03_112822_cityB.csv,./stimuli/arnedillo.png,./stimuli/street_plate2.png,./stimuli/videos/camponello_part1.mp4,KECSKE UTCA,stimuli/objects/095a.jpg,object,0,stimuli/objects/095a.jpg,stimuli/objects/079a.jpg,stimuli/objects/095b.jpg,stimuli/objects/095a.jpg,stimuli/objects/079b.jpg,dist1,lure,target,dist2,0,0,0,0,0,9,9,45,,,,,,,,,,,,,,,,,,126.77722581103444,127.79923417791724,127.79923417791724,127.79923417791724,127.79923417791724,None,,,,,,,,,,,,,,,,,,,,,,,,,,,,,,ST03_112822,2022-11-29_13h26.22.621,Hippopolis_Learning,2022.2.2,52.75531729006574,
Camponello,stimuli/subj_files/ST03_112822_cityB.csv,./stimuli/arnedillo.png,./stimuli/street_plate2.png,./stimuli/videos/camponello_part1.mp4,FÉSŰ UTCA,stimuli/scenes/021a.jpg,scene,0,stimuli/scenes/021a.jpg,stimuli/scenes/021b.jpg,stimuli/scenes/076a.jpg,stimuli/scenes/076b.jpg,stimuli/scenes/021a.jpg,lure,dist1,dist2,target,0,0,0,0,0,10,10,46,,,,,,,,,,,,,,,,,,130.78025967814028,131.79419120959938,131.79419120959938,131.79419120959938,131.79419120959938,None,131.79419120959938,,,,,,,,,,,,,,,,,,,,,,,,,,,,,ST03_112822,2022-11-29_13h26.22.621,Hippopolis_Learning,2022.2.2,52.75531729006574,
Camponello,stimuli/subj_files/ST03_112822_cityB.csv,./stimuli/arnedillo.png,./stimuli/street_plate2.png,./stimuli/videos/camponello_part1.mp4,PAPRIKA UTCA,stimuli/scenes/079a.jpg,scene,1,stimuli/scenes/109a.jpg,stimuli/scenes/109b.jpg,stimuli/scenes/028b.jpg,stimuli/scenes/028a.jpg,stimuli/scenes/109a.jpg,lure,dist2,dist1,target,0,0,0,0,0,11,11,48,,,,,,,,,,,,,,,,,,134.78873180411756,135.80693252012134,135.80693252012134,135.80693252012134,135.80693252012134,None,,,,,,,,,,,,,,,,,,,,,,,,,,,,,,ST03_112822,2022-11-29_13h26.22.621,Hippopolis_Learning,2022.2.2,52.75531729006574,
Camponello,stimuli/subj_files/ST03_112822_cityB.csv,./stimuli/arnedillo.png,./stimuli/street_plate2.png,./stimuli/videos/camponello_part1.mp4,LOVAGLÁS UTCA,stimuli/scenes/012a.jpg,scene,0,stimuli/scenes/012a.jpg,stimuli/scenes/012b.jpg,stimuli/scenes/104a.jpg,stimuli/scenes/012a.jpg,stimuli/scenes/104b.jpg,lure,dist1,target,dist2,0,0,0,0,0,12,12,37,,,,,,,,,,,,,,,,,,138.79482659511268,139.8248866070062,139.8248866070062,139.8248866070062,139.8248866070062,None,,,,,,,,,,,,,,,,,,,,,,,,,,,,,,ST03_112822,2022-11-29_13h26.22.621,Hippopolis_Learning,2022.2.2,52.75531729006574,
Camponello,stimuli/subj_files/ST03_112822_cityB.csv,./stimuli/arnedillo.png,./stimuli/street_plate2.png,./stimuli/videos/camponello_part1.mp4,KAKAS UTCA,stimuli/objects/081a.jpg,object,0,stimuli/objects/081a.jpg,stimuli/objects/081b.jpg,stimuli/scenes/021b.jpg,stimuli/scenes/021a.jpg,stimuli/objects/081a.jpg,lure,dist2,dist1,target,0,0,0,0,0,13,13,57,,,,,,,,,,,,,,,,,,142.8107373714447,143.84477297775447,143.84477297775447,143.84477297775447,143.84477297775447,None,,,,,,,,,,,,,,,,,,,,,,,,,,,,,,ST03_112822,2022-11-29_13h26.22.621,Hippopolis_Learning,2022.2.2,52.75531729006574,
Camponello,stimuli/subj_files/ST03_112822_cityB.csv,./stimuli/arnedillo.png,./stimuli/street_plate2.png,./stimuli/videos/camponello_part1.mp4,TOLMÁCS UTCA,stimuli/scenes/078a.jpg,scene,0,stimuli/scenes/078a.jpg,stimuli/scenes/078b.jpg,stimuli/objects/110a.jpg,stimuli/scenes/078a.jpg,stimuli/objects/110b.jpg,lure,dist1,target,dist2,0,0,0,0,0,14,14,52,,,,,,,,,,,,,,,,,,146.82784272357821,147.86146033741534,147.86146033741534,147.86146033741534,147.86146033741534,None,,,,,,,,,,,,,,,,,,,,,,,,,,,,,,ST03_112822,2022-11-29_13h26.22.621,Hippopolis_Learning,2022.2.2,52.75531729006574,
Camponello,stimuli/subj_files/ST03_112822_cityB.csv,./stimuli/arnedillo.png,./stimuli/street_plate2.png,./stimuli/videos/camponello_part1.mp4,MOCSÁR UTCA,stimuli/objects/063a.jpg,object,1,stimuli/objects/033a.jpg,stimuli/objects/033b.jpg,stimuli/objects/033a.jpg,stimuli/objects/053b.jpg,stimuli/objects/053a.jpg,lure,target,dist2,dist1,0,0,0,0,0,15,15,13,,,,,,,,,,,,,,,,,,150.8375902865082,151.86284151673317,151.86284151673317,151.86284151673317,151.86284151673317,None,,,,,,,,,,,,,,,,,,,,,,,,,,,,,,ST03_112822,2022-11-29_13h26.22.621,Hippopolis_Learning,2022.2.2,52.75531729006574,
Camponello,stimuli/subj_files/ST03_112822_cityB.csv,./stimuli/arnedillo.png,./stimuli/street_plate2.png,./stimuli/videos/camponello_part1.mp4,KÖTÉNY UTCA,stimuli/objects/115a.jpg,object,0,stimuli/objects/115a.jpg,stimuli/objects/115b.jpg,stimuli/objects/083a.jpg,stimuli/objects/115a.jpg,stimuli/objects/083b.jpg,lure,dist1,target,dist2,0,0,0,0,0,16,16,28,,,,,,,,,,,,,,,,,,154.849727621302,155.87716553732753,155.87716553732753,155.87716553732753,155.87716553732753,None,,,,,,,,,,,,,,,,,,,,,,,,,,,,,,ST03_112822,2022-11-29_13h26.22.621,Hippopolis_Learning,2022.2.2,52.75531729006574,
Camponello,stimuli/subj_files/ST03_112822_cityB.csv,./stimuli/arnedillo.png,./stimuli/street_plate2.png,./stimuli/videos/camponello_part1.mp4,MUNKA UTCA,stimuli/objects/082a.jpg,object,2,stimuli/scenes/016a.jpg,stimuli/scenes/087b.jpg,stimuli/scenes/016b.jpg,stimuli/scenes/016a.jpg,stimuli/scenes/087a.jpg,dist2,lure,target,dist1,0,0,0,0,0,17,17,18,,,,,,,,,,,,,,,,,,158.8538584075868,159.8773561846465,159.8773561846465,159.8773561846465,159.8773561846465,None,,,,,,,,,,,,,,,,,,,,,,,,,,,,,,ST03_112822,2022-11-29_13h26.22.621,Hippopolis_Learning,2022.2.2,52.75531729006574,
Camponello,stimuli/subj_files/ST03_112822_cityB.csv,./stimuli/arnedillo.png,./stimuli/street_plate2.png,./stimuli/videos/camponello_part1.mp4,LAKAT UTCA,stimuli/objects/120a.jpg,object,0,stimuli/objects/120a.jpg,stimuli/scenes/064a.jpg,stimuli/scenes/064b.jpg,stimuli/objects/120b.jpg,stimuli/objects/120a.jpg,dist1,dist2,lure,target,0,0,0,0,0,18,18,59,,,,,,,,,,,,,,,,,,162.8561816252768,163.87515394948423,163.87515394948423,163.87515394948423,163.87515394948423,None,,,,,,,,,,,,,,,,,,,,,,,,,,,,,,ST03_112822,2022-11-29_13h26.22.621,Hippopolis_Learning,2022.2.2,52.75531729006574,
Camponello,stimuli/subj_files/ST03_112822_cityB.csv,./stimuli/arnedillo.png,./stimuli/street_plate2.png,./stimuli/videos/camponello_part1.mp4,SZAXOFON UTCA,stimuli/scenes/117a.jpg,scene,0,stimuli/scenes/117a.jpg,stimuli/objects/028a.jpg,stimuli/scenes/117a.jpg,stimuli/objects/028b.jpg,stimuli/scenes/117b.jpg,dist1,target,dist2,lure,0,0,0,0,0,19,19,4,,,,,,,,,,,,,,,,,,166.87232316844165,167.89642367511988,167.89642367511988,167.89642367511988,167.89642367511988,None,,,,,,,,,,,,,,,,,,,,,,,,,,,,,,ST03_112822,2022-11-29_13h26.22.621,Hippopolis_Learning,2022.2.2,52.75531729006574,
Camponello,stimuli/subj_files/ST03_112822_cityB.csv,./stimuli/arnedillo.png,./stimuli/street_plate2.png,./stimuli/videos/camponello_part1.mp4,FIÓK UTCA,stimuli/scenes/103a.jpg,scene,0,stimuli/scenes/103a.jpg,stimuli/scenes/103b.jpg,stimuli/scenes/103a.jpg,stimuli/objects/112a.jpg,stimuli/objects/112b.jpg,lure,target,dist1,dist2,0,0,0,0,0,20,20,73,,,,,,,,,,,,,,,,,,170.88048770837486,171.92620502598584,171.92620502598584,171.92620502598584,171.92620502598584,None,,,,,,,,,,,,,,,,,,,,,,,,,,,,,,ST03_112822,2022-11-29_13h26.22.621,Hippopolis_Learning,2022.2.2,52.75531729006574,
Camponello,stimuli/subj_files/ST03_112822_cityB.csv,./stimuli/arnedillo.png,./stimuli/street_plate2.png,./stimuli/videos/camponello_part1.mp4,TOBOZ UTCA,stimuli/scenes/104a.jpg,scene,0,stimuli/scenes/104a.jpg,stimuli/scenes/104b.jpg,stimuli/scenes/061b.jpg,stimuli/scenes/104a.jpg,stimuli/scenes/061a.jpg,lure,dist2,target,dist1,0,0,0,0,0,21,21,72,,,,,,,,,,,,,,,,,,174.8960955645889,175.91047090105712,175.91047090105712,175.91047090105712,175.91047090105712,None,175.91047090105712,,,,,,,,,,,,,,,,,,,,,,,,,,,,,ST03_112822,2022-11-29_13h26.22.621,Hippopolis_Learning,2022.2.2,52.75531729006574,
Camponello,stimuli/subj_files/ST03_112822_cityB.csv,./stimuli/arnedillo.png,./stimuli/street_plate2.png,./stimuli/videos/camponello_part1.mp4,MAJOM UTCA,stimuli/objects/083a.jpg,object,0,stimuli/objects/083a.jpg,stimuli/objects/083b.jpg,stimuli/scenes/002b.jpg,stimuli/scenes/002a.jpg,stimuli/objects/083a.jpg,lure,dist2,dist1,target,0,0,0,0,0,22,22,29,,,,,,,,,,,,,,,,,,178.9054344650358,179.92403575591743,179.92403575591743,179.92403575591743,179.92403575591743,None,179.92403575591743,,,,,,,,,,,,,,,,,,,,,,,,,,,,,ST03_112822,2022-11-29_13h26.22.621,Hippopolis_Learning,2022.2.2,52.75531729006574,
Camponello,stimuli/subj_files/ST03_112822_cityB.csv,./stimuli/arnedillo.png,./stimuli/street_plate2.png,./stimuli/videos/camponello_part1.mp4,SIRÁLY UTCA,stimuli/scenes/086a.jpg,scene,2,stimuli/objects/088a.jpg,stimuli/objects/088b.jpg,stimuli/objects/088a.jpg,stimuli/objects/111b.jpg,stimuli/objects/111a.jpg,lure,target,dist2,dist1,0,0,0,0,0,23,23,34,,,,,,,,,,,,,,,,,,182.90552278980613,183.92377264425159,183.92377264425159,183.92377264425159,183.92377264425159,None,,,,,,,,,,,,,,,,,,,,,,,,,,,,,,ST03_112822,2022-11-29_13h26.22.621,Hippopolis_Learning,2022.2.2,52.75531729006574,
Camponello,stimuli/subj_files/ST03_112822_cityB.csv,./stimuli/arnedillo.png,./stimuli/street_plate2.png,./stimuli/videos/camponello_part1.mp4,PÉKSÉG UTCA,stimuli/objects/017a.jpg,object,1,stimuli/objects/027a.jpg,stimuli/objects/033a.jpg,stimuli/objects/033b.jpg,stimuli/objects/027b.jpg,stimuli/objects/027a.jpg,dist1,dist2,lure,target,0,0,0,0,0,24,24,55,,,,,,,,,,,,,,,,,,186.9095966629684,187.94165644608438,187.94165644608438,187.94165644608438,187.94165644608438,None,,,,,,,,,,,,,,,,,,,,,,,,,,,,,,ST03_112822,2022-11-29_13h26.22.621,Hippopolis_Learning,2022.2.2,52.75531729006574,
Camponello,stimuli/subj_files/ST03_112822_cityB.csv,./stimuli/arnedillo.png,./stimuli/street_plate2.png,./stimuli/videos/camponello_part1.mp4,KRÉTA UTCA,stimuli/objects/108a.jpg,object,0,stimuli/objects/108a.jpg,stimuli/objects/108b.jpg,stimuli/objects/029a.jpg,stimuli/objects/029b.jpg,stimuli/objects/108a.jpg,lure,dist1,dist2,target,0,0,0,0,0,25,25,54,,,,,,,,,,,,,,,,,,190.91453793272376,191.9327660165727,191.9327660165727,191.9327660165727,191.9327660165727,None,,,,,,,,,,,,,,,,,,,,,,,,,,,,,,ST03_112822,2022-11-29_13h26.22.621,Hippopolis_Learning,2022.2.2,52.75531729006574,
Camponello,stimuli/subj_files/ST03_112822_cityB.csv,./stimuli/arnedillo.png,./stimuli/street_plate2.png,./stimuli/videos/camponello_part1.mp4,TENISZ UTCA,stimuli/scenes/099a.jpg,scene,2,stimuli/objects/105a.jpg,stimuli/scenes/034b.jpg,stimuli/objects/105a.jpg,stimuli/scenes/034a.jpg,stimuli/objects/105b.jpg,dist2,target,dist1,lure,0,0,0,0,0,26,26,7,,,,,,,,,,,,,,,,,,194.92674337886274,195.9456034284085,195.9456034284085,195.9456034284085,195.9456034284085,None,,,,,,,,,,,,,,,,,,,,,,,,,,,,,,ST03_112822,2022-11-29_13h26.22.621,Hippopolis_Learning,2022.2.2,52.75531729006574,
Camponello,stimuli/subj_files/ST03_112822_cityB.csv,./stimuli/arnedillo.png,./stimuli/street_plate2.png,./stimuli/videos/camponello_part1.mp4,PULÓVER UTCA,stimuli/objects/007a.jpg,object,0,stimuli/objects/007a.jpg,stimuli/scenes/103b.jpg,stimuli/objects/007b.jpg,stimuli/objects/007a.jpg,stimuli/scenes/103a.jpg,dist2,lure,target,dist1,0,0,0,0,0,27,27,39,,,,,,,,,,,,,,,,,,198.9277451299131,199.9570416212082,199.9570416212082,199.9570416212082,199.9570416212082,None,,,,,,,,,,,,,,,,,,,,,,,,,,,,,,ST03_112822,2022-11-29_13h26.22.621,Hippopolis_Learning,2022.2.2,52.75531729006574,
Camponello,stimuli/subj_files/ST03_112822_cityB.csv,./stimuli/arnedillo.png,./stimuli/street_plate2.png,./stimuli/videos/camponello_part1.mp4,TALICSKA UTCA,stimuli/scenes/019a.jpg,scene,0,stimuli/scenes/019a.jpg,stimuli/scenes/019b.jpg,stimuli/scenes/019a.jpg,stimuli/objects/108b.jpg,stimuli/objects/108a.jpg,lure,target,dist2,dist1,0,0,0,0,0,28,28,10,,,,,,,,,,,,,,,,,,202.94335516169667,203.96231908909976,203.96231908909976,203.96231908909976,203.96231908909976,None,,,,,,,,,,,,,,,,,,,,,,,,,,,,,,ST03_112822,2022-11-29_13h26.22.621,Hippopolis_Learning,2022.2.2,52.75531729006574,
Camponello,stimuli/subj_files/ST03_112822_cityB.csv,./stimuli/arnedillo.png,./stimuli/street_plate2.png,./stimuli/videos/camponello_part1.mp4,TORONY UTCA,stimuli/objects/061a.jpg,object,0,stimuli/objects/061a.jpg,stimuli/objects/061b.jpg,stimuli/objects/061a.jpg,stimuli/scenes/112b.jpg,stimuli/scenes/112a.jpg,lure,target,dist2,dist1,0,0,0,0,0,29,29,14,,,,,,,,,,,,,,,,,,206.95999151654541,207.9889452792704,207.9889452792704,207.9889452792704,207.9889452792704,None,,,,,,,,,,,,,,,,,,,,,,,,,,,,,,ST03_112822,2022-11-29_13h26.22.621,Hippopolis_Learning,2022.2.2,52.75531729006574,
Camponello,stimuli/subj_files/ST03_112822_cityB.csv,./stimuli/arnedillo.png,./stimuli/street_plate2.png,./stimuli/videos/camponello_part1.mp4,CSILLAG UTCA,stimuli/objects/110a.jpg,object,0,stimuli/objects/110a.jpg,stimuli/objects/110b.jpg,stimuli/objects/102b.jpg,stimuli/objects/102a.jpg,stimuli/objects/110a.jpg,lure,dist2,dist1,target,0,0,0,0,0,30,30,70,,,,,,,,,,,,,,,,,,210.96302009746432,212.00998112931848,212.00998112931848,212.00998112931848,212.00998112931848,None,,,,,,,,,,,,,,,,,,,,,,,,,,,,,,ST03_112822,2022-11-29_13h26.22.621,Hippopolis_Learning,2022.2.2,52.75531729006574,
Camponello,stimuli/subj_files/ST03_112822_cityB.csv,./stimuli/arnedillo.png,./stimuli/street_plate2.png,./stimuli/videos/camponello_part1.mp4,FÜGE UTCA,stimuli/scenes/073a.jpg,scene,0,stimuli/scenes/073a.jpg,stimuli/scenes/073a.jpg,stimuli/scenes/073b.jpg,stimuli/scenes/118a.jpg,stimuli/scenes/118b.jpg,target,lure,dist1,dist2,0,0,0,0,0,31,31,2,,,,,,,,,,,,,,,,,,214.9715659301728,216.00631374120712,216.00631374120712,216.00631374120712,216.00631374120712,None,,,,,,,,,,,,,,,,,,,,,,,,,,,,,,ST03_112822,2022-11-29_13h26.22.621,Hippopolis_Learning,2022.2.2,52.75531729006574,
Camponello,stimuli/subj_files/ST03_112822_cityB.csv,./stimuli/arnedillo.png,./stimuli/street_plate2.png,./stimuli/videos/camponello_part1.mp4,PAPUCS UTCA,stimuli/scenes/038a.jpg,scene,0,stimuli/scenes/038a.jpg,stimuli/scenes/038a.jpg,stimuli/scenes/038b.jpg,stimuli/objects/076b.jpg,stimuli/objects/076a.jpg,target,lure,dist2,dist1,0,0,0,0,0,32,32,71,,,,,,,,,,,,,,,,,,218.97809830866754,220.00570510141551,220.00570510141551,220.00570510141551,220.00570510141551,None,,,,,,,,,,,,,,,,,,,,,,,,,,,,,,ST03_112822,2022-11-29_13h26.22.621,Hippopolis_Learning,2022.2.2,52.75531729006574,
Camponello,stimuli/subj_files/ST03_112822_cityB.csv,./stimuli/arnedillo.png,./stimuli/street_plate2.png,./stimuli/videos/camponello_part1.mp4,SZŐLŐ UTCA,stimuli/scenes/007a.jpg,scene,0,stimuli/scenes/007a.jpg,stimuli/scenes/073b.jpg,stimuli/scenes/007a.jpg,stimuli/scenes/073a.jpg,stimuli/scenes/007b.jpg,dist2,target,dist1,lure,0,0,0,0,0,33,33,22,,,,,,,,,,,,,,,,,,222.98158344626427,224.00887394696474,224.00887394696474,224.00887394696474,224.00887394696474,None,,,,,,,,,,,,,,,,,,,,,,,,,,,,,,ST03_112822,2022-11-29_13h26.22.621,Hippopolis_Learning,2022.2.2,52.75531729006574,
Camponello,stimuli/subj_files/ST03_112822_cityB.csv,./stimuli/arnedillo.png,./stimuli/street_plate2.png,./stimuli/videos/camponello_part1.mp4,NARANCS UTCA,stimuli/objects/038a.jpg,object,0,stimuli/objects/038a.jpg,stimuli/objects/038b.jpg,stimuli/scenes/019b.jpg,stimuli/objects/038a.jpg,stimuli/scenes/019a.jpg,lure,dist2,target,dist1,0,0,0,0,0,34,34,75,,,,,,,,,,,,,,,,,,226.98489068821073,228.01483220607042,228.01483220607042,228.01483220607042,228.01483220607042,None,,,,,,,,,,,,,,,,,,,,,,,,,,,,,,ST03_112822,2022-11-29_13h26.22.621,Hippopolis_Learning,2022.2.2,52.75531729006574,
Camponello,stimuli/subj_files/ST03_112822_cityB.csv,./stimuli/arnedillo.png,./stimuli/street_plate2.png,./stimuli/videos/camponello_part1.mp4,SZŐNYEG UTCA,stimuli/objects/028a.jpg,object,0,stimuli/objects/028a.jpg,stimuli/objects/028a.jpg,stimuli/scenes/038a.jpg,stimuli/scenes/038b.jpg,stimuli/objects/028b.jpg,target,dist1,dist2,lure,0,0,0,0,0,35,35,78,,,,,,,,,,,,,,,,,,230.99318553879857,232.02426440827549,232.02426440827549,232.02426440827549,232.02426440827549,None,,,,,,,,,,,,,,,,,,,,,,,,,,,,,,ST03_112822,2022-11-29_13h26.22.621,Hippopolis_Learning,2022.2.2,52.75531729006574,
Camponello,stimuli/subj_files/ST03_112822_cityB.csv,./stimuli/arnedillo.png,./stimuli/street_plate2.png,./stimuli/videos/camponello_part1.mp4,AJÁNDÉK UTCA,stimuli/objects/092a.jpg,object,2,stimuli/scenes/034a.jpg,stimuli/scenes/034a.jpg,stimuli/scenes/034b.jpg,stimuli/scenes/016b.jpg,stimuli/scenes/016a.jpg,target,lure,dist2,dist1,0,0,0,0,0,36,36,26,,,,,,,,,,,,,,,,,,235.00621577352285,236.0258057564497,236.0258057564497,236.0258057564497,236.0258057564497,None,,,,,,,,,,,,,,,,,,,,,,,,,,,,,,ST03_112822,2022-11-29_13h26.22.621,Hippopolis_Learning,2022.2.2,52.75531729006574,
Camponello,stimuli/subj_files/ST03_112822_cityB.csv,./stimuli/arnedillo.png,./stimuli/street_plate2.png,./stimuli/videos/camponello_part1.mp4,HÁRFA UTCA,stimuli/objects/019a.jpg,object,1,stimuli/objects/109a.jpg,stimuli/objects/109a.jpg,stimuli/scenes/057a.jpg,stimuli/objects/109b.jpg,stimuli/scenes/057b.jpg,target,dist1,lure,dist2,0,0,0,0,0,37,37,77,,,,,,,,,,,,,,,,,,239.01919469237328,240.03740380704403,240.03740380704403,240.03740380704403,240.03740380704403,None,240.03740380704403,,,,,,,,,,,,,,,,,,,,,,,,,,,,,ST03_112822,2022-11-29_13h26.22.621,Hippopolis_Learning,2022.2.2,52.75531729006574,
Camponello,stimuli/subj_files/ST03_112822_cityB.csv,./stimuli/arnedillo.png,./stimuli/street_plate2.png,./stimuli/videos/camponello_part1.mp4,KESZTYŰ UTCA,stimuli/objects/055a.jpg,object,0,stimuli/objects/055a.jpg,stimuli/objects/119b.jpg,stimuli/objects/055b.jpg,stimuli/objects/119a.jpg,stimuli/objects/055a.jpg,dist2,lure,dist1,target,0,0,0,0,0,38,38,43,,,,,,,,,,,,,,,,,,243.0348159223795,244.05980031006038,244.05980031006038,244.05980031006038,244.05980031006038,None,,,,,,,,,,,,,,,,,,,,,,,,,,,,,,ST03_112822,2022-11-29_13h26.22.621,Hippopolis_Learning,2022.2.2,52.75531729006574,
Camponello,stimuli/subj_files/ST03_112822_cityB.csv,./stimuli/arnedillo.png,./stimuli/street_plate2.png,./stimuli/videos/camponello_part1.mp4,VÖDÖR UTCA,stimuli/scenes/045a.jpg,scene,1,stimuli/scenes/111a.jpg,stimuli/scenes/111b.jpg,stimuli/scenes/108b.jpg,stimuli/scenes/111a.jpg,stimuli/scenes/108a.jpg,lure,dist2,target,dist1,0,0,0,0,0,39,39,67,,,,,,,,,,,,,,,,,,247.04342551156878,248.07168884016573,248.07168884016573,248.07168884016573,248.07168884016573,None,,,,,,,,,,,,,,,,,,,,,,,,,,,,,,ST03_112822,2022-11-29_13h26.22.621,Hippopolis_Learning,2022.2.2,52.75531729006574,
Camponello,stimuli/subj_files/ST03_112822_cityB.csv,./stimuli/arnedillo.png,./stimuli/street_plate2.png,./stimuli/videos/camponello_part1.mp4,BAGOLY UTCA,stimuli/objects/014a.jpg,object,2,stimuli/scenes/054a.jpg,stimuli/objects/105a.jpg,stimuli/scenes/054b.jpg,stimuli/scenes/054a.jpg,stimuli/objects/105b.jpg,dist1,lure,target,dist2,0,0,0,0,0,40,40,17,,,,,,,,,,,,,,,,,,251.04746392928064,252.07515438459814,252.07515438459814,252.07515438459814,252.07515438459814,None,,,,,,,,,,,,,,,,,,,,,,,,,,,,,,ST03_112822,2022-11-29_13h26.22.621,Hippopolis_Learning,2022.2.2,52.75531729006574,
Camponello,stimuli/subj_files/ST03_112822_cityB.csv,./stimuli/arnedillo.png,./stimuli/street_plate2.png,./stimuli/videos/camponello_part1.mp4,TISZTÁS UTCA,stimuli/scenes/095a.jpg,scene,0,stimuli/scenes/095a.jpg,stimuli/scenes/095a.jpg,stimuli/scenes/095b.jpg,stimuli/objects/078a.jpg,stimuli/objects/078b.jpg,target,lure,dist1,dist2,0,0,0,0,0,41,41,32,,,,,,,,,,,,,,,,,,255.06230080127716,256.1046160198748,256.1046160198748,256.1046160198748,256.1046160198748,None,,,,,,,,,,,,,,,,,,,,,,,,,,,,,,ST03_112822,2022-11-29_13h26.22.621,Hippopolis_Learning,2022.2.2,52.75531729006574,
Camponello,stimuli/subj_files/ST03_112822_cityB.csv,./stimuli/arnedillo.png,./stimuli/street_plate2.png,./stimuli/videos/camponello_part1.mp4,VITORLA UTCA,stimuli/objects/059a.jpg,object,2,stimuli/scenes/087a.jpg,stimuli/objects/030a.jpg,stimuli/scenes/087b.jpg,stimuli/objects/030b.jpg,stimuli/scenes/087a.jpg,dist1,lure,dist2,target,0,0,0,0,0,42,42,41,,,,,,,,,,,,,,,,,,259.0635532233864,260.09378335624933,260.09378335624933,260.09378335624933,260.09378335624933,None,,,,,,,,,,,,,,,,,,,,,,,,,,,,,,ST03_112822,2022-11-29_13h26.22.621,Hippopolis_Learning,2022.2.2,52.75531729006574,
Camponello,stimuli/subj_files/ST03_112822_cityB.csv,./stimuli/arnedillo.png,./stimuli/street_plate2.png,./stimuli/videos/camponello_part1.mp4,BÖGRE UTCA,stimuli/scenes/055a.jpg,scene,0,stimuli/scenes/055a.jpg,stimuli/scenes/093a.jpg,stimuli/scenes/055b.jpg,stimuli/scenes/055a.jpg,stimuli/scenes/093b.jpg,dist1,lure,target,dist2,0,0,0,0,0,43,43,27,,,,,,,,,,,,,,,,,,263.0796673987061,264.10863639973104,264.10863639973104,264.10863639973104,264.10863639973104,None,,,,,,,,,,,,,,,,,,,,,,,,,,,,,,ST03_112822,2022-11-29_13h26.22.621,Hippopolis_Learning,2022.2.2,52.75531729006574,
Camponello,stimuli/subj_files/ST03_112822_cityB.csv,./stimuli/arnedillo.png,./stimuli/street_plate2.png,./stimuli/videos/camponello_part1.mp4,MENTA UTCA,stimuli/scenes/059a.jpg,scene,1,stimuli/scenes/057a.jpg,stimuli/scenes/111b.jpg,stimuli/scenes/057a.jpg,stimuli/scenes/111a.jpg,stimuli/scenes/057b.jpg,dist2,target,dist1,lure,0,0,0,0,0,44,44,58,,,,,,,,,,,,,,,,,,267.08953438699245,268.1157721299678,268.1157721299678,268.1157721299678,268.1157721299678,space,,271.10514535196126,271.10514535196126,8.232991112396121,,,,,,,,,,,,,,,,,,,,,,,,,,ST03_112822,2022-11-29_13h26.22.621,Hippopolis_Learning,2022.2.2,52.75531729006574,
Camponello,stimuli/subj_files/ST03_112822_cityB.csv,./stimuli/arnedillo.png,./stimuli/street_plate2.png,./stimuli/videos/camponello_part1.mp4,TÉRKÉP UTCA,stimuli/scenes/064a.jpg,scene,0,stimuli/scenes/064a.jpg,stimuli/scenes/064b.jpg,stimuli/scenes/023b.jpg,stimuli/scenes/064a.jpg,stimuli/scenes/023a.jpg,lure,dist2,target,dist1,0,0,0,0,0,45,45,11,,,,,,,,,,,,,,,,,,279.35481381975114,280.37212474644184,280.37212474644184,280.37212474644184,280.37212474644184,None,280.37212474644184,,,,,,,,,,,,,,,,,,,,,,,,,,,,,ST03_112822,2022-11-29_13h26.22.621,Hippopolis_Learning,2022.2.2,52.75531729006574,
Camponello,stimuli/subj_files/ST03_112822_cityB.csv,./stimuli/arnedillo.png,./stimuli/street_plate2.png,./stimuli/videos/camponello_part1.mp4,AKÁC UTCA,stimuli/scenes/058a.jpg,scene,0,stimuli/scenes/058a.jpg,stimuli/scenes/058b.jpg,stimuli/objects/104a.jpg,stimuli/objects/104b.jpg,stimuli/scenes/058a.jpg,lure,dist1,dist2,target,0,0,0,0,0,46,46,16,,,,,,,,,,,,,,,,,,283.3644208069891,284.39255382306874,284.39255382306874,284.39255382306874,284.39255382306874,None,,,,,,,,,,,,,,,,,,,,,,,,,,,,,,ST03_112822,2022-11-29_13h26.22.621,Hippopolis_Learning,2022.2.2,52.75531729006574,
Camponello,stimuli/subj_files/ST03_112822_cityB.csv,./stimuli/arnedillo.png,./stimuli/street_plate2.png,./stimuli/videos/camponello_part1.mp4,BANÁN UTCA,stimuli/objects/079a.jpg,object,0,stimuli/objects/079a.jpg,stimuli/objects/079b.jpg,stimuli/objects/115b.jpg,stimuli/objects/115a.jpg,stimuli/objects/079a.jpg,lure,dist2,dist1,target,0,0,0,0,0,47,47,42,,,,,,,,,,,,,,,,,,287.3772249408066,288.4036461766809,288.4036461766809,288.4036461766809,288.4036461766809,None,,,,,,,,,,,,,,,,,,,,,,,,,,,,,,ST03_112822,2022-11-29_13h26.22.621,Hippopolis_Learning,2022.2.2,52.75531729006574,
Camponello,stimuli/subj_files/ST03_112822_cityB.csv,./stimuli/arnedillo.png,./stimuli/street_plate2.png,./stimuli/videos/camponello_part1.mp4,MOTOR UTCA,stimuli/scenes/018a.jpg,scene,0,stimuli/scenes/018a.jpg,stimuli/objects/046b.jpg,stimuli/objects/046a.jpg,stimuli/scenes/018a.jpg,stimuli/scenes/018b.jpg,dist2,dist1,target,lure,0,0,0,0,0,48,48,9,,,,,,,,,,,,,,,,,,291.37841827236116,292.4212789963931,292.4212789963931,292.4212789963931,292.4212789963931,None,,,,,,,,,,,,,,,,,,,,,,,,,,,,,,ST03_112822,2022-11-29_13h26.22.621,Hippopolis_Learning,2022.2.2,52.75531729006574,
Camponello,stimuli/subj_files/ST03_112822_cityB.csv,./stimuli/arnedillo.png,./stimuli/street_plate2.png,./stimuli/videos/camponello_part1.mp4,SZIKLA UTCA,stimuli/objects/021a.jpg,object,2,stimuli/scenes/005a.jpg,stimuli/scenes/054a.jpg,stimuli/scenes/005b.jpg,stimuli/scenes/005a.jpg,stimuli/scenes/054b.jpg,dist1,lure,target,dist2,0,0,0,0,0,49,49,24,,,,,,,,,,,,,,,,,,295.3954129051417,296.4216727297753,296.4216727297753,296.4216727297753,296.4216727297753,None,,,,,,,,,,,,,,,,,,,,,,,,,,,,,,ST03_112822,2022-11-29_13h26.22.621,Hippopolis_Learning,2022.2.2,52.75531729006574,
Camponello,stimuli/subj_files/ST03_112822_cityB.csv,./stimuli/arnedillo.png,./stimuli/street_plate2.png,./stimuli/videos/camponello_part1.mp4,KÍGYÓ UTCA,stimuli/scenes/076a.jpg,scene,0,stimuli/scenes/076a.jpg,stimuli/scenes/076b.jpg,stimuli/objects/057a.jpg,stimuli/scenes/076a.jpg,stimuli/objects/057b.jpg,lure,dist1,target,dist2,0,0,0,0,0,50,50,6,,,,,,,,,,,,,,,,,,299.40396402589977,300.4254542570561,300.4254542570561,300.4254542570561,300.4254542570561,None,,,,,,,,,,,,,,,,,,,,,,,,,,,,,,ST03_112822,2022-11-29_13h26.22.621,Hippopolis_Learning,2022.2.2,52.75531729006574,
Camponello,stimuli/subj_files/ST03_112822_cityB.csv,./stimuli/arnedillo.png,./stimuli/street_plate2.png,./stimuli/videos/camponello_part1.mp4,KORONA UTCA,stimuli/scenes/120a.jpg,scene,0,stimuli/scenes/120a.jpg,stimuli/scenes/120a.jpg,stimuli/scenes/120b.jpg,stimuli/scenes/063b.jpg,stimuli/scenes/063a.jpg,target,lure,dist2,dist1,0,0,0,0,0,51,51,3,,,,,,,,,,,,,,,,,,303.41906991787255,304.43988059833646,304.43988059833646,304.43988059833646,304.43988059833646,None,,,,,,,,,,,,,,,,,,,,,,,,,,,,,,ST03_112822,2022-11-29_13h26.22.621,Hippopolis_Learning,2022.2.2,52.75531729006574,
Camponello,stimuli/subj_files/ST03_112822_cityB.csv,./stimuli/arnedillo.png,./stimuli/street_plate2.png,./stimuli/videos/camponello_part1.mp4,CSAVAR UTCA,stimuli/scenes/075a.jpg,scene,1,stimuli/scenes/084a.jpg,stimuli/scenes/109b.jpg,stimuli/scenes/109a.jpg,stimuli/scenes/084b.jpg,stimuli/scenes/084a.jpg,dist2,dist1,lure,target,0,0,0,0,0,52,52,15,,,,,,,,,,,,,,,,,,307.43404798582196,308.460935421288,308.460935421288,308.460935421288,308.460935421288,None,,,,,,,,,,,,,,,,,,,,,,,,,,,,,,ST03_112822,2022-11-29_13h26.22.621,Hippopolis_Learning,2022.2.2,52.75531729006574,
Camponello,stimuli/subj_files/ST03_112822_cityB.csv,./stimuli/arnedillo.png,./stimuli/street_plate2.png,./stimuli/videos/camponello_part1.mp4,SUGÁR UTCA,stimuli/scenes/036a.jpg,scene,0,stimuli/scenes/036a.jpg,stimuli/objects/097a.jpg,stimuli/scenes/036a.jpg,stimuli/scenes/036b.jpg,stimuli/objects/097b.jpg,dist1,target,lure,dist2,0,0,0,0,0,53,53,51,,,,,,,,,,,,,,,,,,311.43761740624905,312.4596686922014,312.4596686922014,312.4596686922014,312.4596686922014,None,,,,,,,,,,,,,,,,,,,,,,,,,,,,,,ST03_112822,2022-11-29_13h26.22.621,Hippopolis_Learning,2022.2.2,52.75531729006574,
Camponello,stimuli/subj_files/ST03_112822_cityB.csv,./stimuli/arnedillo.png,./stimuli/street_plate2.png,./stimuli/videos/camponello_part1.mp4,PADLÓ UTCA,stimuli/scenes/008a.jpg,scene,1,stimuli/scenes/028a.jpg,stimuli/scenes/028a.jpg,stimuli/scenes/084b.jpg,stimuli/scenes/084a.jpg,stimuli/scenes/028b.jpg,target,dist2,dist1,lure,0,0,0,0,0,54,54,1,,,,,,,,,,,,,,,,,,315.443819494918,316.4710344206542,316.4710344206542,316.4710344206542,316.4710344206542,None,,,,,,,,,,,,,,,,,,,,,,,,,,,,,,ST03_112822,2022-11-29_13h26.22.621,Hippopolis_Learning,2022.2.2,52.75531729006574,
Camponello,stimuli/subj_files/ST03_112822_cityB.csv,./stimuli/arnedillo.png,./stimuli/street_plate2.png,./stimuli/videos/camponello_part1.mp4,FEJSZE UTCA,stimuli/scenes/083a.jpg,scene,2,stimuli/objects/030a.jpg,stimuli/objects/088b.jpg,stimuli/objects/030b.jpg,stimuli/objects/088a.jpg,stimuli/objects/030a.jpg,dist2,lure,dist1,target,0,0,0,0,0,55,55,19,,,,,,,,,,,,,,,,,,319.45854471437633,320.4680210798979,320.4680210798979,320.4680210798979,320.4680210798979,None,,,,,,,,,,,,,,,,,,,,,,,,,,,,,,ST03_112822,2022-11-29_13h26.22.621,Hippopolis_Learning,2022.2.2,52.75531729006574,
Camponello,stimuli/subj_files/ST03_112822_cityB.csv,./stimuli/arnedillo.png,./stimuli/street_plate2.png,./stimuli/videos/camponello_part1.mp4,VASALÓ UTCA,stimuli/objects/104a.jpg,object,0,stimuli/objects/104a.jpg,stimuli/objects/055b.jpg,stimuli/objects/055a.jpg,stimuli/objects/104a.jpg,stimuli/objects/104b.jpg,dist2,dist1,target,lure,0,0,0,0,0,56,56,60,,,,,,,,,,,,,,,,,,323.4707355424762,324.5064079761505,324.5064079761505,324.5064079761505,324.5064079761505,None,,,,,,,,,,,,,,,,,,,,,,,,,,,,,,ST03_112822,2022-11-29_13h26.22.621,Hippopolis_Learning,2022.2.2,52.75531729006574,
Camponello,stimuli/subj_files/ST03_112822_cityB.csv,./stimuli/arnedillo.png,./stimuli/street_plate2.png,./stimuli/videos/camponello_part1.mp4,ZÁSZLÓ UTCA,stimuli/objects/062a.jpg,object,0,stimuli/objects/062a.jpg,stimuli/scenes/044b.jpg,stimuli/objects/062a.jpg,stimuli/scenes/044a.jpg,stimuli/objects/062b.jpg,dist2,target,dist1,lure,0,0,0,0,0,57,57,64,,,,,,,,,,,,,,,,,,327.4800520502031,328.49609935842454,328.49609935842454,328.49609935842454,328.49609935842454,None,328.49609935842454,,,,,,,,,,,,,,,,,,,,,,,,,,,,,ST03_112822,2022-11-29_13h26.22.621,Hippopolis_Learning,2022.2.2,52.75531729006574,
Camponello,stimuli/subj_files/ST03_112822_cityB.csv,./stimuli/arnedillo.png,./stimuli/street_plate2.png,./stimuli/videos/camponello_part1.mp4,PETÁRDA UTCA,stimuli/scenes/050a.jpg,scene,0,stimuli/scenes/050a.jpg,stimuli/scenes/050a.jpg,stimuli/objects/022a.jpg,stimuli/scenes/050b.jpg,stimuli/objects/022b.jpg,target,dist1,lure,dist2,0,0,0,0,0,58,58,20,,,,,,,,,,,,,,,,,,331.49899389594793,332.5257675014436,332.5257675014436,332.5257675014436,332.5257675014436,None,,,,,,,,,,,,,,,,,,,,,,,,,,,,,,ST03_112822,2022-11-29_13h26.22.621,Hippopolis_Learning,2022.2.2,52.75531729006574,
Camponello,stimuli/subj_files/ST03_112822_cityB.csv,./stimuli/arnedillo.png,./stimuli/street_plate2.png,./stimuli/videos/camponello_part1.mp4,PÁLMAFA UTCA,stimuli/objects/047a.jpg,object,2,stimuli/scenes/049a.jpg,stimuli/objects/074a.jpg,stimuli/scenes/049a.jpg,stimuli/objects/074b.jpg,stimuli/scenes/049b.jpg,dist1,target,dist2,lure,0,0,0,0,0,59,59,12,,,,,,,,,,,,,,,,,,335.5001931358129,336.5263829845935,336.5263829845935,336.5263829845935,336.5263829845935,None,,,,,,,,,,,,,,,,,,,,,,,,,,,,,,ST03_112822,2022-11-29_13h26.22.621,Hippopolis_Learning,2022.2.2,52.75531729006574,
Camponello,stimuli/subj_files/ST03_112822_cityB.csv,./stimuli/arnedillo.png,./stimuli/street_plate2.png,./stimuli/videos/camponello_part1.mp4,OLDAL UTCA,stimuli/objects/076a.jpg,object,0,stimuli/objects/076a.jpg,stimuli/objects/076b.jpg,stimuli/objects/008a.jpg,stimuli/objects/008b.jpg,stimuli/objects/076a.jpg,lure,dist1,dist2,target,0,0,0,0,0,60,60,69,,,,,,,,,,,,,,,,,,339.51519981585443,340.5460606701672,340.5460606701672,340.5460606701672,340.5460606701672,None,,,,,,,,,,,,,,,,,,,,,,,,,,,,,,ST03_112822,2022-11-29_13h26.22.621,Hippopolis_Learning,2022.2.2,52.75531729006574,
Camponello,stimuli/subj_files/ST03_112822_cityB.csv,./stimuli/arnedillo.png,./stimuli/street_plate2.png,./stimuli/videos/camponello_part1.mp4,KOKTÉL UTCA,stimuli/scenes/112a.jpg,scene,0,stimuli/scenes/112a.jpg,stimuli/scenes/112b.jpg,stimuli/scenes/101b.jpg,stimuli/scenes/112a.jpg,stimuli/scenes/101a.jpg,lure,dist2,target,dist1,0,0,0,0,0,61,61,66,,,,,,,,,,,,,,,,,,343.51962481439114,344.55015786737204,344.55015786737204,344.55015786737204,344.55015786737204,None,,,,,,,,,,,,,,,,,,,,,,,,,,,,,,ST03_112822,2022-11-29_13h26.22.621,Hippopolis_Learning,2022.2.2,52.75531729006574,
Camponello,stimuli/subj_files/ST03_112822_cityB.csv,./stimuli/arnedillo.png,./stimuli/street_plate2.png,./stimuli/videos/camponello_part1.mp4,HAJÓ UTCA,stimuli/objects/046a.jpg,object,0,stimuli/objects/046a.jpg,stimuli/scenes/078a.jpg,stimuli/objects/046a.jpg,stimuli/objects/046b.jpg,stimuli/scenes/078b.jpg,dist1,target,lure,dist2,0,0,0,0,0,62,62,36,,,,,,,,,,,,,,,,,,347.52779899537563,348.5462817940861,348.5462817940861,348.5462817940861,348.5462817940861,None,348.5462817940861,,,,,,,,,,,,,,,,,,,,,,,,,,,,,ST03_112822,2022-11-29_13h26.22.621,Hippopolis_Learning,2022.2.2,52.75531729006574,
Camponello,stimuli/subj_files/ST03_112822_cityB.csv,./stimuli/arnedillo.png,./stimuli/street_plate2.png,./stimuli/videos/camponello_part1.mp4,FOGAS UTCA,stimuli/scenes/118a.jpg,scene,0,stimuli/scenes/118a.jpg,stimuli/scenes/007b.jpg,stimuli/scenes/118b.jpg,stimuli/scenes/118a.jpg,stimuli/scenes/007a.jpg,dist2,lure,target,dist1,0,0,0,0,0,63,63,35,,,,,,,,,,,,,,,,,,351.52882780507207,352.5563985221088,352.5563985221088,352.5563985221088,352.5563985221088,None,,,,,,,,,,,,,,,,,,,,,,,,,,,,,,ST03_112822,2022-11-29_13h26.22.621,Hippopolis_Learning,2022.2.2,52.75531729006574,
Camponello,stimuli/subj_files/ST03_112822_cityB.csv,./stimuli/arnedillo.png,./stimuli/street_plate2.png,./stimuli/videos/camponello_part1.mp4,BOLYGÓ UTCA,stimuli/objects/029a.jpg,object,0,stimuli/objects/029a.jpg,stimuli/scenes/058a.jpg,stimuli/scenes/058b.jpg,stimuli/objects/029a.jpg,stimuli/objects/029b.jpg,dist1,dist2,target,lure,0,0,0,0,0,64,64,44,,,,,,,,,,,,,,,,,,355.52981338463724,356.56346956267953,356.56346956267953,356.56346956267953,356.56346956267953,None,,,,,,,,,,,,,,,,,,,,,,,,,,,,,,ST03_112822,2022-11-29_13h26.22.621,Hippopolis_Learning,2022.2.2,52.75531729006574,
Camponello,stimuli/subj_files/ST03_112822_cityB.csv,./stimuli/arnedillo.png,./stimuli/street_plate2.png,./stimuli/videos/camponello_part1.mp4,KUTYA UTCA,stimuli/scenes/089a.jpg,scene,1,stimuli/scenes/108a.jpg,stimuli/scenes/108a.jpg,stimuli/objects/027a.jpg,stimuli/objects/027b.jpg,stimuli/scenes/108b.jpg,target,dist1,dist2,lure,0,0,0,0,0,65,65,0,,,,,,,,,,,,,,,,,,359.5425478518009,360.5602935664356,360.5602935664356,360.5602935664356,360.5602935664356,None,,,,,,,,,,,,,,,,,,,,,,,,,,,,,,ST03_112822,2022-11-29_13h26.22.621,Hippopolis_Learning,2022.2.2,52.75531729006574,
Camponello,stimuli/subj_files/ST03_112822_cityB.csv,./stimuli/arnedillo.png,./stimuli/street_plate2.png,./stimuli/videos/camponello_part1.mp4,GYŰRŰ UTCA,stimuli/objects/040a.jpg,object,0,stimuli/objects/040a.jpg,stimuli/objects/040a.jpg,stimuli/objects/062b.jpg,stimuli/objects/040b.jpg,stimuli/objects/062a.jpg,target,dist2,lure,dist1,0,0,0,0,0,66,66,49,,,,,,,,,,,,,,,,,,363.5580176208168,364.5752986911684,364.5752986911684,364.5752986911684,364.5752986911684,None,,,,,,,,,,,,,,,,,,,,,,,,,,,,,,ST03_112822,2022-11-29_13h26.22.621,Hippopolis_Learning,2022.2.2,52.75531729006574,
Camponello,stimuli/subj_files/ST03_112822_cityB.csv,./stimuli/arnedillo.png,./stimuli/street_plate2.png,./stimuli/videos/camponello_part1.mp4,SZÖCSKE UTCA,stimuli/objects/008a.jpg,object,0,stimuli/objects/008a.jpg,stimuli/objects/008a.jpg,stimuli/scenes/117a.jpg,stimuli/scenes/117b.jpg,stimuli/objects/008b.jpg,target,dist1,dist2,lure,0,0,0,0,0,67,67,56,,,,,,,,,,,,,,,,,,367.56645024754107,368.5893994104117,368.5893994104117,368.5893994104117,368.5893994104117,None,,,,,,,,,,,,,,,,,,,,,,,,,,,,,,ST03_112822,2022-11-29_13h26.22.621,Hippopolis_Learning,2022.2.2,52.75531729006574,
Camponello,stimuli/subj_files/ST03_112822_cityB.csv,./stimuli/arnedillo.png,./stimuli/street_plate2.png,./stimuli/videos/camponello_part1.mp4,REPÜLŐ UTCA,stimuli/objects/022a.jpg,object,0,stimuli/objects/022a.jpg,stimuli/objects/022a.jpg,stimuli/scenes/050a.jpg,stimuli/objects/022b.jpg,stimuli/scenes/050b.jpg,target,dist1,lure,dist2,0,0,0,0,0,68,68,61,,,,,,,,,,,,,,,,,,371.5774325057864,372.6072278507054,372.6072278507054,372.6072278507054,372.6072278507054,None,372.6072278507054,,,,,,,,,,,,,,,,,,,,,,,,,,,,,ST03_112822,2022-11-29_13h26.22.621,Hippopolis_Learning,2022.2.2,52.75531729006574,
Camponello,stimuli/subj_files/ST03_112822_cityB.csv,./stimuli/arnedillo.png,./stimuli/street_plate2.png,./stimuli/videos/camponello_part1.mp4,MOSODA UTCA,stimuli/scenes/040a.jpg,scene,2,stimuli/objects/077a.jpg,stimuli/objects/077a.jpg,stimuli/objects/077b.jpg,stimuli/scenes/005a.jpg,stimuli/scenes/005b.jpg,target,lure,dist1,dist2,0,0,0,0,0,69,69,65,,,,,,,,,,,,,,,,,,375.59123186022043,376.6090425737202,376.6090425737202,376.6090425737202,376.6090425737202,None,,,,,,,,,,,,,,,,,,,,,,,,,,,,,,ST03_112822,2022-11-29_13h26.22.621,Hippopolis_Learning,2022.2.2,52.75531729006574,
Camponello,stimuli/subj_files/ST03_112822_cityB.csv,./stimuli/arnedillo.png,./stimuli/street_plate2.png,./stimuli/videos/camponello_part1.mp4,POLIP UTCA,stimuli/objects/101a.jpg,object,1,stimuli/objects/080a.jpg,stimuli/objects/049a.jpg,stimuli/objects/080a.jpg,stimuli/objects/080b.jpg,stimuli/objects/049b.jpg,dist1,target,lure,dist2,0,0,0,0,0,70,70,50,,,,,,,,,,,,,,,,,,379.5994968544692,380.62769953534007,380.62769953534007,380.62769953534007,380.62769953534007,None,,,,,,,,,,,,,,,,,,,,,,,,,,,,,,ST03_112822,2022-11-29_13h26.22.621,Hippopolis_Learning,2022.2.2,52.75531729006574,
Camponello,stimuli/subj_files/ST03_112822_cityB.csv,./stimuli/arnedillo.png,./stimuli/street_plate2.png,./stimuli/videos/camponello_part1.mp4,KERÉK UTCA,stimuli/scenes/023a.jpg,scene,0,stimuli/scenes/023a.jpg,stimuli/scenes/023a.jpg,stimuli/scenes/018a.jpg,stimuli/scenes/018b.jpg,stimuli/scenes/023b.jpg,target,dist1,dist2,lure,0,0,0,0,0,71,71,31,,,,,,,,,,,,,,,,,,383.61374841071665,384.6325614992529,384.6325614992529,384.6325614992529,384.6325614992529,None,,,,,,,,,,,,,,,,,,,,,,,,,,,,,,ST03_112822,2022-11-29_13h26.22.621,Hippopolis_Learning,2022.2.2,52.75531729006574,
Camponello,stimuli/subj_files/ST03_112822_cityB.csv,./stimuli/arnedillo.png,./stimuli/street_plate2.png,./stimuli/videos/camponello_part1.mp4,OROSZLÁN UTCA,stimuli/objects/102a.jpg,object,0,stimuli/objects/102a.jpg,stimuli/objects/102b.jpg,stimuli/scenes/012b.jpg,stimuli/scenes/012a.jpg,stimuli/objects/102a.jpg,lure,dist2,dist1,target,0,0,0,0,0,72,72,76,,,,,,,,,,,,,,,,,,387.6259768716991,388.6448446959257,388.6448446959257,388.6448446959257,388.6448446959257,None,,,,,,,,,,,,,,,,,,,,,,,,,,,,,,ST03_112822,2022-11-29_13h26.22.621,Hippopolis_Learning,2022.2.2,52.75531729006574,
Camponello,stimuli/subj_files/ST03_112822_cityB.csv,./stimuli/arnedillo.png,./stimuli/street_plate2.png,./stimuli/videos/camponello_part1.mp4,SIVATAG UTCA,stimuli/objects/119a.jpg,object,0,stimuli/objects/119a.jpg,stimuli/objects/119b.jpg,stimuli/scenes/120a.jpg,stimuli/objects/119a.jpg,stimuli/scenes/120b.jpg,lure,dist1,target,dist2,0,0,0,0,0,73,73,8,,,,,,,,,,,,,,,,,,391.6275602057576,392.67035250738263,392.67035250738263,392.67035250738263,392.67035250738263,None,,,,,,,,,,,,,,,,,,,,,,,,,,,,,,ST03_112822,2022-11-29_13h26.22.621,Hippopolis_Learning,2022.2.2,52.75531729006574,
Camponello,stimuli/subj_files/ST03_112822_cityB.csv,./stimuli/arnedillo.png,./stimuli/street_plate2.png,./stimuli/videos/camponello_part1.mp4,HEGESZTŐ UTCA,stimuli/scenes/093a.jpg,scene,0,stimuli/scenes/093a.jpg,stimuli/objects/095b.jpg,stimuli/scenes/093a.jpg,stimuli/objects/095a.jpg,stimuli/scenes/093b.jpg,dist2,target,dist1,lure,0,0,0,0,0,74,74,74,,,,,,,,,,,,,,,,,,395.6282067876309,396.67373034730554,396.67373034730554,396.67373034730554,396.67373034730554,None,,,,,,,,,,,,,,,,,,,,,,,,,,,,,,ST03_112822,2022-11-29_13h26.22.621,Hippopolis_Learning,2022.2.2,52.75531729006574,
Camponello,stimuli/subj_files/ST03_112822_cityB.csv,./stimuli/arnedillo.png,./stimuli/street_plate2.png,./stimuli/videos/camponello_part1.mp4,KANÁL UTCA,stimuli/scenes/101a.jpg,scene,0,stimuli/scenes/101a.jpg,stimuli/objects/040a.jpg,stimuli/scenes/101a.jpg,stimuli/scenes/101b.jpg,stimuli/objects/040b.jpg,dist1,target,lure,dist2,0,0,0,0,0,75,75,38,,,,,,,,,,,,,,,,,,399.63483651168644,400.6537758670747,400.6537758670747,400.6537758670747,400.6537758670747,None,,,,,,,,,,,,,,,,,,,,,,,,,,,,,,ST03_112822,2022-11-29_13h26.22.621,Hippopolis_Learning,2022.2.2,52.75531729006574,
Camponello,stimuli/subj_files/ST03_112822_cityB.csv,./stimuli/arnedillo.png,./stimuli/street_plate2.png,./stimuli/videos/camponello_part1.mp4,HORGONY UTCA,stimuli/scenes/048a.jpg,scene,2,stimuli/objects/074a.jpg,stimuli/objects/077a.jpg,stimuli/objects/074a.jpg,stimuli/objects/074b.jpg,stimuli/objects/077b.jpg,dist1,target,lure,dist2,0,0,0,0,0,76,76,68,,,,,,,,,,,,,,,,,,403.6416497286409,404.67066133767366,404.67066133767366,404.67066133767366,404.67066133767366,None,,,,,,,,,,,,,,,,,,,,,,,,,,,,,,ST03_112822,2022-11-29_13h26.22.621,Hippopolis_Learning,2022.2.2,52.75531729006574,
Camponello,stimuli/subj_files/ST03_112822_cityB.csv,./stimuli/arnedillo.png,./stimuli/street_plate2.png,./stimuli/videos/camponello_part1.mp4,KAKAÓ UTCA,stimuli/objects/045a.jpg,object,0,stimuli/objects/045a.jpg,stimuli/objects/045b.jpg,stimuli/scenes/055b.jpg,stimuli/objects/045a.jpg,stimuli/scenes/055a.jpg,lure,dist2,target,dist1,0,0,0,0,0,77,77,25,,,,,,,,,,,,,,,,,,407.65736114792526,408.6948150265962,408.6948150265962,408.6948150265962,408.6948150265962,None,,,,,,,,,,,,,,,,,,,,,,,,,,,,,,ST03_112822,2022-11-29_13h26.22.621,Hippopolis_Learning,2022.2.2,52.75531729006574,
Camponello,stimuli/subj_files/ST03_112822_cityB.csv,./stimuli/arnedillo.png,./stimuli/street_plate2.png,./stimuli/videos/camponello_part1.mp4,MÁLNA UTCA,stimuli/objects/010a.jpg,object,1,stimuli/objects/053a.jpg,stimuli/objects/053b.jpg,stimuli/objects/053a.jpg,stimuli/objects/080b.jpg,stimuli/objects/080a.jpg,lure,target,dist2,dist1,0,0,0,0,0,78,78,62,,,,,,,,,,,,,,,,,,411.657550862059,412.67414212040603,412.67414212040603,412.67414212040603,412.67414212040603,None,412.67414212040603,,,,,,,,,,,,,,,,,,,,,,,,,,,,,ST03_112822,2022-11-29_13h26.22.621,Hippopolis_Learning,2022.2.2,52.75531729006574,
Camponello,stimuli/subj_files/ST03_112822_cityB.csv,./stimuli/arnedillo.png,./stimuli/street_plate2.png,./stimuli/videos/camponello_part1.mp4,HARMONIKA UTCA,stimuli/objects/112a.jpg,object,0,stimuli/objects/112a.jpg,stimuli/objects/081b.jpg,stimuli/objects/112b.jpg,stimuli/objects/081a.jpg,stimuli/objects/112a.jpg,dist2,lure,dist1,target,0,0,0,0,0,79,79,63,,,,,,,,,,,,,,,,,,415.67416637949646,416.6918585989624,416.6918585989624,416.6918585989624,416.6918585989624,None,,,,,,,,,,,,,,,,,,,,,,,,,,,,,,ST03_112822,2022-11-29_13h26.22.621,Hippopolis_Learning,2022.2.2,52.75531729006574,
Camponello,stimuli/subj_files/ST03_112822_cityB.csv,./stimuli/arnedillo.png,./stimuli/street_plate2.png,./stimuli/videos/camponello_part1.mp4,REPÜLŐ UTCA,stimuli/objects/022a.jpg,object,0,stimuli/objects/022a.jpg,stimuli/objects/022a.jpg,stimuli/scenes/050a.jpg,stimuli/objects/022b.jpg,stimuli/scenes/050b.jpg,target,dist1,lure,dist2,0,0,0,0,,,,,0,0,0,61,,,,,,,,,,,,,,426.65620793774724,,,,,,,,,,419.6907280907035,419.6907280907035,space,2.909609155729413,422.65396153740585,422.65396153740585,422.65396153740585,422.65396153740585,422.65396153740585,422.65396153740585,None,None,,,,,,,,,,,,,,ST03_112822,2022-11-29_13h26.22.621,Hippopolis_Learning,2022.2.2,52.75531729006574,
Camponello,stimuli/subj_files/ST03_112822_cityB.csv,./stimuli/arnedillo.png,./stimuli/street_plate2.png,./stimuli/videos/camponello_part1.mp4,MUNKA UTCA,stimuli/objects/082a.jpg,object,2,stimuli/scenes/016a.jpg,stimuli/scenes/087b.jpg,stimuli/scenes/016b.jpg,stimuli/scenes/016a.jpg,stimuli/scenes/087a.jpg,dist2,lure,target,dist1,0,0,0,0,,,,,0,1,1,18,,,,,,,,,,,,,,431.0677617620677,,,,,,,,,,,,,,427.67769568040967,427.67769568040967,427.67769568040967,427.67769568040967,427.67769568040967,427.67769568040967,left,None,3.3545485828071833,,,,,,,,,,,,,ST03_112822,2022-11-29_13h26.22.621,Hippopolis_Learning,2022.2.2,52.75531729006574,
Camponello,stimuli/subj_files/ST03_112822_cityB.csv,./stimuli/arnedillo.png,./stimuli/street_plate2.png,./stimuli/videos/camponello_part1.mp4,TÉRKÉP UTCA,stimuli/scenes/064a.jpg,scene,0,stimuli/scenes/064a.jpg,stimuli/scenes/064b.jpg,stimuli/scenes/023b.jpg,stimuli/scenes/064a.jpg,stimuli/scenes/023a.jpg,lure,dist2,target,dist1,0,0,0,0,,,,,0,2,2,11,,,,,,,,,,,,,,436.0763794388622,,,,,,,,,,,,,,432.09096035175025,432.09096035175025,432.09096035175025,432.09096035175025,432.09096035175025,432.09096035175025,None,None,,,,,,,,,,,,,,ST03_112822,2022-11-29_13h26.22.621,Hippopolis_Learning,2022.2.2,52.75531729006574,
Camponello,stimuli/subj_files/ST03_112822_cityB.csv,./stimuli/arnedillo.png,./stimuli/street_plate2.png,./stimuli/videos/camponello_part1.mp4,PAPUCS UTCA,stimuli/scenes/038a.jpg,scene,0,stimuli/scenes/038a.jpg,stimuli/scenes/038a.jpg,stimuli/scenes/038b.jpg,stimuli/objects/076b.jpg,stimuli/objects/076a.jpg,target,lure,dist2,dist1,0,0,0,0,,,,,0,3,3,71,,,,,,,,,,,,,,438.73357295431197,,,,,,,,,,,,,,437.09747811220586,437.09747811220586,437.09747811220586,437.09747811220586,437.09747811220586,437.09747811220586,left,None,1.5980581920593977,,,,,,,,,,,,,ST03_112822,2022-11-29_13h26.22.621,Hippopolis_Learning,2022.2.2,52.75531729006574,
Camponello,stimuli/subj_files/ST03_112822_cityB.csv,./stimuli/arnedillo.png,./stimuli/street_plate2.png,./stimuli/videos/camponello_part1.mp4,FÉSŰ UTCA,stimuli/scenes/021a.jpg,scene,0,stimuli/scenes/021a.jpg,stimuli/scenes/021b.jpg,stimuli/scenes/076a.jpg,stimuli/scenes/076b.jpg,stimuli/scenes/021a.jpg,lure,dist1,dist2,target,0,0,0,0,,,,,0,4,4,46,,,,,,,,,,,,,,443.26481696777046,,,,,,,,,,,,,,439.7534599471837,439.7534599471837,439.7534599471837,439.7534599471837,439.7534599471837,439.7534599471837,left,None,3.4702846352010965,,,,,,,,,,,,,ST03_112822,2022-11-29_13h26.22.621,Hippopolis_Learning,2022.2.2,52.75531729006574,
Camponello,stimuli/subj_files/ST03_112822_cityB.csv,./stimuli/arnedillo.png,./stimuli/street_plate2.png,./stimuli/videos/camponello_part1.mp4,ORVOS UTCA,stimuli/scenes/063a.jpg,scene,0,stimuli/scenes/063a.jpg,stimuli/scenes/063b.jpg,stimuli/objects/120a.jpg,stimuli/scenes/063a.jpg,stimuli/objects/120b.jpg,lure,dist1,target,dist2,0,0,0,0,,,,,0,5,5,23,,,,,,,,,,,,,,446.7677282989025,,,,,,,,,,,,,,444.2843556329608,444.2843556329608,444.2843556329608,444.2843556329608,444.2843556329608,444.2843556329608,left,None,2.4430753085762262,,,,,,,,,,,,,ST03_112822,2022-11-29_13h26.22.621,Hippopolis_Learning,2022.2.2,52.75531729006574,
Camponello,stimuli/subj_files/ST03_112822_cityB.csv,./stimuli/arnedillo.png,./stimuli/street_plate2.png,./stimuli/videos/camponello_part1.mp4,FÜGE UTCA,stimuli/scenes/073a.jpg,scene,0,stimuli/scenes/073a.jpg,stimuli/scenes/073a.jpg,stimuli/scenes/073b.jpg,stimuli/scenes/118a.jpg,stimuli/scenes/118b.jpg,target,lure,dist1,dist2,0,0,0,0,,,,,0,6,6,2,,,,,,,,,,,,,,450.5951558277011,,,,,,,,,,,,,,447.78042482212186,447.78042482212186,447.78042482212186,447.78042482212186,447.78042482212186,447.78042482212186,left,None,2.7715241834521294,,,,,,,,,,,,,ST03_112822,2022-11-29_13h26.22.621,Hippopolis_Learning,2022.2.2,52.75531729006574,
Camponello,stimuli/subj_files/ST03_112822_cityB.csv,./stimuli/arnedillo.png,./stimuli/street_plate2.png,./stimuli/videos/camponello_part1.mp4,HORGONY UTCA,stimuli/scenes/048a.jpg,scene,2,stimuli/objects/074a.jpg,stimuli/objects/077a.jpg,stimuli/objects/074a.jpg,stimuli/objects/074b.jpg,stimuli/objects/077b.jpg,dist1,target,lure,dist2,0,0,0,0,,,,,0,7,7,68,,,,,,,,,,,,,,453.92605543136597,,,,,,454.936806300655,,,,,,,,451.605837341398,451.605837341398,451.605837341398,451.605837341398,451.605837341398,451.605837341398,right,None,2.2897976748645306,,,,,,,,,,,,,ST03_112822,2022-11-29_13h26.22.621,Hippopolis_Learning,2022.2.2,52.75531729006574,
Camponello,stimuli/subj_files/ST03_112822_cityB.csv,./stimuli/arnedillo.png,./stimuli/street_plate2.png,./stimuli/videos/camponello_part1.mp4,SZÖCSKE UTCA,stimuli/objects/008a.jpg,object,0,stimuli/objects/008a.jpg,stimuli/objects/008a.jpg,stimuli/scenes/117a.jpg,stimuli/scenes/117b.jpg,stimuli/objects/008b.jpg,target,dist1,dist2,lure,0,0,0,0,,,,,0,8,8,56,,,,,,,,,,,,,,457.5621440540999,,,,,,458.5806038379669,,,,,,,,454.936806300655,454.936806300655,454.936806300655,454.936806300655,454.936806300655,454.936806300655,left,None,2.5912004988640547,,,,,,,,,,,,,ST03_112822,2022-11-29_13h26.22.621,Hippopolis_Learning,2022.2.2,52.75531729006574,
Camponello,stimuli/subj_files/ST03_112822_cityB.csv,./stimuli/arnedillo.png,./stimuli/street_plate2.png,./stimuli/videos/camponello_part1.mp4,TENISZ UTCA,stimuli/scenes/099a.jpg,scene,2,stimuli/objects/105a.jpg,stimuli/scenes/034b.jpg,stimuli/objects/105a.jpg,stimuli/scenes/034a.jpg,stimuli/objects/105b.jpg,dist2,target,dist1,lure,0,0,0,0,,,,,0,9,9,7,,,,,,,,,,,,,,461.13012383133173,,,,,,,,,,,,,,458.5806038379669,458.5806038379669,458.5806038379669,458.5806038379669,458.5806038379669,458.5806038379669,left,None,2.5151090528815985,,,,,,,,,,,,,ST03_112822,2022-11-29_13h26.22.621,Hippopolis_Learning,2022.2.2,52.75531729006574,
Camponello,stimuli/subj_files/ST03_112822_cityB.csv,./stimuli/arnedillo.png,./stimuli/street_plate2.png,./stimuli/videos/camponello_part1.mp4,SZŐNYEG UTCA,stimuli/objects/028a.jpg,object,0,stimuli/objects/028a.jpg,stimuli/objects/028a.jpg,stimuli/scenes/038a.jpg,stimuli/scenes/038b.jpg,stimuli/objects/028b.jpg,target,dist1,dist2,lure,0,0,0,0,,,,,0,10,10,78,,,,,,,,,,,,,,465.47980635613203,,,,,,466.4979563783854,,,,,,,,462.14872543513775,462.14872543513775,462.14872543513775,462.14872543513775,462.14872543513775,462.14872543513775,left,None,3.2986734863370657,,,,,,,,,,,,,ST03_112822,2022-11-29_13h26.22.621,Hippopolis_Learning,2022.2.2,52.75531729006574,
Camponello,stimuli/subj_files/ST03_112822_cityB.csv,./stimuli/arnedillo.png,./stimuli/street_plate2.png,./stimuli/videos/camponello_part1.mp4,KUTYA UTCA,stimuli/scenes/089a.jpg,scene,1,stimuli/scenes/108a.jpg,stimuli/scenes/108a.jpg,stimuli/objects/027a.jpg,stimuli/objects/027b.jpg,stimuli/scenes/108b.jpg,target,dist1,dist2,lure,0,0,0,0,,,,,0,11,11,0,,,,,,,,,,,,,,469.68386884592474,,,,,,,,,,,,,,466.4979563783854,466.4979563783854,466.4979563783854,466.4979563783854,466.4979563783854,466.4979563783854,right,None,3.1416370291262865,,,,,,,,,,,,,ST03_112822,2022-11-29_13h26.22.621,Hippopolis_Learning,2022.2.2,52.75531729006574,
Camponello,stimuli/subj_files/ST03_112822_cityB.csv,./stimuli/arnedillo.png,./stimuli/street_plate2.png,./stimuli/videos/camponello_part1.mp4,KAKAS UTCA,stimuli/objects/081a.jpg,object,0,stimuli/objects/081a.jpg,stimuli/objects/081b.jpg,stimuli/scenes/021b.jpg,stimuli/scenes/021a.jpg,stimuli/objects/081a.jpg,lure,dist2,dist1,target,0,0,0,0,,,,,0,12,12,57,,,,,,,,,,,,,,474.6964692696929,,,,,,,,,,,,,,470.70495445653796,470.70495445653796,470.70495445653796,470.70495445653796,470.70495445653796,470.70495445653796,None,None,,,,,,,,,,,,,,ST03_112822,2022-11-29_13h26.22.621,Hippopolis_Learning,2022.2.2,52.75531729006574,
Camponello,stimuli/subj_files/ST03_112822_cityB.csv,./stimuli/arnedillo.png,./stimuli/street_plate2.png,./stimuli/videos/camponello_part1.mp4,BANÁN UTCA,stimuli/objects/079a.jpg,object,0,stimuli/objects/079a.jpg,stimuli/objects/079b.jpg,stimuli/objects/115b.jpg,stimuli/objects/115a.jpg,stimuli/objects/079a.jpg,lure,dist2,dist1,target,0,0,0,0,,,,,0,13,13,42,,,,,,,,,,,,,,477.83401246741414,,,,,,478.8537476900965,,,,,,,,475.71551872231066,475.71551872231066,475.71551872231066,475.71551872231066,475.71551872231066,475.71551872231066,left,None,2.0675033684819937,,,,,,,,,,,,,ST03_112822,2022-11-29_13h26.22.621,Hippopolis_Learning,2022.2.2,52.75531729006574,
Camponello,stimuli/subj_files/ST03_112822_cityB.csv,./stimuli/arnedillo.png,./stimuli/street_plate2.png,./stimuli/videos/camponello_part1.mp4,TOBOZ UTCA,stimuli/scenes/104a.jpg,scene,0,stimuli/scenes/104a.jpg,stimuli/scenes/104b.jpg,stimuli/scenes/061b.jpg,stimuli/scenes/104a.jpg,stimuli/scenes/061a.jpg,lure,dist2,target,dist1,0,0,0,0,,,,,0,14,14,72,,,,,,,,,,,,,,482.86938229203224,,,,,,,,,,,,,,478.8537476900965,478.8537476900965,478.8537476900965,478.8537476900965,478.8537476900965,478.8537476900965,None,None,,,,,,,,,,,,,,ST03_112822,2022-11-29_13h26.22.621,Hippopolis_Learning,2022.2.2,52.75531729006574,
Camponello,stimuli/subj_files/ST03_112822_cityB.csv,./stimuli/arnedillo.png,./stimuli/street_plate2.png,./stimuli/videos/camponello_part1.mp4,MENTA UTCA,stimuli/scenes/059a.jpg,scene,1,stimuli/scenes/057a.jpg,stimuli/scenes/111b.jpg,stimuli/scenes/057a.jpg,stimuli/scenes/111a.jpg,stimuli/scenes/057b.jpg,dist2,target,dist1,lure,0,0,0,0,,,,,0,15,15,58,,,,,,,,,,,,,,487.0805332399905,,,,,,,,,,,,,,483.88821746222675,483.88821746222675,483.88821746222675,483.88821746222675,483.88821746222675,483.88821746222675,left,None,3.159210754558444,,,,,,,,,,,,,ST03_112822,2022-11-29_13h26.22.621,Hippopolis_Learning,2022.2.2,52.75531729006574,
Camponello,stimuli/subj_files/ST03_112822_cityB.csv,./stimuli/arnedillo.png,./stimuli/street_plate2.png,./stimuli/videos/camponello_part1.mp4,AKÁC UTCA,stimuli/scenes/058a.jpg,scene,0,stimuli/scenes/058a.jpg,stimuli/scenes/058b.jpg,stimuli/objects/104a.jpg,stimuli/objects/104b.jpg,stimuli/scenes/058a.jpg,lure,dist1,dist2,target,0,0,0,0,,,,,0,16,16,16,,,,,,,,,,,,,,491.6976237259805,,,,,,,,,,,,,,488.09865527041256,488.09865527041256,488.09865527041256,488.09865527041256,488.09865527041256,488.09865527041256,left,None,3.556400438770652,,,,,,,,,,,,,ST03_112822,2022-11-29_13h26.22.621,Hippopolis_Learning,2022.2.2,52.75531729006574,
Camponello,stimuli/subj_files/ST03_112822_cityB.csv,./stimuli/arnedillo.png,./stimuli/street_plate2.png,./stimuli/videos/camponello_part1.mp4,SUGÁR UTCA,stimuli/scenes/036a.jpg,scene,0,stimuli/scenes/036a.jpg,stimuli/objects/097a.jpg,stimuli/scenes/036a.jpg,stimuli/scenes/036b.jpg,stimuli/objects/097b.jpg,dist1,target,lure,dist2,0,0,0,0,,,,,0,17,17,51,,,,,,,,,,,,,,496.01506826095283,,,,,,,,,,,,,,492.7079195920378,492.7079195920378,492.7079195920378,492.7079195920378,492.7079195920378,492.7079195920378,right,None,3.267150189727545,,,,,,,,,,,,,ST03_112822,2022-11-29_13h26.22.621,Hippopolis_Learning,2022.2.2,52.75531729006574,
Camponello,stimuli/subj_files/ST03_112822_cityB.csv,./stimuli/arnedillo.png,./stimuli/street_plate2.png,./stimuli/videos/camponello_part1.mp4,LÉTRA UTCA,stimuli/objects/012a.jpg,object,1,stimuli/objects/049a.jpg,stimuli/objects/049a.jpg,stimuli/objects/049b.jpg,stimuli/objects/109b.jpg,stimuli/objects/109a.jpg,target,lure,dist2,dist1,0,0,0,0,,,,,0,18,18,30,,,,,,,,,,,,,,499.8921044189483,,,,,,500.9024914111942,,,,,,,,497.0256157312542,497.0256157312542,497.0256157312542,497.0256157312542,497.0256157312542,497.0256157312542,left,None,2.837836032733321,,,,,,,,,,,,,ST03_112822,2022-11-29_13h26.22.621,Hippopolis_Learning,2022.2.2,52.75531729006574,
Camponello,stimuli/subj_files/ST03_112822_cityB.csv,./stimuli/arnedillo.png,./stimuli/street_plate2.png,./stimuli/videos/camponello_part1.mp4,OROSZLÁN UTCA,stimuli/objects/102a.jpg,object,0,stimuli/objects/102a.jpg,stimuli/objects/102b.jpg,stimuli/scenes/012b.jpg,stimuli/scenes/012a.jpg,stimuli/objects/102a.jpg,lure,dist2,dist1,target,0,0,0,0,,,,,0,19,19,76,,,,,,,,,,,,,,504.9125997405499,,,,,,,,,,,,,,500.9024914111942,500.9024914111942,500.9024914111942,500.9024914111942,500.9024914111942,500.9024914111942,None,None,,,,,,,,,,,,,,ST03_112822,2022-11-29_13h26.22.621,Hippopolis_Learning,2022.2.2,52.75531729006574,
Camponello,stimuli/subj_files/ST03_112822_cityB.csv,./stimuli/arnedillo.png,./stimuli/street_plate2.png,./stimuli/videos/camponello_part1.mp4,PULÓVER UTCA,stimuli/objects/007a.jpg,object,0,stimuli/objects/007a.jpg,stimuli/scenes/103b.jpg,stimuli/objects/007b.jpg,stimuli/objects/007a.jpg,stimuli/scenes/103a.jpg,dist2,lure,target,dist1,0,0,0,0,,,,,0,20,20,39,,,,,,,,,,,,,,508.31577038764954,,,,,,,,,,,,,,505.9312106743455,505.9312106743455,505.9312106743455,505.9312106743455,505.9312106743455,505.9312106743455,left,None,2.348168598487973,,,,,,,,,,,,,ST03_112822,2022-11-29_13h26.22.621,Hippopolis_Learning,2022.2.2,52.75531729006574,
Camponello,stimuli/subj_files/ST03_112822_cityB.csv,./stimuli/arnedillo.png,./stimuli/street_plate2.png,./stimuli/videos/camponello_part1.mp4,TISZTÁS UTCA,stimuli/scenes/095a.jpg,scene,0,stimuli/scenes/095a.jpg,stimuli/scenes/095a.jpg,stimuli/scenes/095b.jpg,stimuli/objects/078a.jpg,stimuli/objects/078b.jpg,target,lure,dist1,dist2,0,0,0,0,,,,,0,21,21,32,,,,,,,,,,,,,,511.7089459132403,,,,,,512.7177433501929,,,,,,,,509.33693312853575,509.33693312853575,509.33693312853575,509.33693312853575,509.33693312853575,509.33693312853575,left,None,2.3339468985795975,,,,,,,,,,,,,ST03_112822,2022-11-29_13h26.22.621,Hippopolis_Learning,2022.2.2,52.75531729006574,
Camponello,stimuli/subj_files/ST03_112822_cityB.csv,./stimuli/arnedillo.png,./stimuli/street_plate2.png,./stimuli/videos/camponello_part1.mp4,VITORLA UTCA,stimuli/objects/059a.jpg,object,2,stimuli/scenes/087a.jpg,stimuli/objects/030a.jpg,stimuli/scenes/087b.jpg,stimuli/objects/030b.jpg,stimuli/scenes/087a.jpg,dist1,lure,dist2,target,0,0,0,0,,,,,0,22,22,41,,,,,,,,,,,,,,514.7917653601617,,,,,,,,,,,,,,512.7177433501929,512.7177433501929,512.7177433501929,512.7177433501929,512.7177433501929,512.7177433501929,left,None,2.008993113413453,,,,,,,,,,,,,ST03_112822,2022-11-29_13h26.22.621,Hippopolis_Learning,2022.2.2,52.75531729006574,
Camponello,stimuli/subj_files/ST03_112822_cityB.csv,./stimuli/arnedillo.png,./stimuli/street_plate2.png,./stimuli/videos/camponello_part1.mp4,SZIKLA UTCA,stimuli/objects/021a.jpg,object,2,stimuli/scenes/005a.jpg,stimuli/scenes/054a.jpg,stimuli/scenes/005b.jpg,stimuli/scenes/005a.jpg,stimuli/scenes/054b.jpg,dist1,lure,target,dist2,0,0,0,0,,,,,0,23,23,24,,,,,,,,,,,,,,518.8121328577399,,,,,,,,,,,,,,515.8182096108794,515.8182096108794,515.8182096108794,515.8182096108794,515.8182096108794,515.8182096108794,left,None,2.9566358104348183,,,,,,,,,,,,,ST03_112822,2022-11-29_13h26.22.621,Hippopolis_Learning,2022.2.2,52.75531729006574,
Camponello,stimuli/subj_files/ST03_112822_cityB.csv,./stimuli/arnedillo.png,./stimuli/street_plate2.png,./stimuli/videos/camponello_part1.mp4,KÍGYÓ UTCA,stimuli/scenes/076a.jpg,scene,0,stimuli/scenes/076a.jpg,stimuli/scenes/076b.jpg,stimuli/objects/057a.jpg,stimuli/scenes/076a.jpg,stimuli/objects/057b.jpg,lure,dist1,target,dist2,0,0,0,0,,,,,0,24,24,6,,,,,,,,,,,,,,523.8375495448709,,,,,,,,,,,,,,519.8301678076386,519.8301678076386,519.8301678076386,519.8301678076386,519.8301678076386,519.8301678076386,None,None,,,,,,,,,,,,,,ST03_112822,2022-11-29_13h26.22.621,Hippopolis_Learning,2022.2.2,52.75531729006574,
Camponello,stimuli/subj_files/ST03_112822_cityB.csv,./stimuli/arnedillo.png,./stimuli/street_plate2.png,./stimuli/videos/camponello_part1.mp4,PÉKSÉG UTCA,stimuli/objects/017a.jpg,object,1,stimuli/objects/027a.jpg,stimuli/objects/033a.jpg,stimuli/objects/033b.jpg,stimuli/objects/027b.jpg,stimuli/objects/027a.jpg,dist1,dist2,lure,target,0,0,0,0,,,,,0,25,25,55,,,,,,,,,,,,,,528.3581347465515,,,,,,529.3663468696177,,,,,,,,524.8613082561642,524.8613082561642,524.8613082561642,524.8613082561642,524.8613082561642,524.8613082561642,left,None,3.465752027928829,,,,,,,,,,,,,ST03_112822,2022-11-29_13h26.22.621,Hippopolis_Learning,2022.2.2,52.75531729006574,
Camponello,stimuli/subj_files/ST03_112822_cityB.csv,./stimuli/arnedillo.png,./stimuli/street_plate2.png,./stimuli/videos/camponello_part1.mp4,LOVAGLÁS UTCA,stimuli/scenes/012a.jpg,scene,0,stimuli/scenes/012a.jpg,stimuli/scenes/012b.jpg,stimuli/scenes/104a.jpg,stimuli/scenes/012a.jpg,stimuli/scenes/104b.jpg,lure,dist1,target,dist2,0,0,0,0,,,,,0,26,26,37,,,,,,,,,,,,,,532.8818508498371,,,,,,,,,,,,,,529.3663468696177,529.3663468696177,529.3663468696177,529.3663468696177,529.3663468696177,529.3663468696177,left,None,3.4560414757579565,,,,,,,,,,,,,ST03_112822,2022-11-29_13h26.22.621,Hippopolis_Learning,2022.2.2,52.75531729006574,
Camponello,stimuli/subj_files/ST03_112822_cityB.csv,./stimuli/arnedillo.png,./stimuli/street_plate2.png,./stimuli/videos/camponello_part1.mp4,ZÁSZLÓ UTCA,stimuli/objects/062a.jpg,object,0,stimuli/objects/062a.jpg,stimuli/scenes/044b.jpg,stimuli/objects/062a.jpg,stimuli/scenes/044a.jpg,stimuli/objects/062b.jpg,dist2,target,dist1,lure,0,0,0,0,,,,,0,27,27,64,,,,,,,,,,,,,,537.2480235546827,,,,,,,,,,,,,,533.9044874496758,533.9044874496758,533.9044874496758,533.9044874496758,533.9044874496758,533.9044874496758,left,None,3.3024092949926853,,,,,,,,,,,,,ST03_112822,2022-11-29_13h26.22.621,Hippopolis_Learning,2022.2.2,52.75531729006574,
Camponello,stimuli/subj_files/ST03_112822_cityB.csv,./stimuli/arnedillo.png,./stimuli/street_plate2.png,./stimuli/videos/camponello_part1.mp4,FEJSZE UTCA,stimuli/scenes/083a.jpg,scene,2,stimuli/objects/030a.jpg,stimuli/objects/088b.jpg,stimuli/objects/030b.jpg,stimuli/objects/088a.jpg,stimuli/objects/030a.jpg,dist2,lure,dist1,target,0,0,0,0,,,,,0,28,28,19,,,,,,,,,,,,,,542.2636743299663,,,,,,,,,,,,,,538.2666012104601,538.2666012104601,538.2666012104601,538.2666012104601,538.2666012104601,538.2666012104601,None,None,,,,,,,,,,,,,,ST03_112822,2022-11-29_13h26.22.621,Hippopolis_Learning,2022.2.2,52.75531729006574,
Camponello,stimuli/subj_files/ST03_112822_cityB.csv,./stimuli/arnedillo.png,./stimuli/street_plate2.png,./stimuli/videos/camponello_part1.mp4,KÖTÉNY UTCA,stimuli/objects/115a.jpg,object,0,stimuli/objects/115a.jpg,stimuli/objects/115b.jpg,stimuli/objects/083a.jpg,stimuli/objects/115a.jpg,stimuli/objects/083b.jpg,lure,dist1,target,dist2,0,0,0,0,,,,,0,29,29,28,,,,,,,,,,,,,,545.4482743497938,,,,,,,,,,,,,,543.2933113723993,543.2933113723993,543.2933113723993,543.2933113723993,543.2933113723993,543.2933113723993,left,None,2.1216439828276634,,,,,,,,,,,,,ST03_112822,2022-11-29_13h26.22.621,Hippopolis_Learning,2022.2.2,52.75531729006574,
Camponello,stimuli/subj_files/ST03_112822_cityB.csv,./stimuli/arnedillo.png,./stimuli/street_plate2.png,./stimuli/videos/camponello_part1.mp4,KANÁL UTCA,stimuli/scenes/101a.jpg,scene,0,stimuli/scenes/101a.jpg,stimuli/objects/040a.jpg,stimuli/scenes/101a.jpg,stimuli/scenes/101b.jpg,stimuli/objects/040b.jpg,dist1,target,lure,dist2,0,0,0,0,,,,,0,30,30,38,,,,,,,,,,,,,,570.7330016344786,,,,,,,,,,,,,,546.4592370148748,546.4592370148748,546.4592370148748,546.4592370148748,546.4592370148748,546.4592370148748,right,space,3.0990459471940994,549.587258130312,549.587258130312,549.587258130312,549.587258130312,549.587258130312,21.122682431712747,,,,,,,ST03_112822,2022-11-29_13h26.22.621,Hippopolis_Learning,2022.2.2,52.75531729006574,
Camponello,stimuli/subj_files/ST03_112822_cityB.csv,./stimuli/arnedillo.png,./stimuli/street_plate2.png,./stimuli/videos/camponello_part1.mp4,POLIP UTCA,stimuli/objects/101a.jpg,object,1,stimuli/objects/080a.jpg,stimuli/objects/049a.jpg,stimuli/objects/080a.jpg,stimuli/objects/080b.jpg,stimuli/objects/049b.jpg,dist1,target,lure,dist2,0,0,0,0,,,,,0,31,31,50,,,,,,,,,,,,,,575.7504450511187,,,,,,,,,,,,,,571.745597705245,571.745597705245,571.745597705245,571.745597705245,571.745597705245,571.745597705245,None,None,,,,,,,,,,,,,,ST03_112822,2022-11-29_13h26.22.621,Hippopolis_Learning,2022.2.2,52.75531729006574,
Camponello,stimuli/subj_files/ST03_112822_cityB.csv,./stimuli/arnedillo.png,./stimuli/street_plate2.png,./stimuli/videos/camponello_part1.mp4,AJÁNDÉK UTCA,stimuli/objects/092a.jpg,object,2,stimuli/scenes/034a.jpg,stimuli/scenes/034a.jpg,stimuli/scenes/034b.jpg,stimuli/scenes/016b.jpg,stimuli/scenes/016a.jpg,target,lure,dist2,dist1,0,0,0,0,,,,,0,32,32,26,,,,,,,,,,,,,,578.1931132003665,,,,,,,,,,,,,,576.7730561476201,576.7730561476201,576.7730561476201,576.7730561476201,576.7730561476201,576.7730561476201,left,None,1.3931012451648712,,,,,,,,,,,,,ST03_112822,2022-11-29_13h26.22.621,Hippopolis_Learning,2022.2.2,52.75531729006574,
Camponello,stimuli/subj_files/ST03_112822_cityB.csv,./stimuli/arnedillo.png,./stimuli/street_plate2.png,./stimuli/videos/camponello_part1.mp4,SZŐLŐ UTCA,stimuli/scenes/007a.jpg,scene,0,stimuli/scenes/007a.jpg,stimuli/scenes/073b.jpg,stimuli/scenes/007a.jpg,stimuli/scenes/073a.jpg,stimuli/scenes/007b.jpg,dist2,target,dist1,lure,0,0,0,0,,,,,0,33,33,22,,,,,,,,,,,,,,583.2163553293794,,,,,,,,,,,,,,579.2203383874148,579.2203383874148,579.2203383874148,579.2203383874148,579.2203383874148,579.2203383874148,None,None,,,,,,,,,,,,,,ST03_112822,2022-11-29_13h26.22.621,Hippopolis_Learning,2022.2.2,52.75531729006574,
Camponello,stimuli/subj_files/ST03_112822_cityB.csv,./stimuli/arnedillo.png,./stimuli/street_plate2.png,./stimuli/videos/camponello_part1.mp4,MÁLNA UTCA,stimuli/objects/010a.jpg,object,1,stimuli/objects/053a.jpg,stimuli/objects/053b.jpg,stimuli/objects/053a.jpg,stimuli/objects/080b.jpg,stimuli/objects/080a.jpg,lure,target,dist2,dist1,0,0,0,0,,,,,0,34,34,62,,,,,,,,,,,,,,585.8508929628879,,,,,,,,,,,,,,584.2378296982497,584.2378296982497,584.2378296982497,584.2378296982497,584.2378296982497,584.2378296982497,left,None,1.5765231736004353,,,,,,,,,,,,,ST03_112822,2022-11-29_13h26.22.621,Hippopolis_Learning,2022.2.2,52.75531729006574,
Camponello,stimuli/subj_files/ST03_112822_cityB.csv,./stimuli/arnedillo.png,./stimuli/street_plate2.png,./stimuli/videos/camponello_part1.mp4,ÁLLOMÁS UTCA,stimuli/scenes/061a.jpg,scene,0,stimuli/scenes/061a.jpg,stimuli/scenes/061a.jpg,stimuli/scenes/061b.jpg,stimuli/scenes/036a.jpg,stimuli/scenes/036b.jpg,target,lure,dist1,dist2,0,0,0,0,,,,,0,35,35,47,,,,,,,,,,,,,,588.5695795938373,,,,,,589.5848584063351,,,,,,,,586.8773005157709,586.8773005157709,586.8773005157709,586.8773005157709,586.8773005157709,586.8773005157709,left,None,1.6572318226099014,,,,,,,,,,,,,ST03_112822,2022-11-29_13h26.22.621,Hippopolis_Learning,2022.2.2,52.75531729006574,
Camponello,stimuli/subj_files/ST03_112822_cityB.csv,./stimuli/arnedillo.png,./stimuli/street_plate2.png,./stimuli/videos/camponello_part1.mp4,KORONA UTCA,stimuli/scenes/120a.jpg,scene,0,stimuli/scenes/120a.jpg,stimuli/scenes/120a.jpg,stimuli/scenes/120b.jpg,stimuli/scenes/063b.jpg,stimuli/scenes/063a.jpg,target,lure,dist2,dist1,0,0,0,0,,,,,0,36,36,3,,,,,,,,,,,,,,593.3143130131066,,,,,,,,,,,,,,589.5848584063351,589.5848584063351,589.5848584063351,589.5848584063351,589.5848584063351,589.5848584063351,left,None,3.7013947293162346,,,,,,,,,,,,,ST03_112822,2022-11-29_13h26.22.621,Hippopolis_Learning,2022.2.2,52.75531729006574,
Camponello,stimuli/subj_files/ST03_112822_cityB.csv,./stimuli/arnedillo.png,./stimuli/street_plate2.png,./stimuli/videos/camponello_part1.mp4,CSAVAR UTCA,stimuli/scenes/075a.jpg,scene,1,stimuli/scenes/084a.jpg,stimuli/scenes/109b.jpg,stimuli/scenes/109a.jpg,stimuli/scenes/084b.jpg,stimuli/scenes/084a.jpg,dist2,dist1,lure,target,0,0,0,0,,,,,0,37,37,15,,,,,,,,,,,,,,597.7233215607703,,,,,,,,,,,,,,594.3327942565084,594.3327942565084,594.3327942565084,594.3327942565084,594.3327942565084,594.3327942565084,left,None,3.3533061128109694,,,,,,,,,,,,,ST03_112822,2022-11-29_13h26.22.621,Hippopolis_Learning,2022.2.2,52.75531729006574,
Camponello,stimuli/subj_files/ST03_112822_cityB.csv,./stimuli/arnedillo.png,./stimuli/street_plate2.png,./stimuli/videos/camponello_part1.mp4,TORONY UTCA,stimuli/objects/061a.jpg,object,0,stimuli/objects/061a.jpg,stimuli/objects/061b.jpg,stimuli/objects/061a.jpg,stimuli/scenes/112b.jpg,stimuli/scenes/112a.jpg,lure,target,dist2,dist1,0,0,0,0,,,,,0,38,38,14,,,,,,,,,,,,,,602.7423632387072,,,,,,,,,,,,,,598.7327245287597,598.7327245287597,598.7327245287597,598.7327245287597,598.7327245287597,598.7327245287597,None,None,,,,,,,,,,,,,,ST03_112822,2022-11-29_13h26.22.621,Hippopolis_Learning,2022.2.2,52.75531729006574,
Camponello,stimuli/subj_files/ST03_112822_cityB.csv,./stimuli/arnedillo.png,./stimuli/street_plate2.png,./stimuli/videos/camponello_part1.mp4,GYŰRŰ UTCA,stimuli/objects/040a.jpg,object,0,stimuli/objects/040a.jpg,stimuli/objects/040a.jpg,stimuli/objects/062b.jpg,stimuli/objects/040b.jpg,stimuli/objects/062a.jpg,target,dist2,lure,dist1,0,0,0,0,,,,,0,39,39,49,,,,,,,,,,,,,,606.083644548431,,,,,,,,,,,,,,603.7574510909617,603.7574510909617,603.7574510909617,603.7574510909617,603.7574510909617,603.7574510909617,left,None,2.2800659723579884,,,,,,,,,,,,,ST03_112822,2022-11-29_13h26.22.621,Hippopolis_Learning,2022.2.2,52.75531729006574,
Camponello,stimuli/subj_files/ST03_112822_cityB.csv,./stimuli/arnedillo.png,./stimuli/street_plate2.png,./stimuli/videos/camponello_part1.mp4,BOLYGÓ UTCA,stimuli/objects/029a.jpg,object,0,stimuli/objects/029a.jpg,stimuli/scenes/058a.jpg,stimuli/scenes/058b.jpg,stimuli/objects/029a.jpg,stimuli/objects/029b.jpg,dist1,dist2,target,lure,0,0,0,0,,,,,0,40,40,44,,,,,,,,,,,,,,609.0794192142785,,,,,,,,,,,,,,607.1013370789587,607.1013370789587,607.1013370789587,607.1013370789587,607.1013370789587,607.1013370789587,left,None,1.9451086670160294,,,,,,,,,,,,,ST03_112822,2022-11-29_13h26.22.621,Hippopolis_Learning,2022.2.2,52.75531729006574,
Camponello,stimuli/subj_files/ST03_112822_cityB.csv,./stimuli/arnedillo.png,./stimuli/street_plate2.png,./stimuli/videos/camponello_part1.mp4,VASALÓ UTCA,stimuli/objects/104a.jpg,object,0,stimuli/objects/104a.jpg,stimuli/objects/055b.jpg,stimuli/objects/055a.jpg,stimuli/objects/104a.jpg,stimuli/objects/104b.jpg,dist2,dist1,target,lure,0,0,0,0,,,,,0,41,41,60,,,,,,,,,,,,,,612.9425698705018,,,,,,,,,,,,,,610.090772503987,610.090772503987,610.090772503987,610.090772503987,610.090772503987,610.090772503987,left,None,2.8116157054901123,,,,,,,,,,,,,ST03_112822,2022-11-29_13h26.22.621,Hippopolis_Learning,2022.2.2,52.75531729006574,
Camponello,stimuli/subj_files/ST03_112822_cityB.csv,./stimuli/arnedillo.png,./stimuli/street_plate2.png,./stimuli/videos/camponello_part1.mp4,HARMONIKA UTCA,stimuli/objects/112a.jpg,object,0,stimuli/objects/112a.jpg,stimuli/objects/081b.jpg,stimuli/objects/112b.jpg,stimuli/objects/081a.jpg,stimuli/objects/112a.jpg,dist2,lure,dist1,target,0,0,0,0,,,,,0,42,42,63,,,,,,,,,,,,,,616.7550678495318,,,,,,617.7711002286524,,,,,,,,613.9525059033185,613.9525059033185,613.9525059033185,613.9525059033185,613.9525059033185,613.9525059033185,left,None,2.773436250165105,,,,,,,,,,,,,ST03_112822,2022-11-29_13h26.22.621,Hippopolis_Learning,2022.2.2,52.75531729006574,
Camponello,stimuli/subj_files/ST03_112822_cityB.csv,./stimuli/arnedillo.png,./stimuli/street_plate2.png,./stimuli/videos/camponello_part1.mp4,MOCSÁR UTCA,stimuli/objects/063a.jpg,object,1,stimuli/objects/033a.jpg,stimuli/objects/033b.jpg,stimuli/objects/033a.jpg,stimuli/objects/053b.jpg,stimuli/objects/053a.jpg,lure,target,dist2,dist1,0,0,0,0,,,,,0,43,43,13,,,,,,,,,,,,,,620.4243109971285,,,,,,621.4425571206957,,,,,,,,617.7711002286524,617.7711002286524,617.7711002286524,617.7711002286524,617.7711002286524,617.7711002286524,left,None,2.618853010237217,,,,,,,,,,,,,ST03_112822,2022-11-29_13h26.22.621,Hippopolis_Learning,2022.2.2,52.75531729006574,
Camponello,stimuli/subj_files/ST03_112822_cityB.csv,./stimuli/arnedillo.png,./stimuli/street_plate2.png,./stimuli/videos/camponello_part1.mp4,VÖDÖR UTCA,stimuli/scenes/045a.jpg,scene,1,stimuli/scenes/111a.jpg,stimuli/scenes/111b.jpg,stimuli/scenes/108b.jpg,stimuli/scenes/111a.jpg,stimuli/scenes/108a.jpg,lure,dist2,target,dist1,0,0,0,0,,,,,0,44,44,67,,,,,,,,,,,,,,624.1218062769622,,,,,,625.1354918014258,,,,,,,,621.4425571206957,621.4425571206957,621.4425571206957,621.4425571206957,621.4425571206957,621.4425571206957,left,None,2.643053973093629,,,,,,,,,,,,,ST03_112822,2022-11-29_13h26.22.621,Hippopolis_Learning,2022.2.2,52.75531729006574,
Camponello,stimuli/subj_files/ST03_112822_cityB.csv,./stimuli/arnedillo.png,./stimuli/street_plate2.png,./stimuli/videos/camponello_part1.mp4,KRÉTA UTCA,stimuli/objects/108a.jpg,object,0,stimuli/objects/108a.jpg,stimuli/objects/108b.jpg,stimuli/objects/029a.jpg,stimuli/objects/029b.jpg,stimuli/objects/108a.jpg,lure,dist1,dist2,target,0,0,0,0,,,,,0,45,45,54,,,,,,,,,,,,,,628.0786043778062,,,,,,,,,,,,,,625.1354918014258,625.1354918014258,625.1354918014258,625.1354918014258,625.1354918014258,625.1354918014258,left,None,2.9016881324350834,,,,,,,,,,,,,ST03_112822,2022-11-29_13h26.22.621,Hippopolis_Learning,2022.2.2,52.75531729006574,
Camponello,stimuli/subj_files/ST03_112822_cityB.csv,./stimuli/arnedillo.png,./stimuli/street_plate2.png,./stimuli/videos/camponello_part1.mp4,FOGAS UTCA,stimuli/scenes/118a.jpg,scene,0,stimuli/scenes/118a.jpg,stimuli/scenes/007b.jpg,stimuli/scenes/118b.jpg,stimuli/scenes/118a.jpg,stimuli/scenes/007a.jpg,dist2,lure,target,dist1,0,0,0,0,,,,,0,46,46,35,,,,,,,,,,,,,,632.2076962888241,,,,,,,,,,,,,,629.1038338392973,629.1038338392973,629.1038338392973,629.1038338392973,629.1038338392973,629.1038338392973,left,None,3.0617808494716883,,,,,,,,,,,,,ST03_112822,2022-11-29_13h26.22.621,Hippopolis_Learning,2022.2.2,52.75531729006574,
Camponello,stimuli/subj_files/ST03_112822_cityB.csv,./stimuli/arnedillo.png,./stimuli/street_plate2.png,./stimuli/videos/camponello_part1.mp4,PAPRIKA UTCA,stimuli/scenes/079a.jpg,scene,1,stimuli/scenes/109a.jpg,stimuli/scenes/109b.jpg,stimuli/scenes/028b.jpg,stimuli/scenes/028a.jpg,stimuli/scenes/109a.jpg,lure,dist2,dist1,target,0,0,0,0,,,,,0,47,47,48,,,,,,,,,,,,,,635.9574269577861,,,,,,,,,,,,,,633.2344456389546,633.2344456389546,633.2344456389546,633.2344456389546,633.2344456389546,633.2344456389546,left,None,2.691570658236742,,,,,,,,,,,,,ST03_112822,2022-11-29_13h26.22.621,Hippopolis_Learning,2022.2.2,52.75531729006574,
Camponello,stimuli/subj_files/ST03_112822_cityB.csv,./stimuli/arnedillo.png,./stimuli/street_plate2.png,./stimuli/videos/camponello_part1.mp4,SIVATAG UTCA,stimuli/objects/119a.jpg,object,0,stimuli/objects/119a.jpg,stimuli/objects/119b.jpg,stimuli/scenes/120a.jpg,stimuli/objects/119a.jpg,stimuli/scenes/120b.jpg,lure,dist1,target,dist2,0,0,0,0,,,,,0,48,48,8,,,,,,,,,,,,,,639.5539484135807,,,,,,,,,,,,,,636.9684095270932,636.9684095270932,636.9684095270932,636.9684095270932,636.9684095270932,636.9684095270932,left,None,2.5566766131669283,,,,,,,,,,,,,ST03_112822,2022-11-29_13h26.22.621,Hippopolis_Learning,2022.2.2,52.75531729006574,
Camponello,stimuli/subj_files/ST03_112822_cityB.csv,./stimuli/arnedillo.png,./stimuli/street_plate2.png,./stimuli/videos/camponello_part1.mp4,MAJOM UTCA,stimuli/objects/083a.jpg,object,0,stimuli/objects/083a.jpg,stimuli/objects/083b.jpg,stimuli/scenes/002b.jpg,stimuli/scenes/002a.jpg,stimuli/objects/083a.jpg,lure,dist2,dist1,target,0,0,0,0,,,,,0,49,49,29,,,,,,,,,,,,,,644.0225218404084,,,,,,,,,,,,,,640.5737529899925,640.5737529899925,640.5737529899925,640.5737529899925,640.5737529899925,640.5737529899925,left,None,3.415603492408991,,,,,,,,,,,,,ST03_112822,2022-11-29_13h26.22.621,Hippopolis_Learning,2022.2.2,52.75531729006574,
Camponello,stimuli/subj_files/ST03_112822_cityB.csv,./stimuli/arnedillo.png,./stimuli/street_plate2.png,./stimuli/videos/camponello_part1.mp4,TALICSKA UTCA,stimuli/scenes/019a.jpg,scene,0,stimuli/scenes/019a.jpg,stimuli/scenes/019b.jpg,stimuli/scenes/019a.jpg,stimuli/objects/108b.jpg,stimuli/objects/108a.jpg,lure,target,dist2,dist1,0,0,0,0,,,,,0,50,50,10,,,,,,,,,,,,,,648.3816235046834,,,,,,,,,,,,,,645.0414947848767,645.0414947848767,645.0414947848767,645.0414947848767,645.0414947848767,645.0414947848767,left,None,3.3006396666169167,,,,,,,,,,,,,ST03_112822,2022-11-29_13h26.22.621,Hippopolis_Learning,2022.2.2,52.75531729006574,
Camponello,stimuli/subj_files/ST03_112822_cityB.csv,./stimuli/arnedillo.png,./stimuli/street_plate2.png,./stimuli/videos/camponello_part1.mp4,HAJÓ UTCA,stimuli/objects/046a.jpg,object,0,stimuli/objects/046a.jpg,stimuli/scenes/078a.jpg,stimuli/objects/046a.jpg,stimuli/objects/046b.jpg,stimuli/scenes/078b.jpg,dist1,target,lure,dist2,0,0,0,0,,,,,0,51,51,36,,,,,,,,,,,,,,651.7590571288019,,,,,,,,,,,,,,649.4010433647782,649.4010433647782,649.4010433647782,649.4010433647782,649.4010433647782,649.4010433647782,left,None,2.3167799673974514,,,,,,,,,,,,,ST03_112822,2022-11-29_13h26.22.621,Hippopolis_Learning,2022.2.2,52.75531729006574,
Camponello,stimuli/subj_files/ST03_112822_cityB.csv,./stimuli/arnedillo.png,./stimuli/street_plate2.png,./stimuli/videos/camponello_part1.mp4,KAKAÓ UTCA,stimuli/objects/045a.jpg,object,0,stimuli/objects/045a.jpg,stimuli/objects/045b.jpg,stimuli/scenes/055b.jpg,stimuli/objects/045a.jpg,stimuli/scenes/055a.jpg,lure,dist2,target,dist1,0,0,0,0,,,,,0,52,52,25,,,,,,,,,,,,,,664.2210991103202,,,,,,665.2306485604495,,,,,,,,652.7680884432048,652.7680884432048,652.7680884432048,652.7680884432048,652.7680884432048,652.7680884432048,right,space,2.5656538121402264,655.3733964525163,655.3733964525163,655.3733964525163,655.3733964525163,655.3733964525163,8.823705766350031,,,,,,,ST03_112822,2022-11-29_13h26.22.621,Hippopolis_Learning,2022.2.2,52.75531729006574,
Camponello,stimuli/subj_files/ST03_112822_cityB.csv,./stimuli/arnedillo.png,./stimuli/street_plate2.png,./stimuli/videos/camponello_part1.mp4,BÖGRE UTCA,stimuli/scenes/055a.jpg,scene,0,stimuli/scenes/055a.jpg,stimuli/scenes/093a.jpg,stimuli/scenes/055b.jpg,stimuli/scenes/055a.jpg,stimuli/scenes/093b.jpg,dist1,lure,target,dist2,0,0,0,0,,,,,0,53,53,27,,,,,,,,,,,,,,667.2396394442767,,,,,,,,,,,,,,665.2306485604495,665.2306485604495,665.2306485604495,665.2306485604495,665.2306485604495,665.2306485604495,left,None,1.9747450891882181,,,,,,,,,,,,,ST03_112822,2022-11-29_13h26.22.621,Hippopolis_Learning,2022.2.2,52.75531729006574,
Camponello,stimuli/subj_files/ST03_112822_cityB.csv,./stimuli/arnedillo.png,./stimuli/street_plate2.png,./stimuli/videos/camponello_part1.mp4,HEGESZTŐ UTCA,stimuli/scenes/093a.jpg,scene,0,stimuli/scenes/093a.jpg,stimuli/objects/095b.jpg,stimuli/scenes/093a.jpg,stimuli/objects/095a.jpg,stimuli/scenes/093b.jpg,dist2,target,dist1,lure,0,0,0,0,,,,,0,54,54,74,,,,,,,,,,,,,,670.7132614385337,,,,,,,,,,,,,,668.2512769922614,668.2512769922614,668.2512769922614,668.2512769922614,668.2512769922614,668.2512769922614,left,None,2.4260047879070044,,,,,,,,,,,,,ST03_112822,2022-11-29_13h26.22.621,Hippopolis_Learning,2022.2.2,52.75531729006574,
Camponello,stimuli/subj_files/ST03_112822_cityB.csv,./stimuli/arnedillo.png,./stimuli/street_plate2.png,./stimuli/videos/camponello_part1.mp4,SZAXOFON UTCA,stimuli/scenes/117a.jpg,scene,0,stimuli/scenes/117a.jpg,stimuli/objects/028a.jpg,stimuli/scenes/117a.jpg,stimuli/objects/028b.jpg,stimuli/scenes/117b.jpg,dist1,target,dist2,lure,0,0,0,0,,,,,0,55,55,4,,,,,,,,,,,,,,673.5207323096693,,,,,,,,,,,,,,671.7337990552187,671.7337990552187,671.7337990552187,671.7337990552187,671.7337990552187,671.7337990552187,left,None,1.7592332102358341,,,,,,,,,,,,,ST03_112822,2022-11-29_13h26.22.621,Hippopolis_Learning,2022.2.2,52.75531729006574,
Camponello,stimuli/subj_files/ST03_112822_cityB.csv,./stimuli/arnedillo.png,./stimuli/street_plate2.png,./stimuli/videos/camponello_part1.mp4,KALAPÁCS UTCA,stimuli/scenes/002a.jpg,scene,0,stimuli/scenes/002a.jpg,stimuli/scenes/002b.jpg,stimuli/objects/038a.jpg,stimuli/objects/038b.jpg,stimuli/scenes/002a.jpg,lure,dist1,dist2,target,0,0,0,0,,,,,0,56,56,33,,,,,,,,,,,,,,676.7464734986424,,,,,,,,,,,,,,674.5444362834096,674.5444362834096,674.5444362834096,674.5444362834096,674.5444362834096,674.5444362834096,left,None,2.1643352061510086,,,,,,,,,,,,,ST03_112822,2022-11-29_13h26.22.621,Hippopolis_Learning,2022.2.2,52.75531729006574,
Camponello,stimuli/subj_files/ST03_112822_cityB.csv,./stimuli/arnedillo.png,./stimuli/street_plate2.png,./stimuli/videos/camponello_part1.mp4,KOKTÉL UTCA,stimuli/scenes/112a.jpg,scene,0,stimuli/scenes/112a.jpg,stimuli/scenes/112b.jpg,stimuli/scenes/101b.jpg,stimuli/scenes/112a.jpg,stimuli/scenes/101a.jpg,lure,dist2,target,dist1,0,0,0,0,,,,,0,57,57,66,,,,,,,,,,,,,,680.8892098832875,,,,,,,,,,,,,,677.7661172840744,677.7661172840744,677.7661172840744,677.7661172840744,677.7661172840744,677.7661172840744,left,None,3.086402293294668,,,,,,,,,,,,,ST03_112822,2022-11-29_13h26.22.621,Hippopolis_Learning,2022.2.2,52.75531729006574,
Camponello,stimuli/subj_files/ST03_112822_cityB.csv,./stimuli/arnedillo.png,./stimuli/street_plate2.png,./stimuli/videos/camponello_part1.mp4,KOSÁR UTCA,stimuli/objects/078a.jpg,object,0,stimuli/objects/078a.jpg,stimuli/objects/078a.jpg,stimuli/objects/078b.jpg,stimuli/objects/007b.jpg,stimuli/objects/007a.jpg,target,lure,dist2,dist1,0,0,0,0,,,,,0,58,58,79,,,,,,,,,,,,,,684.6752741839737,,,,,,,,,,,,,,681.9175823740661,681.9175823740661,681.9175823740661,681.9175823740661,681.9175823740661,681.9175823740661,left,None,2.727274814620614,,,,,,,,,,,,,ST03_112822,2022-11-29_13h26.22.621,Hippopolis_Learning,2022.2.2,52.75531729006574,
Camponello,stimuli/subj_files/ST03_112822_cityB.csv,./stimuli/arnedillo.png,./stimuli/street_plate2.png,./stimuli/videos/camponello_part1.mp4,OLDAL UTCA,stimuli/objects/076a.jpg,object,0,stimuli/objects/076a.jpg,stimuli/objects/076b.jpg,stimuli/objects/008a.jpg,stimuli/objects/008b.jpg,stimuli/objects/076a.jpg,lure,dist1,dist2,target,0,0,0,0,,,,,0,59,59,69,,,,,,,,,,,,,,688.5900870449841,,,,,,,,,,,,,,685.6956211552024,685.6956211552024,685.6956211552024,685.6956211552024,685.6956211552024,685.6956211552024,left,None,2.837544308975339,,,,,,,,,,,,,ST03_112822,2022-11-29_13h26.22.621,Hippopolis_Learning,2022.2.2,52.75531729006574,
Camponello,stimuli/subj_files/ST03_112822_cityB.csv,./stimuli/arnedillo.png,./stimuli/street_plate2.png,./stimuli/videos/camponello_part1.mp4,ASZTAL UTCA,stimuli/scenes/062a.jpg,scene,2,stimuli/objects/111a.jpg,stimuli/scenes/049a.jpg,stimuli/objects/111a.jpg,stimuli/objects/111b.jpg,stimuli/scenes/049b.jpg,dist1,target,lure,dist2,0,0,0,0,,,,,0,60,60,5,,,,,,,,,,,,,,691.9260594751686,,,,,,,,,,,,,,689.608056994155,689.608056994155,689.608056994155,689.608056994155,689.608056994155,689.608056994155,left,None,2.2852420527487993,,,,,,,,,,,,,ST03_112822,2022-11-29_13h26.22.621,Hippopolis_Learning,2022.2.2,52.75531729006574,
Camponello,stimuli/subj_files/ST03_112822_cityB.csv,./stimuli/arnedillo.png,./stimuli/street_plate2.png,./stimuli/videos/camponello_part1.mp4,LAKAT UTCA,stimuli/objects/120a.jpg,object,0,stimuli/objects/120a.jpg,stimuli/scenes/064a.jpg,stimuli/scenes/064b.jpg,stimuli/objects/120b.jpg,stimuli/objects/120a.jpg,dist1,dist2,lure,target,0,0,0,0,,,,,0,61,61,59,,,,,,,,,,,,,,695.4918855335563,,,,,,,,,,,,,,692.9554511345923,692.9554511345923,692.9554511345923,692.9554511345923,692.9554511345923,692.9554511345923,left,None,2.5052905809134245,,,,,,,,,,,,,ST03_112822,2022-11-29_13h26.22.621,Hippopolis_Learning,2022.2.2,52.75531729006574,
Camponello,stimuli/subj_files/ST03_112822_cityB.csv,./stimuli/arnedillo.png,./stimuli/street_plate2.png,./stimuli/videos/camponello_part1.mp4,CSILLAG UTCA,stimuli/objects/110a.jpg,object,0,stimuli/objects/110a.jpg,stimuli/objects/110b.jpg,stimuli/objects/102b.jpg,stimuli/objects/102a.jpg,stimuli/objects/110a.jpg,lure,dist2,dist1,target,0,0,0,0,,,,,0,62,62,70,,,,,,,,,,,,,,698.5778358820826,,,,,,,,,,,,,,696.5024137217551,696.5024137217551,696.5024137217551,696.5024137217551,696.5024137217551,696.5024137217551,left,None,2.030941765755415,,,,,,,,,,,,,ST03_112822,2022-11-29_13h26.22.621,Hippopolis_Learning,2022.2.2,52.75531729006574,
Camponello,stimuli/subj_files/ST03_112822_cityB.csv,./stimuli/arnedillo.png,./stimuli/street_plate2.png,./stimuli/videos/camponello_part1.mp4,KERÉK UTCA,stimuli/scenes/023a.jpg,scene,0,stimuli/scenes/023a.jpg,stimuli/scenes/023a.jpg,stimuli/scenes/018a.jpg,stimuli/scenes/018b.jpg,stimuli/scenes/023b.jpg,target,dist1,dist2,lure,0,0,0,0,,,,,0,63,63,31,,,,,,,,,,,,,,701.9212964121252,,,,,,,,,,,,,,699.6031558439136,699.6031558439136,699.6031558439136,699.6031558439136,699.6031558439136,699.6031558439136,left,None,2.289856454357505,,,,,,,,,,,,,ST03_112822,2022-11-29_13h26.22.621,Hippopolis_Learning,2022.2.2,52.75531729006574,
Camponello,stimuli/subj_files/ST03_112822_cityB.csv,./stimuli/arnedillo.png,./stimuli/street_plate2.png,./stimuli/videos/camponello_part1.mp4,NARANCS UTCA,stimuli/objects/038a.jpg,object,0,stimuli/objects/038a.jpg,stimuli/objects/038b.jpg,stimuli/scenes/019b.jpg,stimuli/objects/038a.jpg,stimuli/scenes/019a.jpg,lure,dist2,target,dist1,0,0,0,0,,,,,0,64,64,75,,,,,,,,,,,,,,706.4393192324787,,,,,,,,,,,,,,702.9442505501211,702.9442505501211,702.9442505501211,702.9442505501211,702.9442505501211,702.9442505501211,left,None,3.4609982948750257,,,,,,,,,,,,,ST03_112822,2022-11-29_13h26.22.621,Hippopolis_Learning,2022.2.2,52.75531729006574,
Camponello,stimuli/subj_files/ST03_112822_cityB.csv,./stimuli/arnedillo.png,./stimuli/street_plate2.png,./stimuli/videos/camponello_part1.mp4,TOLMÁCS UTCA,stimuli/scenes/078a.jpg,scene,0,stimuli/scenes/078a.jpg,stimuli/scenes/078b.jpg,stimuli/objects/110a.jpg,stimuli/scenes/078a.jpg,stimuli/objects/110b.jpg,lure,dist1,target,dist2,0,0,0,0,,,,,0,65,65,52,,,,,,,,,,,,,,709.853892929852,,,,,,710.8709914386272,,,,,,,,707.4489626083523,707.4489626083523,707.4489626083523,707.4489626083523,707.4489626083523,707.4489626083523,left,None,2.3794172760099173,,,,,,,,,,,,,ST03_112822,2022-11-29_13h26.22.621,Hippopolis_Learning,2022.2.2,52.75531729006574,
Camponello,stimuli/subj_files/ST03_112822_cityB.csv,./stimuli/arnedillo.png,./stimuli/street_plate2.png,./stimuli/videos/camponello_part1.mp4,PÁLMAFA UTCA,stimuli/objects/047a.jpg,object,2,stimuli/scenes/049a.jpg,stimuli/objects/074a.jpg,stimuli/scenes/049a.jpg,stimuli/objects/074b.jpg,stimuli/scenes/049b.jpg,dist1,target,dist2,lure,0,0,0,0,,,,,0,66,66,12,,,,,,,,,,,,,,713.4754578638822,,,,,,,,,,,,,,710.8709914386272,710.8709914386272,710.8709914386272,710.8709914386272,710.8709914386272,710.8709914386272,left,None,2.5733593069016933,,,,,,,,,,,,,ST03_112822,2022-11-29_13h26.22.621,Hippopolis_Learning,2022.2.2,52.75531729006574,
Camponello,stimuli/subj_files/ST03_112822_cityB.csv,./stimuli/arnedillo.png,./stimuli/street_plate2.png,./stimuli/videos/camponello_part1.mp4,SIRÁLY UTCA,stimuli/scenes/086a.jpg,scene,2,stimuli/objects/088a.jpg,stimuli/objects/088b.jpg,stimuli/objects/088a.jpg,stimuli/objects/111b.jpg,stimuli/objects/111a.jpg,lure,target,dist2,dist1,0,0,0,0,,,,,0,67,67,34,,,,,,,,,,,,,,716.5705371834338,,,,,,717.5846360363066,,,,,,,,714.4942737501115,714.4942737501115,714.4942737501115,714.4942737501115,714.4942737501115,714.4942737501115,right,None,2.0384276900440454,,,,,,,,,,,,,ST03_112822,2022-11-29_13h26.22.621,Hippopolis_Learning,2022.2.2,52.75531729006574,
Camponello,stimuli/subj_files/ST03_112822_cityB.csv,./stimuli/arnedillo.png,./stimuli/street_plate2.png,./stimuli/videos/camponello_part1.mp4,KESZTYŰ UTCA,stimuli/objects/055a.jpg,object,0,stimuli/objects/055a.jpg,stimuli/objects/119b.jpg,stimuli/objects/055b.jpg,stimuli/objects/119a.jpg,stimuli/objects/055a.jpg,dist2,lure,dist1,target,0,0,0,0,,,,,0,68,68,43,,,,,,,,,,,,,,720.5702084489167,,,,,,721.5777991823852,,,,,,,,717.5846360363066,717.5846360363066,717.5846360363066,717.5846360363066,717.5846360363066,717.5846360363066,left,None,2.9476203564554453,,,,,,,,,,,,,ST03_112822,2022-11-29_13h26.22.621,Hippopolis_Learning,2022.2.2,52.75531729006574,
Camponello,stimuli/subj_files/ST03_112822_cityB.csv,./stimuli/arnedillo.png,./stimuli/street_plate2.png,./stimuli/videos/camponello_part1.mp4,BETON UTCA,stimuli/objects/097a.jpg,object,0,stimuli/objects/097a.jpg,stimuli/scenes/095a.jpg,stimuli/scenes/095b.jpg,stimuli/objects/097b.jpg,stimuli/objects/097a.jpg,dist1,dist2,lure,target,0,0,0,0,,,,,0,69,69,21,,,,,,,,,,,,,,724.0577171891928,,,,,,,,,,,,,,721.5777991823852,721.5777991823852,721.5777991823852,721.5777991823852,721.5777991823852,721.5777991823852,left,None,2.4431446623057127,,,,,,,,,,,,,ST03_112822,2022-11-29_13h26.22.621,Hippopolis_Learning,2022.2.2,52.75531729006574,
Camponello,stimuli/subj_files/ST03_112822_cityB.csv,./stimuli/arnedillo.png,./stimuli/street_plate2.png,./stimuli/videos/camponello_part1.mp4,MOSODA UTCA,stimuli/scenes/040a.jpg,scene,2,stimuli/objects/077a.jpg,stimuli/objects/077a.jpg,stimuli/objects/077b.jpg,stimuli/scenes/005a.jpg,stimuli/scenes/005b.jpg,target,lure,dist1,dist2,0,0,0,0,,,,,0,70,70,65,,,,,,,,,,,,,,727.1705108098686,,,,,,,,,,,,,,725.0849862284958,725.0849862284958,725.0849862284958,725.0849862284958,725.0849862284958,725.0849862284958,left,None,2.039241284132004,,,,,,,,,,,,,ST03_112822,2022-11-29_13h26.22.621,Hippopolis_Learning,2022.2.2,52.75531729006574,
Camponello,stimuli/subj_files/ST03_112822_cityB.csv,./stimuli/arnedillo.png,./stimuli/street_plate2.png,./stimuli/videos/camponello_part1.mp4,HÁRFA UTCA,stimuli/objects/019a.jpg,object,1,stimuli/objects/109a.jpg,stimuli/objects/109a.jpg,stimuli/scenes/057a.jpg,stimuli/objects/109b.jpg,stimuli/scenes/057b.jpg,target,dist1,lure,dist2,0,0,0,0,,,,,0,71,71,77,,,,,,,,,,,,,,731.6234658062458,,,,,,,,,,,,,,728.1771511081606,728.1771511081606,728.1771511081606,728.1771511081606,728.1771511081606,728.1771511081606,left,None,3.4115961734205484,,,,,,,,,,,,,ST03_112822,2022-11-29_13h26.22.621,Hippopolis_Learning,2022.2.2,52.75531729006574,
Camponello,stimuli/subj_files/ST03_112822_cityB.csv,./stimuli/arnedillo.png,./stimuli/street_plate2.png,./stimuli/videos/camponello_part1.mp4,PADLÓ UTCA,stimuli/scenes/008a.jpg,scene,1,stimuli/scenes/028a.jpg,stimuli/scenes/028a.jpg,stimuli/scenes/084b.jpg,stimuli/scenes/084a.jpg,stimuli/scenes/028b.jpg,target,dist2,dist1,lure,0,0,0,0,,,,,0,72,72,1,,,,,,,,,,,,,,735.5392997022718,,,,,,,,,,,,,,732.6518837045878,732.6518837045878,732.6518837045878,732.6518837045878,732.6518837045878,732.6518837045878,left,None,2.8568593617528677,,,,,,,,,,,,,ST03_112822,2022-11-29_13h26.22.621,Hippopolis_Learning,2022.2.2,52.75531729006574,
Camponello,stimuli/subj_files/ST03_112822_cityB.csv,./stimuli/arnedillo.png,./stimuli/street_plate2.png,./stimuli/videos/camponello_part1.mp4,SALÁTA UTCA,stimuli/scenes/044a.jpg,scene,0,stimuli/scenes/044a.jpg,stimuli/scenes/044b.jpg,stimuli/objects/045b.jpg,stimuli/objects/045a.jpg,stimuli/scenes/044a.jpg,lure,dist2,dist1,target,0,0,0,0,,,,,0,73,73,53,,,,,,,,,,,,,,739.1427261214703,,,,,,,,,,,,,,736.5604272987694,736.5604272987694,736.5604272987694,736.5604272987694,736.5604272987694,736.5604272987694,left,None,2.5480325017124414,,,,,,,,,,,,,ST03_112822,2022-11-29_13h26.22.621,Hippopolis_Learning,2022.2.2,52.75531729006574,
Camponello,stimuli/subj_files/ST03_112822_cityB.csv,./stimuli/arnedillo.png,./stimuli/street_plate2.png,./stimuli/videos/camponello_part1.mp4,KECSKE UTCA,stimuli/objects/095a.jpg,object,0,stimuli/objects/095a.jpg,stimuli/objects/079a.jpg,stimuli/objects/095b.jpg,stimuli/objects/095a.jpg,stimuli/objects/079b.jpg,dist1,lure,target,dist2,0,0,0,0,,,,,0,74,74,45,,,,,,,,,,,,,,742.8713030684739,,,,,,,,,,,,,,740.1678436193615,740.1678436193615,740.1678436193615,740.1678436193615,740.1678436193615,740.1678436193615,left,None,2.6529408674687147,,,,,,,,,,,,,ST03_112822,2022-11-29_13h26.22.621,Hippopolis_Learning,2022.2.2,52.75531729006574,
Camponello,stimuli/subj_files/ST03_112822_cityB.csv,./stimuli/arnedillo.png,./stimuli/street_plate2.png,./stimuli/videos/camponello_part1.mp4,FIÓK UTCA,stimuli/scenes/103a.jpg,scene,0,stimuli/scenes/103a.jpg,stimuli/scenes/103b.jpg,stimuli/scenes/103a.jpg,stimuli/objects/112a.jpg,stimuli/objects/112b.jpg,lure,target,dist1,dist2,0,0,0,0,,,,,0,75,75,73,,,,,,,,,,,,,,745.5935165118426,,,,,,,,,,,,,,743.8851391207427,743.8851391207427,743.8851391207427,743.8851391207427,743.8851391207427,743.8851391207427,left,None,1.6710728500038385,,,,,,,,,,,,,ST03_112822,2022-11-29_13h26.22.621,Hippopolis_Learning,2022.2.2,52.75531729006574,
Camponello,stimuli/subj_files/ST03_112822_cityB.csv,./stimuli/arnedillo.png,./stimuli/street_plate2.png,./stimuli/videos/camponello_part1.mp4,PETÁRDA UTCA,stimuli/scenes/050a.jpg,scene,0,stimuli/scenes/050a.jpg,stimuli/scenes/050a.jpg,stimuli/objects/022a.jpg,stimuli/scenes/050b.jpg,stimuli/objects/022b.jpg,target,dist1,lure,dist2,0,0,0,0,,,,,0,76,76,20,,,,,,,,,,,,,,749.6699096355587,,,,,,,,,,,,,,746.6122574470937,746.6122574470937,746.6122574470937,746.6122574470937,746.6122574470937,746.6122574470937,left,None,3.0238094571977854,,,,,,,,,,,,,ST03_112822,2022-11-29_13h26.22.621,Hippopolis_Learning,2022.2.2,52.75531729006574,
Camponello,stimuli/subj_files/ST03_112822_cityB.csv,./stimuli/arnedillo.png,./stimuli/street_plate2.png,./stimuli/videos/camponello_part1.mp4,MOTOR UTCA,stimuli/scenes/018a.jpg,scene,0,stimuli/scenes/018a.jpg,stimuli/objects/046b.jpg,stimuli/objects/046a.jpg,stimuli/scenes/018a.jpg,stimuli/scenes/018b.jpg,dist2,dist1,target,lure,0,0,0,0,,,,,0,77,77,9,,,,,,,,,,,,,,753.926253542304,,,,,,,,,,,,,,750.6931439898908,750.6931439898908,750.6931439898908,750.6931439898908,750.6931439898908,750.6931439898908,left,None,3.1994095742702484,,,,,,,,,,,,,ST03_112822,2022-11-29_13h26.22.621,Hippopolis_Learning,2022.2.2,52.75531729006574,
Camponello,stimuli/subj_files/ST03_112822_cityB.csv,./stimuli/arnedillo.png,./stimuli/street_plate2.png,./stimuli/videos/camponello_part1.mp4,HERNYÓ UTCA,stimuli/objects/057a.jpg,object,0,stimuli/objects/057a.jpg,stimuli/objects/061a.jpg,stimuli/objects/057b.jpg,stimuli/objects/057a.jpg,stimuli/objects/061b.jpg,dist1,lure,target,dist2,0,0,0,0,,,,,0,78,78,40,,,,,,,,,,,,,,757.5688425097615,,,,,,,,,,,,,,754.945932161063,754.945932161063,754.945932161063,754.945932161063,754.945932161063,754.945932161063,left,None,2.5776978470385075,,,,,,,,,,,,,ST03_112822,2022-11-29_13h26.22.621,Hippopolis_Learning,2022.2.2,52.75531729006574,
Camponello,stimuli/subj_files/ST03_112822_cityB.csv,./stimuli/arnedillo.png,./stimuli/street_plate2.png,./stimuli/videos/camponello_part1.mp4,BAGOLY UTCA,stimuli/objects/014a.jpg,object,2,stimuli/scenes/054a.jpg,stimuli/objects/105a.jpg,stimuli/scenes/054b.jpg,stimuli/scenes/054a.jpg,stimuli/objects/105b.jpg,dist1,lure,target,dist2,0,0,0,0,,,,,0,79,79,17,,,,,,,,,,,,,,760.605443296954,,,,,,,,,,,,,,758.5795072298497,758.5795072298497,758.5795072298497,758.5795072298497,758.5795072298497,758.5795072298497,left,None,1.9845063351094723,,,,,,,,,,,,,ST03_112822,2022-11-29_13h26.22.621,Hippopolis_Learning,2022.2.2,52.75531729006574,
