CityName,StimuliFile,CityImage,StreetSign,VideoFile,Cue,Image,Category,Novelty,UpdateImage,TestImage1,TestImage2,TestImage3,TestImage4,TestImage1Type,TestImage2Type,TestImage3Type,TestImage4Type,CityBlock.thisRepN,CityBlock.thisTrialN,CityBlock.thisN,CityBlock.thisIndex,LearningTrials.thisRepN,LearningTrials.thisTrialN,LearningTrials.thisN,LearningTrials.thisIndex,learning_instructions_text.started,intro_key.started,intro_key.keys,intro_key.rt,cityname_text.started,city_image.started,fx_cross.started,plate_updating.started,city_text_updating.started,street_text_updating.started,test_image1.started,test_image2.started,test_image3.started,test_image4.started,button_d.started,button_f.started,button_j.started,button_k.started,key_resp.started,clock0.started,key_resp.keys,key_resp.rt,test_resp,short_break_key.keys,fx_cross.stopped,short_break_text.started,short_break_key.started,short_break_key.rt,n_targets,n_lures,n_dist1s,n_dist2s,break_text.started,break_key_resp.started,break_key_resp.keys,break_key_resp.rt,end_text.started,end_text.stopped,participant,date,expName,psychopyVersion,frameRate,
,,,,,,,,,,,,,,,,,,,,,,,,,,23.132615925744176,23.132615925744176,space,4.5102429408580065,,,,,,,,,,,,,,,,,,,,,,,,,,,,,,,,,,,ST03_112822,2022-11-29_14h38.57.805,Hippopolis_4AFCT,2022.2.2,60.00589696899818,
Camponello,stimuli/subj_files/ST03_112822_cityB.csv,./stimuli/arnedillo.png,./stimuli/street_plate2.png,./stimuli/videos/camponello_part1.mp4,KAKAÓ UTCA,stimuli/objects/045a.jpg,object,0,stimuli/objects/045a.jpg,stimuli/objects/045b.jpg,stimuli/scenes/055b.jpg,stimuli/objects/045a.jpg,stimuli/scenes/055a.jpg,lure,dist2,target,dist1,0,0,0,0,0,0,0,25,,,,,27.74386415630579,27.74386415630579,30.704127801582217,31.762339178472757,31.762339178472757,31.762339178472757,31.762339178472757,31.762339178472757,31.762339178472757,31.762339178472757,31.762339178472757,31.762339178472757,31.762339178472757,31.762339178472757,31.762339178472757,35.16993358172476,d,3.4320553094148636,lure,None,,,,,,,,,,,,,,,ST03_112822,2022-11-29_14h38.57.805,Hippopolis_4AFCT,2022.2.2,60.00589696899818,
Camponello,stimuli/subj_files/ST03_112822_cityB.csv,./stimuli/arnedillo.png,./stimuli/street_plate2.png,./stimuli/videos/camponello_part1.mp4,PAPRIKA UTCA,stimuli/scenes/079a.jpg,scene,1,stimuli/scenes/109a.jpg,stimuli/scenes/109b.jpg,stimuli/scenes/028b.jpg,stimuli/scenes/028a.jpg,stimuli/scenes/109a.jpg,lure,dist2,dist1,target,0,0,0,0,0,1,1,48,,,,,,,35.23296649195254,36.32173331454396,36.32173331454396,36.32173331454396,36.32173331454396,36.32173331454396,36.32173331454396,36.32173331454396,36.32173331454396,36.32173331454396,36.32173331454396,36.32173331454396,36.32173331454396,39.72743710875511,d,3.75324871763587,lure,None,,,,,,,,,,,,,,,ST03_112822,2022-11-29_14h38.57.805,Hippopolis_4AFCT,2022.2.2,60.00589696899818,
Camponello,stimuli/subj_files/ST03_112822_cityB.csv,./stimuli/arnedillo.png,./stimuli/street_plate2.png,./stimuli/videos/camponello_part1.mp4,FEJSZE UTCA,stimuli/scenes/083a.jpg,scene,2,stimuli/objects/030a.jpg,stimuli/objects/088b.jpg,stimuli/objects/030b.jpg,stimuli/objects/088a.jpg,stimuli/objects/030a.jpg,dist2,lure,dist1,target,0,0,0,0,0,2,2,19,,,,,,,40.09212009422481,41.18028356321156,41.18028356321156,41.18028356321156,41.18028356321156,41.18028356321156,41.18028356321156,41.18028356321156,41.18028356321156,41.18028356321156,41.18028356321156,41.18028356321156,41.18028356321156,44.592835407704115,j,3.8863470125943422,dist1,None,,,,,,,,,,,,,,,ST03_112822,2022-11-29_14h38.57.805,Hippopolis_4AFCT,2022.2.2,60.00589696899818,
Camponello,stimuli/subj_files/ST03_112822_cityB.csv,./stimuli/arnedillo.png,./stimuli/street_plate2.png,./stimuli/videos/camponello_part1.mp4,CSILLAG UTCA,stimuli/objects/110a.jpg,object,0,stimuli/objects/110a.jpg,stimuli/objects/110b.jpg,stimuli/objects/102b.jpg,stimuli/objects/102a.jpg,stimuli/objects/110a.jpg,lure,dist2,dist1,target,0,0,0,0,0,3,3,70,,,,,,,45.089852856472135,46.1846684422344,46.1846684422344,46.1846684422344,46.1846684422344,46.1846684422344,46.1846684422344,46.1846684422344,46.1846684422344,46.1846684422344,46.1846684422344,46.1846684422344,46.1846684422344,,k,2.5293797850608826,target,None,,,,,,,,,,,,,,,ST03_112822,2022-11-29_14h38.57.805,Hippopolis_4AFCT,2022.2.2,60.00589696899818,
Camponello,stimuli/subj_files/ST03_112822_cityB.csv,./stimuli/arnedillo.png,./stimuli/street_plate2.png,./stimuli/videos/camponello_part1.mp4,BETON UTCA,stimuli/objects/097a.jpg,object,0,stimuli/objects/097a.jpg,stimuli/scenes/095a.jpg,stimuli/scenes/095b.jpg,stimuli/objects/097b.jpg,stimuli/objects/097a.jpg,dist1,dist2,lure,target,0,0,0,0,0,4,4,21,,,,,,,48.73610703460872,49.81182371638715,49.81182371638715,49.81182371638715,49.81182371638715,49.81182371638715,49.81182371638715,49.81182371638715,49.81182371638715,49.81182371638715,49.81182371638715,49.81182371638715,49.81182371638715,,k,2.327122377231717,target,None,,,,,,,,,,,,,,,ST03_112822,2022-11-29_14h38.57.805,Hippopolis_4AFCT,2022.2.2,60.00589696899818,
Camponello,stimuli/subj_files/ST03_112822_cityB.csv,./stimuli/arnedillo.png,./stimuli/street_plate2.png,./stimuli/videos/camponello_part1.mp4,FIÓK UTCA,stimuli/scenes/103a.jpg,scene,0,stimuli/scenes/103a.jpg,stimuli/scenes/103b.jpg,stimuli/scenes/103a.jpg,stimuli/objects/112a.jpg,stimuli/objects/112b.jpg,lure,target,dist1,dist2,0,0,0,0,0,5,5,73,,,,,,,52.16640645824373,53.22309919074178,53.22309919074178,53.22309919074178,53.22309919074178,53.22309919074178,53.22309919074178,53.22309919074178,53.22309919074178,53.22309919074178,53.22309919074178,53.22309919074178,53.22309919074178,,f,2.163615118712187,target,None,53.22309919074178,,,,,,,,,,,,,,ST03_112822,2022-11-29_14h38.57.805,Hippopolis_4AFCT,2022.2.2,60.00589696899818,
Camponello,stimuli/subj_files/ST03_112822_cityB.csv,./stimuli/arnedillo.png,./stimuli/street_plate2.png,./stimuli/videos/camponello_part1.mp4,KESZTYŰ UTCA,stimuli/objects/055a.jpg,object,0,stimuli/objects/055a.jpg,stimuli/objects/119b.jpg,stimuli/objects/055b.jpg,stimuli/objects/119a.jpg,stimuli/objects/055a.jpg,dist2,lure,dist1,target,0,0,0,0,0,6,6,43,,,,,,,55.42210471816361,56.49096744135022,56.49096744135022,56.49096744135022,56.49096744135022,56.49096744135022,56.49096744135022,56.49096744135022,56.49096744135022,56.49096744135022,56.49096744135022,56.49096744135022,56.49096744135022,,k,2.862912990152836,target,None,,,,,,,,,,,,,,,ST03_112822,2022-11-29_14h38.57.805,Hippopolis_4AFCT,2022.2.2,60.00589696899818,
Camponello,stimuli/subj_files/ST03_112822_cityB.csv,./stimuli/arnedillo.png,./stimuli/street_plate2.png,./stimuli/videos/camponello_part1.mp4,PULÓVER UTCA,stimuli/objects/007a.jpg,object,0,stimuli/objects/007a.jpg,stimuli/scenes/103b.jpg,stimuli/objects/007b.jpg,stimuli/objects/007a.jpg,stimuli/scenes/103a.jpg,dist2,lure,target,dist1,0,0,0,0,0,7,7,39,,,,,,,59.37841018475592,60.44116972014308,60.44116972014308,60.44116972014308,60.44116972014308,60.44116972014308,60.44116972014308,60.44116972014308,60.44116972014308,60.44116972014308,60.44116972014308,60.44116972014308,60.44116972014308,,j,2.097479609772563,target,None,,,,,,,,,,,,,,,ST03_112822,2022-11-29_14h38.57.805,Hippopolis_4AFCT,2022.2.2,60.00589696899818,
Camponello,stimuli/subj_files/ST03_112822_cityB.csv,./stimuli/arnedillo.png,./stimuli/street_plate2.png,./stimuli/videos/camponello_part1.mp4,SZÖCSKE UTCA,stimuli/objects/008a.jpg,object,0,stimuli/objects/008a.jpg,stimuli/objects/008a.jpg,stimuli/scenes/117a.jpg,stimuli/scenes/117b.jpg,stimuli/objects/008b.jpg,target,dist1,dist2,lure,0,0,0,0,0,8,8,56,,,,,,,62.57157905399799,63.6299260314554,63.6299260314554,63.6299260314554,63.6299260314554,63.6299260314554,63.6299260314554,63.6299260314554,63.6299260314554,63.6299260314554,63.6299260314554,63.6299260314554,63.6299260314554,,k,2.572424314916134,lure,None,,,,,,,,,,,,,,,ST03_112822,2022-11-29_14h38.57.805,Hippopolis_4AFCT,2022.2.2,60.00589696899818,
Camponello,stimuli/subj_files/ST03_112822_cityB.csv,./stimuli/arnedillo.png,./stimuli/street_plate2.png,./stimuli/videos/camponello_part1.mp4,OROSZLÁN UTCA,stimuli/objects/102a.jpg,object,0,stimuli/objects/102a.jpg,stimuli/objects/102b.jpg,stimuli/scenes/012b.jpg,stimuli/scenes/012a.jpg,stimuli/objects/102a.jpg,lure,dist2,dist1,target,0,0,0,0,0,9,9,76,,,,,,,66.2387375254184,67.30746340751648,67.30746340751648,67.30746340751648,67.30746340751648,67.30746340751648,67.30746340751648,67.30746340751648,67.30746340751648,67.30746340751648,67.30746340751648,67.30746340751648,67.30746340751648,,k,2.2545910198241472,target,None,,,,,,,,,,,,,,,ST03_112822,2022-11-29_14h38.57.805,Hippopolis_4AFCT,2022.2.2,60.00589696899818,
Camponello,stimuli/subj_files/ST03_112822_cityB.csv,./stimuli/arnedillo.png,./stimuli/street_plate2.png,./stimuli/videos/camponello_part1.mp4,TALICSKA UTCA,stimuli/scenes/019a.jpg,scene,0,stimuli/scenes/019a.jpg,stimuli/scenes/019b.jpg,stimuli/scenes/019a.jpg,stimuli/objects/108b.jpg,stimuli/objects/108a.jpg,lure,target,dist2,dist1,0,0,0,0,0,10,10,10,,,,,,,69.5900466144085,70.64156202413142,70.64156202413142,70.64156202413142,70.64156202413142,70.64156202413142,70.64156202413142,70.64156202413142,70.64156202413142,70.64156202413142,70.64156202413142,70.64156202413142,70.64156202413142,,f,2.936242388561368,target,None,,,,,,,,,,,,,,,ST03_112822,2022-11-29_14h38.57.805,Hippopolis_4AFCT,2022.2.2,60.00589696899818,
Camponello,stimuli/subj_files/ST03_112822_cityB.csv,./stimuli/arnedillo.png,./stimuli/street_plate2.png,./stimuli/videos/camponello_part1.mp4,KERÉK UTCA,stimuli/scenes/023a.jpg,scene,0,stimuli/scenes/023a.jpg,stimuli/scenes/023a.jpg,stimuli/scenes/018a.jpg,stimuli/scenes/018b.jpg,stimuli/scenes/023b.jpg,target,dist1,dist2,lure,0,0,0,0,0,11,11,31,,,,,,,73.60370725952089,74.65190640836954,74.65190640836954,74.65190640836954,74.65190640836954,74.65190640836954,74.65190640836954,74.65190640836954,74.65190640836954,74.65190640836954,74.65190640836954,74.65190640836954,74.65190640836954,,d,3.3104564771056175,target,None,,,,,,,,,,,,,,,ST03_112822,2022-11-29_14h38.57.805,Hippopolis_4AFCT,2022.2.2,60.00589696899818,
Camponello,stimuli/subj_files/ST03_112822_cityB.csv,./stimuli/arnedillo.png,./stimuli/street_plate2.png,./stimuli/videos/camponello_part1.mp4,MOTOR UTCA,stimuli/scenes/018a.jpg,scene,0,stimuli/scenes/018a.jpg,stimuli/objects/046b.jpg,stimuli/objects/046a.jpg,stimuli/scenes/018a.jpg,stimuli/scenes/018b.jpg,dist2,dist1,target,lure,0,0,0,0,0,12,12,9,,,,,,,77.99692539125681,79.06558813899755,79.06558813899755,79.06558813899755,79.06558813899755,79.06558813899755,79.06558813899755,79.06558813899755,79.06558813899755,79.06558813899755,79.06558813899755,79.06558813899755,79.06558813899755,,j,2.8808515295386314,target,None,,,,,,,,,,,,,,,ST03_112822,2022-11-29_14h38.57.805,Hippopolis_4AFCT,2022.2.2,60.00589696899818,
Camponello,stimuli/subj_files/ST03_112822_cityB.csv,./stimuli/arnedillo.png,./stimuli/street_plate2.png,./stimuli/videos/camponello_part1.mp4,NARANCS UTCA,stimuli/objects/038a.jpg,object,0,stimuli/objects/038a.jpg,stimuli/objects/038b.jpg,stimuli/scenes/019b.jpg,stimuli/objects/038a.jpg,stimuli/scenes/019a.jpg,lure,dist2,target,dist1,0,0,0,0,0,13,13,75,,,,,,,81.97448130324483,83.05304618366063,83.05304618366063,83.05304618366063,83.05304618366063,83.05304618366063,83.05304618366063,83.05304618366063,83.05304618366063,83.05304618366063,83.05304618366063,83.05304618366063,83.05304618366063,,j,2.01280034519732,target,None,,,,,,,,,,,,,,,ST03_112822,2022-11-29_14h38.57.805,Hippopolis_4AFCT,2022.2.2,60.00589696899818,
Camponello,stimuli/subj_files/ST03_112822_cityB.csv,./stimuli/arnedillo.png,./stimuli/street_plate2.png,./stimuli/videos/camponello_part1.mp4,AKÁC UTCA,stimuli/scenes/058a.jpg,scene,0,stimuli/scenes/058a.jpg,stimuli/scenes/058b.jpg,stimuli/objects/104a.jpg,stimuli/objects/104b.jpg,stimuli/scenes/058a.jpg,lure,dist1,dist2,target,0,0,0,0,0,14,14,16,,,,,,,85.08794358931482,86.1889214552939,86.1889214552939,86.1889214552939,86.1889214552939,86.1889214552939,86.1889214552939,86.1889214552939,86.1889214552939,86.1889214552939,86.1889214552939,86.1889214552939,86.1889214552939,,k,2.108776606619358,target,None,,,,,,,,,,,,,,,ST03_112822,2022-11-29_14h38.57.805,Hippopolis_4AFCT,2022.2.2,60.00589696899818,
Camponello,stimuli/subj_files/ST03_112822_cityB.csv,./stimuli/arnedillo.png,./stimuli/street_plate2.png,./stimuli/videos/camponello_part1.mp4,KORONA UTCA,stimuli/scenes/120a.jpg,scene,0,stimuli/scenes/120a.jpg,stimuli/scenes/120a.jpg,stimuli/scenes/120b.jpg,stimuli/scenes/063b.jpg,stimuli/scenes/063a.jpg,target,lure,dist2,dist1,0,0,0,0,0,15,15,3,,,,,,,88.33743944764137,89.3970758561045,89.3970758561045,89.3970758561045,89.3970758561045,89.3970758561045,89.3970758561045,89.3970758561045,89.3970758561045,89.3970758561045,89.3970758561045,89.3970758561045,89.3970758561045,,d,3.028466671705246,target,None,,,,,,,,,,,,,,,ST03_112822,2022-11-29_14h38.57.805,Hippopolis_4AFCT,2022.2.2,60.00589696899818,
Camponello,stimuli/subj_files/ST03_112822_cityB.csv,./stimuli/arnedillo.png,./stimuli/street_plate2.png,./stimuli/videos/camponello_part1.mp4,KANÁL UTCA,stimuli/scenes/101a.jpg,scene,0,stimuli/scenes/101a.jpg,stimuli/objects/040a.jpg,stimuli/scenes/101a.jpg,stimuli/scenes/101b.jpg,stimuli/objects/040b.jpg,dist1,target,lure,dist2,0,0,0,0,0,16,16,38,,,,,,,92.46563006192446,93.52799088694155,93.52799088694155,93.52799088694155,93.52799088694155,93.52799088694155,93.52799088694155,93.52799088694155,93.52799088694155,93.52799088694155,93.52799088694155,93.52799088694155,93.52799088694155,,f,2.433480964973569,target,None,,,,,,,,,,,,,,,ST03_112822,2022-11-29_14h38.57.805,Hippopolis_4AFCT,2022.2.2,60.00589696899818,
Camponello,stimuli/subj_files/ST03_112822_cityB.csv,./stimuli/arnedillo.png,./stimuli/street_plate2.png,./stimuli/videos/camponello_part1.mp4,ZÁSZLÓ UTCA,stimuli/objects/062a.jpg,object,0,stimuli/objects/062a.jpg,stimuli/scenes/044b.jpg,stimuli/objects/062a.jpg,stimuli/scenes/044a.jpg,stimuli/objects/062b.jpg,dist2,target,dist1,lure,0,0,0,0,0,17,17,64,,,,,,,95.99135619960725,97.04462195374072,97.04462195374072,97.04462195374072,97.04462195374072,97.04462195374072,97.04462195374072,97.04462195374072,97.04462195374072,97.04462195374072,97.04462195374072,97.04462195374072,97.04462195374072,,f,2.325114207342267,target,None,,,,,,,,,,,,,,,ST03_112822,2022-11-29_14h38.57.805,Hippopolis_4AFCT,2022.2.2,60.00589696899818,
Camponello,stimuli/subj_files/ST03_112822_cityB.csv,./stimuli/arnedillo.png,./stimuli/street_plate2.png,./stimuli/videos/camponello_part1.mp4,SUGÁR UTCA,stimuli/scenes/036a.jpg,scene,0,stimuli/scenes/036a.jpg,stimuli/objects/097a.jpg,stimuli/scenes/036a.jpg,stimuli/scenes/036b.jpg,stimuli/objects/097b.jpg,dist1,target,lure,dist2,0,0,0,0,0,18,18,51,,,,,,,99.38931127078831,100.44439143501222,100.44439143501222,100.44439143501222,100.44439143501222,100.44439143501222,100.44439143501222,100.44439143501222,100.44439143501222,100.44439143501222,100.44439143501222,100.44439143501222,100.44439143501222,,f,1.9815333168953657,target,None,,,,,,,,,,,,,,,ST03_112822,2022-11-29_14h38.57.805,Hippopolis_4AFCT,2022.2.2,60.00589696899818,
Camponello,stimuli/subj_files/ST03_112822_cityB.csv,./stimuli/arnedillo.png,./stimuli/street_plate2.png,./stimuli/videos/camponello_part1.mp4,CSAVAR UTCA,stimuli/scenes/075a.jpg,scene,1,stimuli/scenes/084a.jpg,stimuli/scenes/109b.jpg,stimuli/scenes/109a.jpg,stimuli/scenes/084b.jpg,stimuli/scenes/084a.jpg,dist2,dist1,lure,target,0,0,0,0,0,19,19,15,,,,,,,102.45460053160787,103.49932822585106,103.49932822585106,103.49932822585106,103.49932822585106,103.49932822585106,103.49932822585106,103.49932822585106,103.49932822585106,103.49932822585106,103.49932822585106,103.49932822585106,103.49932822585106,,k,2.606063075363636,target,None,,,,,,,,,,,,,,,ST03_112822,2022-11-29_14h38.57.805,Hippopolis_4AFCT,2022.2.2,60.00589696899818,
Camponello,stimuli/subj_files/ST03_112822_cityB.csv,./stimuli/arnedillo.png,./stimuli/street_plate2.png,./stimuli/videos/camponello_part1.mp4,FÉSŰ UTCA,stimuli/scenes/021a.jpg,scene,0,stimuli/scenes/021a.jpg,stimuli/scenes/021b.jpg,stimuli/scenes/076a.jpg,stimuli/scenes/076b.jpg,stimuli/scenes/021a.jpg,lure,dist1,dist2,target,0,0,0,0,0,20,20,46,,,,,,,106.14243315346539,107.2236947696656,107.2236947696656,107.2236947696656,107.2236947696656,107.2236947696656,107.2236947696656,107.2236947696656,107.2236947696656,107.2236947696656,107.2236947696656,107.2236947696656,107.2236947696656,,k,3.249787215143442,target,None,,,,,,,,,,,,,,,ST03_112822,2022-11-29_14h38.57.805,Hippopolis_4AFCT,2022.2.2,60.00589696899818,
Camponello,stimuli/subj_files/ST03_112822_cityB.csv,./stimuli/arnedillo.png,./stimuli/street_plate2.png,./stimuli/videos/camponello_part1.mp4,LAKAT UTCA,stimuli/objects/120a.jpg,object,0,stimuli/objects/120a.jpg,stimuli/scenes/064a.jpg,stimuli/scenes/064b.jpg,stimuli/objects/120b.jpg,stimuli/objects/120a.jpg,dist1,dist2,lure,target,0,0,0,0,0,21,21,59,,,,,,,110.51872445084155,111.58450447954237,111.58450447954237,111.58450447954237,111.58450447954237,111.58450447954237,111.58450447954237,111.58450447954237,111.58450447954237,111.58450447954237,111.58450447954237,111.58450447954237,111.58450447954237,,k,2.744934272021055,target,None,,,,,,,,,,,,,,,ST03_112822,2022-11-29_14h38.57.805,Hippopolis_4AFCT,2022.2.2,60.00589696899818,
Camponello,stimuli/subj_files/ST03_112822_cityB.csv,./stimuli/arnedillo.png,./stimuli/street_plate2.png,./stimuli/videos/camponello_part1.mp4,PETÁRDA UTCA,stimuli/scenes/050a.jpg,scene,0,stimuli/scenes/050a.jpg,stimuli/scenes/050a.jpg,stimuli/objects/022a.jpg,stimuli/scenes/050b.jpg,stimuli/objects/022b.jpg,target,dist1,lure,dist2,0,0,0,0,0,22,22,20,,,,,,,114.36087502352893,115.41103755496442,115.41103755496442,115.41103755496442,115.41103755496442,115.41103755496442,115.41103755496442,115.41103755496442,115.41103755496442,115.41103755496442,115.41103755496442,115.41103755496442,115.41103755496442,,d,2.391001533716917,target,None,,,,,,,,,,,,,,,ST03_112822,2022-11-29_14h38.57.805,Hippopolis_4AFCT,2022.2.2,60.00589696899818,
Camponello,stimuli/subj_files/ST03_112822_cityB.csv,./stimuli/arnedillo.png,./stimuli/street_plate2.png,./stimuli/videos/camponello_part1.mp4,LÉTRA UTCA,stimuli/objects/012a.jpg,object,1,stimuli/objects/049a.jpg,stimuli/objects/049a.jpg,stimuli/objects/049b.jpg,stimuli/objects/109b.jpg,stimuli/objects/109a.jpg,target,lure,dist2,dist1,0,0,0,0,0,23,23,30,,,,,,,117.83739808388054,118.92236471921206,118.92236471921206,118.92236471921206,118.92236471921206,118.92236471921206,118.92236471921206,118.92236471921206,118.92236471921206,118.92236471921206,118.92236471921206,118.92236471921206,118.92236471921206,122.346425043419,j,4.719633279368281,dist2,None,,,,,,,,,,,,,,,ST03_112822,2022-11-29_14h38.57.805,Hippopolis_4AFCT,2022.2.2,60.00589696899818,
Camponello,stimuli/subj_files/ST03_112822_cityB.csv,./stimuli/arnedillo.png,./stimuli/street_plate2.png,./stimuli/videos/camponello_part1.mp4,MAJOM UTCA,stimuli/objects/083a.jpg,object,0,stimuli/objects/083a.jpg,stimuli/objects/083b.jpg,stimuli/scenes/002b.jpg,stimuli/scenes/002a.jpg,stimuli/objects/083a.jpg,lure,dist2,dist1,target,0,0,0,0,0,24,24,29,,,,,,,123.66699923574924,124.75639833509922,124.75639833509922,124.75639833509922,124.75639833509922,124.75639833509922,124.75639833509922,124.75639833509922,124.75639833509922,124.75639833509922,124.75639833509922,124.75639833509922,124.75639833509922,,k,2.485274413600564,target,None,,,,,,,,,,,,,,,ST03_112822,2022-11-29_14h38.57.805,Hippopolis_4AFCT,2022.2.2,60.00589696899818,
Camponello,stimuli/subj_files/ST03_112822_cityB.csv,./stimuli/arnedillo.png,./stimuli/street_plate2.png,./stimuli/videos/camponello_part1.mp4,HERNYÓ UTCA,stimuli/objects/057a.jpg,object,0,stimuli/objects/057a.jpg,stimuli/objects/061a.jpg,stimuli/objects/057b.jpg,stimuli/objects/057a.jpg,stimuli/objects/061b.jpg,dist1,lure,target,dist2,0,0,0,0,0,25,25,40,,,,,,,127.28176215104759,128.3443668037653,128.3443668037653,128.3443668037653,128.3443668037653,128.3443668037653,128.3443668037653,128.3443668037653,128.3443668037653,128.3443668037653,128.3443668037653,128.3443668037653,128.3443668037653,131.7800960894674,j,3.824847364798188,target,None,,,,,,,,,,,,,,,ST03_112822,2022-11-29_14h38.57.805,Hippopolis_4AFCT,2022.2.2,60.00589696899818,
Camponello,stimuli/subj_files/ST03_112822_cityB.csv,./stimuli/arnedillo.png,./stimuli/street_plate2.png,./stimuli/videos/camponello_part1.mp4,KUTYA UTCA,stimuli/scenes/089a.jpg,scene,1,stimuli/scenes/108a.jpg,stimuli/scenes/108a.jpg,stimuli/objects/027a.jpg,stimuli/objects/027b.jpg,stimuli/scenes/108b.jpg,target,dist1,dist2,lure,0,0,0,0,0,26,26,0,,,,,,,132.1903188060969,133.2672592997551,133.2672592997551,133.2672592997551,133.2672592997551,133.2672592997551,133.2672592997551,133.2672592997551,133.2672592997551,133.2672592997551,133.2672592997551,133.2672592997551,133.2672592997551,,d,3.2698066979646683,target,None,,,,,,,,,,,,,,,ST03_112822,2022-11-29_14h38.57.805,Hippopolis_4AFCT,2022.2.2,60.00589696899818,
Camponello,stimuli/subj_files/ST03_112822_cityB.csv,./stimuli/arnedillo.png,./stimuli/street_plate2.png,./stimuli/videos/camponello_part1.mp4,FOGAS UTCA,stimuli/scenes/118a.jpg,scene,0,stimuli/scenes/118a.jpg,stimuli/scenes/007b.jpg,stimuli/scenes/118b.jpg,stimuli/scenes/118a.jpg,stimuli/scenes/007a.jpg,dist2,lure,target,dist1,0,0,0,0,0,27,27,35,,,,,,,136.5590815730393,137.6369976941496,137.6369976941496,137.6369976941496,137.6369976941496,137.6369976941496,137.6369976941496,137.6369976941496,137.6369976941496,137.6369976941496,137.6369976941496,137.6369976941496,137.6369976941496,,j,3.0445845760405064,target,None,,,,,,,,,,,,,,,ST03_112822,2022-11-29_14h38.57.805,Hippopolis_4AFCT,2022.2.2,60.00589696899818,
Camponello,stimuli/subj_files/ST03_112822_cityB.csv,./stimuli/arnedillo.png,./stimuli/street_plate2.png,./stimuli/videos/camponello_part1.mp4,REPÜLŐ UTCA,stimuli/objects/022a.jpg,object,0,stimuli/objects/022a.jpg,stimuli/objects/022a.jpg,stimuli/scenes/050a.jpg,stimuli/objects/022b.jpg,stimuli/scenes/050b.jpg,target,dist1,lure,dist2,0,0,0,0,0,28,28,61,,,,,,,140.71723827533424,141.7717250417918,141.7717250417918,141.7717250417918,141.7717250417918,141.7717250417918,141.7717250417918,141.7717250417918,141.7717250417918,141.7717250417918,141.7717250417918,141.7717250417918,141.7717250417918,,d,2.7013134490698576,target,None,,,,,,,,,,,,,,,ST03_112822,2022-11-29_14h38.57.805,Hippopolis_4AFCT,2022.2.2,60.00589696899818,
Camponello,stimuli/subj_files/ST03_112822_cityB.csv,./stimuli/arnedillo.png,./stimuli/street_plate2.png,./stimuli/videos/camponello_part1.mp4,KÍGYÓ UTCA,stimuli/scenes/076a.jpg,scene,0,stimuli/scenes/076a.jpg,stimuli/scenes/076b.jpg,stimuli/objects/057a.jpg,stimuli/scenes/076a.jpg,stimuli/objects/057b.jpg,lure,dist1,target,dist2,0,0,0,0,0,29,29,6,,,,,,,144.51370387524366,145.5681884624064,145.5681884624064,145.5681884624064,145.5681884624064,145.5681884624064,145.5681884624064,145.5681884624064,145.5681884624064,145.5681884624064,145.5681884624064,145.5681884624064,145.5681884624064,,j,2.7288838550448418,target,None,,,,,,,,,,,,,,,ST03_112822,2022-11-29_14h38.57.805,Hippopolis_4AFCT,2022.2.2,60.00589696899818,
Camponello,stimuli/subj_files/ST03_112822_cityB.csv,./stimuli/arnedillo.png,./stimuli/street_plate2.png,./stimuli/videos/camponello_part1.mp4,BOLYGÓ UTCA,stimuli/objects/029a.jpg,object,0,stimuli/objects/029a.jpg,stimuli/scenes/058a.jpg,stimuli/scenes/058b.jpg,stimuli/objects/029a.jpg,stimuli/objects/029b.jpg,dist1,dist2,target,lure,0,0,0,0,0,30,30,44,,,,,,,148.32754882238805,149.39005737565458,149.39005737565458,149.39005737565458,149.39005737565458,149.39005737565458,149.39005737565458,149.39005737565458,149.39005737565458,149.39005737565458,149.39005737565458,149.39005737565458,149.39005737565458,,j,2.2990018017590046,target,None,,,,,,,,,,,,,,,ST03_112822,2022-11-29_14h38.57.805,Hippopolis_4AFCT,2022.2.2,60.00589696899818,
Camponello,stimuli/subj_files/ST03_112822_cityB.csv,./stimuli/arnedillo.png,./stimuli/street_plate2.png,./stimuli/videos/camponello_part1.mp4,SIVATAG UTCA,stimuli/objects/119a.jpg,object,0,stimuli/objects/119a.jpg,stimuli/objects/119b.jpg,stimuli/scenes/120a.jpg,stimuli/objects/119a.jpg,stimuli/scenes/120b.jpg,lure,dist1,target,dist2,0,0,0,0,0,31,31,8,,,,,,,151.71891833283007,152.77856282703578,152.77856282703578,152.77856282703578,152.77856282703578,152.77856282703578,152.77856282703578,152.77856282703578,152.77856282703578,152.77856282703578,152.77856282703578,152.77856282703578,152.77856282703578,,j,3.2307582907378674,target,None,,,,,,,,,,,,,,,ST03_112822,2022-11-29_14h38.57.805,Hippopolis_4AFCT,2022.2.2,60.00589696899818,
Camponello,stimuli/subj_files/ST03_112822_cityB.csv,./stimuli/arnedillo.png,./stimuli/street_plate2.png,./stimuli/videos/camponello_part1.mp4,MOSODA UTCA,stimuli/scenes/040a.jpg,scene,2,stimuli/objects/077a.jpg,stimuli/objects/077a.jpg,stimuli/objects/077b.jpg,stimuli/scenes/005a.jpg,stimuli/scenes/005b.jpg,target,lure,dist1,dist2,0,0,0,0,0,32,32,65,,,,,,,156.03328701481223,157.14921091496944,157.14921091496944,157.14921091496944,157.14921091496944,157.14921091496944,157.14921091496944,157.14921091496944,157.14921091496944,157.14921091496944,157.14921091496944,157.14921091496944,157.14921091496944,,d,2.4442019779235125,target,None,,,,,,,,,,,,,,,ST03_112822,2022-11-29_14h38.57.805,Hippopolis_4AFCT,2022.2.2,60.00589696899818,
Camponello,stimuli/subj_files/ST03_112822_cityB.csv,./stimuli/arnedillo.png,./stimuli/street_plate2.png,./stimuli/videos/camponello_part1.mp4,MÁLNA UTCA,stimuli/objects/010a.jpg,object,1,stimuli/objects/053a.jpg,stimuli/objects/053b.jpg,stimuli/objects/053a.jpg,stimuli/objects/080b.jpg,stimuli/objects/080a.jpg,lure,target,dist2,dist1,0,0,0,0,0,33,33,62,,,,,,,159.62282762117684,160.706774154678,160.706774154678,160.706774154678,160.706774154678,160.706774154678,160.706774154678,160.706774154678,160.706774154678,160.706774154678,160.706774154678,160.706774154678,160.706774154678,,f,2.7903614193201065,target,None,,,,,,,,,,,,,,,ST03_112822,2022-11-29_14h38.57.805,Hippopolis_4AFCT,2022.2.2,60.00589696899818,
Camponello,stimuli/subj_files/ST03_112822_cityB.csv,./stimuli/arnedillo.png,./stimuli/street_plate2.png,./stimuli/videos/camponello_part1.mp4,GYŰRŰ UTCA,stimuli/objects/040a.jpg,object,0,stimuli/objects/040a.jpg,stimuli/objects/040a.jpg,stimuli/objects/062b.jpg,stimuli/objects/040b.jpg,stimuli/objects/062a.jpg,target,dist2,lure,dist1,0,0,0,0,0,34,34,49,,,,,,,163.51720083132386,164.57711123675108,164.57711123675108,164.57711123675108,164.57711123675108,164.57711123675108,164.57711123675108,164.57711123675108,164.57711123675108,164.57711123675108,164.57711123675108,164.57711123675108,164.57711123675108,168.01318045146763,j,3.463806265965104,lure,None,,,,,,,,,,,,,,,ST03_112822,2022-11-29_14h38.57.805,Hippopolis_4AFCT,2022.2.2,60.00589696899818,
Camponello,stimuli/subj_files/ST03_112822_cityB.csv,./stimuli/arnedillo.png,./stimuli/street_plate2.png,./stimuli/videos/camponello_part1.mp4,VASALÓ UTCA,stimuli/objects/104a.jpg,object,0,stimuli/objects/104a.jpg,stimuli/objects/055b.jpg,stimuli/objects/055a.jpg,stimuli/objects/104a.jpg,stimuli/objects/104b.jpg,dist2,dist1,target,lure,0,0,0,0,0,35,35,60,,,,,,,168.0689252372831,169.12349939532578,169.12349939532578,169.12349939532578,169.12349939532578,169.12349939532578,169.12349939532578,169.12349939532578,169.12349939532578,169.12349939532578,169.12349939532578,169.12349939532578,169.12349939532578,,j,2.9815756157040596,target,None,,,,,,,,,,,,,,,ST03_112822,2022-11-29_14h38.57.805,Hippopolis_4AFCT,2022.2.2,60.00589696899818,
Camponello,stimuli/subj_files/ST03_112822_cityB.csv,./stimuli/arnedillo.png,./stimuli/street_plate2.png,./stimuli/videos/camponello_part1.mp4,HÁRFA UTCA,stimuli/objects/019a.jpg,object,1,stimuli/objects/109a.jpg,stimuli/objects/109a.jpg,stimuli/scenes/057a.jpg,stimuli/objects/109b.jpg,stimuli/scenes/057b.jpg,target,dist1,lure,dist2,0,0,0,0,0,36,36,77,,,,,,,172.13533909618855,173.2105056103319,173.2105056103319,173.2105056103319,173.2105056103319,173.2105056103319,173.2105056103319,173.2105056103319,173.2105056103319,173.2105056103319,173.2105056103319,173.2105056103319,173.2105056103319,176.6335949730128,d,3.5023754108697176,target,None,,,,,,,,,,,,,,,ST03_112822,2022-11-29_14h38.57.805,Hippopolis_4AFCT,2022.2.2,60.00589696899818,
Camponello,stimuli/subj_files/ST03_112822_cityB.csv,./stimuli/arnedillo.png,./stimuli/street_plate2.png,./stimuli/videos/camponello_part1.mp4,SZAXOFON UTCA,stimuli/scenes/117a.jpg,scene,0,stimuli/scenes/117a.jpg,stimuli/objects/028a.jpg,stimuli/scenes/117a.jpg,stimuli/objects/028b.jpg,stimuli/scenes/117b.jpg,dist1,target,dist2,lure,0,0,0,0,0,37,37,4,,,,,,,176.7527222391218,177.8259101305157,177.8259101305157,177.8259101305157,177.8259101305157,177.8259101305157,177.8259101305157,177.8259101305157,177.8259101305157,177.8259101305157,177.8259101305157,177.8259101305157,177.8259101305157,181.26331356167793,j,3.3988140150904655,dist2,None,,,,,,,,,,,,,,,ST03_112822,2022-11-29_14h38.57.805,Hippopolis_4AFCT,2022.2.2,60.00589696899818,
Camponello,stimuli/subj_files/ST03_112822_cityB.csv,./stimuli/arnedillo.png,./stimuli/street_plate2.png,./stimuli/videos/camponello_part1.mp4,TOBOZ UTCA,stimuli/scenes/104a.jpg,scene,0,stimuli/scenes/104a.jpg,stimuli/scenes/104b.jpg,stimuli/scenes/061b.jpg,stimuli/scenes/104a.jpg,stimuli/scenes/061a.jpg,lure,dist2,target,dist1,0,0,0,0,0,38,38,72,,,,,,,181.26331356167793,182.30610337667167,182.30610337667167,182.30610337667167,182.30610337667167,182.30610337667167,182.30610337667167,182.30610337667167,182.30610337667167,182.30610337667167,182.30610337667167,182.30610337667167,182.30610337667167,185.75548086687922,j,4.4550256207585335,target,None,,,,,,,,,,,,,,,ST03_112822,2022-11-29_14h38.57.805,Hippopolis_4AFCT,2022.2.2,60.00589696899818,
Camponello,stimuli/subj_files/ST03_112822_cityB.csv,./stimuli/arnedillo.png,./stimuli/street_plate2.png,./stimuli/videos/camponello_part1.mp4,TÉRKÉP UTCA,stimuli/scenes/064a.jpg,scene,0,stimuli/scenes/064a.jpg,stimuli/scenes/064b.jpg,stimuli/scenes/023b.jpg,stimuli/scenes/064a.jpg,stimuli/scenes/023a.jpg,lure,dist2,target,dist1,0,0,0,0,0,39,39,11,,,,,,,186.78636628948152,187.83091982081532,187.83091982081532,187.83091982081532,187.83091982081532,187.83091982081532,187.83091982081532,187.83091982081532,187.83091982081532,187.83091982081532,187.83091982081532,187.83091982081532,187.83091982081532,,j,3.2660525385290384,target,None,,,,,,,,,,,,,,,ST03_112822,2022-11-29_14h38.57.805,Hippopolis_4AFCT,2022.2.2,60.00589696899818,
Camponello,stimuli/subj_files/ST03_112822_cityB.csv,./stimuli/arnedillo.png,./stimuli/street_plate2.png,./stimuli/videos/camponello_part1.mp4,SIRÁLY UTCA,stimuli/scenes/086a.jpg,scene,2,stimuli/objects/088a.jpg,stimuli/objects/088b.jpg,stimuli/objects/088a.jpg,stimuli/objects/111b.jpg,stimuli/objects/111a.jpg,lure,target,dist2,dist1,0,0,0,0,0,40,40,34,,,,,,,191.12187625281513,192.19677996449172,192.19677996449172,192.19677996449172,192.19677996449172,192.19677996449172,192.19677996449172,192.19677996449172,192.19677996449172,192.19677996449172,192.19677996449172,192.19677996449172,192.19677996449172,195.61443822272122,j,4.179863648489118,dist2,None,,,,,,,,,,,,,,,ST03_112822,2022-11-29_14h38.57.805,Hippopolis_4AFCT,2022.2.2,60.00589696899818,
Camponello,stimuli/subj_files/ST03_112822_cityB.csv,./stimuli/arnedillo.png,./stimuli/street_plate2.png,./stimuli/videos/camponello_part1.mp4,KECSKE UTCA,stimuli/objects/095a.jpg,object,0,stimuli/objects/095a.jpg,stimuli/objects/079a.jpg,stimuli/objects/095b.jpg,stimuli/objects/095a.jpg,stimuli/objects/079b.jpg,dist1,lure,target,dist2,0,0,0,0,0,41,41,45,,,,,,,196.41731832921505,197.50248152017593,197.50248152017593,197.50248152017593,197.50248152017593,197.50248152017593,197.50248152017593,197.50248152017593,197.50248152017593,197.50248152017593,197.50248152017593,197.50248152017593,197.50248152017593,,j,2.554014913737774,target,None,,,,,,,,,,,,,,,ST03_112822,2022-11-29_14h38.57.805,Hippopolis_4AFCT,2022.2.2,60.00589696899818,
Camponello,stimuli/subj_files/ST03_112822_cityB.csv,./stimuli/arnedillo.png,./stimuli/street_plate2.png,./stimuli/videos/camponello_part1.mp4,PADLÓ UTCA,stimuli/scenes/008a.jpg,scene,1,stimuli/scenes/028a.jpg,stimuli/scenes/028a.jpg,stimuli/scenes/084b.jpg,stimuli/scenes/084a.jpg,stimuli/scenes/028b.jpg,target,dist2,dist1,lure,0,0,0,0,0,42,42,1,,,,,,,200.0736966971308,201.10774007812142,201.10774007812142,201.10774007812142,201.10774007812142,201.10774007812142,201.10774007812142,201.10774007812142,201.10774007812142,201.10774007812142,201.10774007812142,201.10774007812142,201.10774007812142,,d,3.30076458491385,target,None,,,,,,,,,,,,,,,ST03_112822,2022-11-29_14h38.57.805,Hippopolis_4AFCT,2022.2.2,60.00589696899818,
Camponello,stimuli/subj_files/ST03_112822_cityB.csv,./stimuli/arnedillo.png,./stimuli/street_plate2.png,./stimuli/videos/camponello_part1.mp4,KOKTÉL UTCA,stimuli/scenes/112a.jpg,scene,0,stimuli/scenes/112a.jpg,stimuli/scenes/112b.jpg,stimuli/scenes/101b.jpg,stimuli/scenes/112a.jpg,stimuli/scenes/101a.jpg,lure,dist2,target,dist1,0,0,0,0,0,43,43,66,,,,,,,204.43147005327046,205.49851961061358,205.49851961061358,205.49851961061358,205.49851961061358,205.49851961061358,205.49851961061358,205.49851961061358,205.49851961061358,205.49851961061358,205.49851961061358,205.49851961061358,205.49851961061358,,j,2.1895928606390953,target,None,,,,,,,,,,,,,,,ST03_112822,2022-11-29_14h38.57.805,Hippopolis_4AFCT,2022.2.2,60.00589696899818,
Camponello,stimuli/subj_files/ST03_112822_cityB.csv,./stimuli/arnedillo.png,./stimuli/street_plate2.png,./stimuli/videos/camponello_part1.mp4,KAKAS UTCA,stimuli/objects/081a.jpg,object,0,stimuli/objects/081a.jpg,stimuli/objects/081b.jpg,stimuli/scenes/021b.jpg,stimuli/scenes/021a.jpg,stimuli/objects/081a.jpg,lure,dist2,dist1,target,0,0,0,0,0,44,44,57,,,,,,,207.72296950221062,208.78376192227006,208.78376192227006,208.78376192227006,208.78376192227006,208.78376192227006,208.78376192227006,208.78376192227006,208.78376192227006,208.78376192227006,208.78376192227006,208.78376192227006,208.78376192227006,,k,3.0483828969299793,target,space,,211.87231912463903,211.87231912463903,3.8960438799113035,,,,,,,,,,,ST03_112822,2022-11-29_14h38.57.805,Hippopolis_4AFCT,2022.2.2,60.00589696899818,
Camponello,stimuli/subj_files/ST03_112822_cityB.csv,./stimuli/arnedillo.png,./stimuli/street_plate2.png,./stimuli/videos/camponello_part1.mp4,TISZTÁS UTCA,stimuli/scenes/095a.jpg,scene,0,stimuli/scenes/095a.jpg,stimuli/scenes/095a.jpg,stimuli/scenes/095b.jpg,stimuli/objects/078a.jpg,stimuli/objects/078b.jpg,target,lure,dist1,dist2,0,0,0,0,0,45,45,32,,,,,,,215.79870142415166,216.8805492874235,216.8805492874235,216.8805492874235,216.8805492874235,216.8805492874235,216.8805492874235,216.8805492874235,216.8805492874235,216.8805492874235,216.8805492874235,216.8805492874235,216.8805492874235,,d,2.6958344485610723,target,None,,,,,,,,,,,,,,,ST03_112822,2022-11-29_14h38.57.805,Hippopolis_4AFCT,2022.2.2,60.00589696899818,
Camponello,stimuli/subj_files/ST03_112822_cityB.csv,./stimuli/arnedillo.png,./stimuli/street_plate2.png,./stimuli/videos/camponello_part1.mp4,TOLMÁCS UTCA,stimuli/scenes/078a.jpg,scene,0,stimuli/scenes/078a.jpg,stimuli/scenes/078b.jpg,stimuli/objects/110a.jpg,stimuli/scenes/078a.jpg,stimuli/objects/110b.jpg,lure,dist1,target,dist2,0,0,0,0,0,46,46,52,,,,,,,219.6065983735025,220.66568181291223,220.66568181291223,220.66568181291223,220.66568181291223,220.66568181291223,220.66568181291223,220.66568181291223,220.66568181291223,220.66568181291223,220.66568181291223,220.66568181291223,220.66568181291223,224.10352874174714,j,3.7907308973371983,target,None,,,,,,,,,,,,,,,ST03_112822,2022-11-29_14h38.57.805,Hippopolis_4AFCT,2022.2.2,60.00589696899818,
Camponello,stimuli/subj_files/ST03_112822_cityB.csv,./stimuli/arnedillo.png,./stimuli/street_plate2.png,./stimuli/videos/camponello_part1.mp4,VÖDÖR UTCA,stimuli/scenes/045a.jpg,scene,1,stimuli/scenes/111a.jpg,stimuli/scenes/111b.jpg,stimuli/scenes/108b.jpg,stimuli/scenes/111a.jpg,stimuli/scenes/108a.jpg,lure,dist2,target,dist1,0,0,0,0,0,47,47,67,,,,,,,224.4870919920504,225.54856427013874,225.54856427013874,225.54856427013874,225.54856427013874,225.54856427013874,225.54856427013874,225.54856427013874,225.54856427013874,225.54856427013874,225.54856427013874,225.54856427013874,225.54856427013874,228.9734033551067,j,3.803964840248227,target,None,,,,,,,,,,,,,,,ST03_112822,2022-11-29_14h38.57.805,Hippopolis_4AFCT,2022.2.2,60.00589696899818,
Camponello,stimuli/subj_files/ST03_112822_cityB.csv,./stimuli/arnedillo.png,./stimuli/street_plate2.png,./stimuli/videos/camponello_part1.mp4,HARMONIKA UTCA,stimuli/objects/112a.jpg,object,0,stimuli/objects/112a.jpg,stimuli/objects/081b.jpg,stimuli/objects/112b.jpg,stimuli/objects/081a.jpg,stimuli/objects/112a.jpg,dist2,lure,dist1,target,0,0,0,0,0,48,48,63,,,,,,,229.38026689365506,230.44251264631748,230.44251264631748,230.44251264631748,230.44251264631748,230.44251264631748,230.44251264631748,230.44251264631748,230.44251264631748,230.44251264631748,230.44251264631748,230.44251264631748,230.44251264631748,233.87620701640844,k,3.7895288579165936,target,None,,,,,,,,,,,,,,,ST03_112822,2022-11-29_14h38.57.805,Hippopolis_4AFCT,2022.2.2,60.00589696899818,
Camponello,stimuli/subj_files/ST03_112822_cityB.csv,./stimuli/arnedillo.png,./stimuli/street_plate2.png,./stimuli/videos/camponello_part1.mp4,VITORLA UTCA,stimuli/objects/059a.jpg,object,2,stimuli/scenes/087a.jpg,stimuli/objects/030a.jpg,stimuli/scenes/087b.jpg,stimuli/objects/030b.jpg,stimuli/scenes/087a.jpg,dist1,lure,dist2,target,0,0,0,0,0,49,49,41,,,,,,,234.2625475525856,235.30248792655766,235.30248792655766,235.30248792655766,235.30248792655766,235.30248792655766,235.30248792655766,235.30248792655766,235.30248792655766,235.30248792655766,235.30248792655766,235.30248792655766,235.30248792655766,238.74590124748647,k,3.554221110418439,target,None,,,,,,,,,,,,,,,ST03_112822,2022-11-29_14h38.57.805,Hippopolis_4AFCT,2022.2.2,60.00589696899818,
Camponello,stimuli/subj_files/ST03_112822_cityB.csv,./stimuli/arnedillo.png,./stimuli/street_plate2.png,./stimuli/videos/camponello_part1.mp4,SZŐNYEG UTCA,stimuli/objects/028a.jpg,object,0,stimuli/objects/028a.jpg,stimuli/objects/028a.jpg,stimuli/scenes/038a.jpg,stimuli/scenes/038b.jpg,stimuli/objects/028b.jpg,target,dist1,dist2,lure,0,0,0,0,0,50,50,78,,,,,,,238.8977690897882,239.95966433733702,239.95966433733702,239.95966433733702,239.95966433733702,239.95966433733702,239.95966433733702,239.95966433733702,239.95966433733702,239.95966433733702,239.95966433733702,239.95966433733702,239.95966433733702,,d,3.1682895459234715,target,None,,,,,,,,,,,,,,,ST03_112822,2022-11-29_14h38.57.805,Hippopolis_4AFCT,2022.2.2,60.00589696899818,
Camponello,stimuli/subj_files/ST03_112822_cityB.csv,./stimuli/arnedillo.png,./stimuli/street_plate2.png,./stimuli/videos/camponello_part1.mp4,PAPUCS UTCA,stimuli/scenes/038a.jpg,scene,0,stimuli/scenes/038a.jpg,stimuli/scenes/038a.jpg,stimuli/scenes/038b.jpg,stimuli/objects/076b.jpg,stimuli/objects/076a.jpg,target,lure,dist2,dist1,0,0,0,0,0,51,51,71,,,,,,,243.15203796327114,244.19146548770368,244.19146548770368,244.19146548770368,244.19146548770368,244.19146548770368,244.19146548770368,244.19146548770368,244.19146548770368,244.19146548770368,244.19146548770368,244.19146548770368,244.19146548770368,,d,2.7291541174054146,target,None,,,,,,,,,,,,,,,ST03_112822,2022-11-29_14h38.57.805,Hippopolis_4AFCT,2022.2.2,60.00589696899818,
Camponello,stimuli/subj_files/ST03_112822_cityB.csv,./stimuli/arnedillo.png,./stimuli/street_plate2.png,./stimuli/videos/camponello_part1.mp4,SALÁTA UTCA,stimuli/scenes/044a.jpg,scene,0,stimuli/scenes/044a.jpg,stimuli/scenes/044b.jpg,stimuli/objects/045b.jpg,stimuli/objects/045a.jpg,stimuli/scenes/044a.jpg,lure,dist2,dist1,target,0,0,0,0,0,52,52,53,,,,,,,246.95240576006472,248.00837913528085,248.00837913528085,248.00837913528085,248.00837913528085,248.00837913528085,248.00837913528085,248.00837913528085,248.00837913528085,248.00837913528085,248.00837913528085,248.00837913528085,248.00837913528085,251.4563838429749,k,3.5195283461362123,target,None,,,,,,,,,,,,,,,ST03_112822,2022-11-29_14h38.57.805,Hippopolis_4AFCT,2022.2.2,60.00589696899818,
Camponello,stimuli/subj_files/ST03_112822_cityB.csv,./stimuli/arnedillo.png,./stimuli/street_plate2.png,./stimuli/videos/camponello_part1.mp4,KALAPÁCS UTCA,stimuli/scenes/002a.jpg,scene,0,stimuli/scenes/002a.jpg,stimuli/scenes/002b.jpg,stimuli/objects/038a.jpg,stimuli/objects/038b.jpg,stimuli/scenes/002a.jpg,lure,dist1,dist2,target,0,0,0,0,0,53,53,33,,,,,,,251.54654957167804,252.58836717903614,252.58836717903614,252.58836717903614,252.58836717903614,252.58836717903614,252.58836717903614,252.58836717903614,252.58836717903614,252.58836717903614,252.58836717903614,252.58836717903614,252.58836717903614,,k,3.3719968665391207,target,None,,,,,,,,,,,,,,,ST03_112822,2022-11-29_14h38.57.805,Hippopolis_4AFCT,2022.2.2,60.00589696899818,
Camponello,stimuli/subj_files/ST03_112822_cityB.csv,./stimuli/arnedillo.png,./stimuli/street_plate2.png,./stimuli/videos/camponello_part1.mp4,SZŐLŐ UTCA,stimuli/scenes/007a.jpg,scene,0,stimuli/scenes/007a.jpg,stimuli/scenes/073b.jpg,stimuli/scenes/007a.jpg,stimuli/scenes/073a.jpg,stimuli/scenes/007b.jpg,dist2,target,dist1,lure,0,0,0,0,0,54,54,22,,,,,,,255.98535377718508,257.0265891812742,257.0265891812742,257.0265891812742,257.0265891812742,257.0265891812742,257.0265891812742,257.0265891812742,257.0265891812742,257.0265891812742,257.0265891812742,257.0265891812742,257.0265891812742,260.4896304253489,f,4.565347364172339,target,None,,,,,,,,,,,,,,,ST03_112822,2022-11-29_14h38.57.805,Hippopolis_4AFCT,2022.2.2,60.00589696899818,
Camponello,stimuli/subj_files/ST03_112822_cityB.csv,./stimuli/arnedillo.png,./stimuli/street_plate2.png,./stimuli/videos/camponello_part1.mp4,OLDAL UTCA,stimuli/objects/076a.jpg,object,0,stimuli/objects/076a.jpg,stimuli/objects/076b.jpg,stimuli/objects/008a.jpg,stimuli/objects/008b.jpg,stimuli/objects/076a.jpg,lure,dist1,dist2,target,0,0,0,0,0,55,55,69,,,,,,,261.6187612116337,262.6726135239005,262.6726135239005,262.6726135239005,262.6726135239005,262.6726135239005,262.6726135239005,262.6726135239005,262.6726135239005,262.6726135239005,262.6726135239005,262.6726135239005,262.6726135239005,,k,2.1673615034669638,target,None,,,,,,,,,,,,,,,ST03_112822,2022-11-29_14h38.57.805,Hippopolis_4AFCT,2022.2.2,60.00589696899818,
Camponello,stimuli/subj_files/ST03_112822_cityB.csv,./stimuli/arnedillo.png,./stimuli/street_plate2.png,./stimuli/videos/camponello_part1.mp4,BÖGRE UTCA,stimuli/scenes/055a.jpg,scene,0,stimuli/scenes/055a.jpg,stimuli/scenes/093a.jpg,stimuli/scenes/055b.jpg,stimuli/scenes/055a.jpg,stimuli/scenes/093b.jpg,dist1,lure,target,dist2,0,0,0,0,0,56,56,27,,,,,,,264.8649345897138,265.92344484478235,265.92344484478235,265.92344484478235,265.92344484478235,265.92344484478235,265.92344484478235,265.92344484478235,265.92344484478235,265.92344484478235,265.92344484478235,265.92344484478235,265.92344484478235,,j,2.1484905686229467,target,None,,,,,,,,,,,,,,,ST03_112822,2022-11-29_14h38.57.805,Hippopolis_4AFCT,2022.2.2,60.00589696899818,
Camponello,stimuli/subj_files/ST03_112822_cityB.csv,./stimuli/arnedillo.png,./stimuli/street_plate2.png,./stimuli/videos/camponello_part1.mp4,ASZTAL UTCA,stimuli/scenes/062a.jpg,scene,2,stimuli/objects/111a.jpg,stimuli/scenes/049a.jpg,stimuli/objects/111a.jpg,stimuli/objects/111b.jpg,stimuli/scenes/049b.jpg,dist1,target,lure,dist2,0,0,0,0,0,57,57,5,,,,,,,268.11140653304756,269.1466762125492,269.1466762125492,269.1466762125492,269.1466762125492,269.1466762125492,269.1466762125492,269.1466762125492,269.1466762125492,269.1466762125492,269.1466762125492,269.1466762125492,269.1466762125492,272.6014160756022,d,4.333388844504952,dist1,None,,,,,,,,,,,,,,,ST03_112822,2022-11-29_14h38.57.805,Hippopolis_4AFCT,2022.2.2,60.00589696899818,
Camponello,stimuli/subj_files/ST03_112822_cityB.csv,./stimuli/arnedillo.png,./stimuli/street_plate2.png,./stimuli/videos/camponello_part1.mp4,ÁLLOMÁS UTCA,stimuli/scenes/061a.jpg,scene,0,stimuli/scenes/061a.jpg,stimuli/scenes/061a.jpg,stimuli/scenes/061b.jpg,stimuli/scenes/036a.jpg,stimuli/scenes/036b.jpg,target,lure,dist1,dist2,0,0,0,0,0,58,58,47,,,,,,,273.5061821863055,274.5320638269186,274.5320638269186,274.5320638269186,274.5320638269186,274.5320638269186,274.5320638269186,274.5320638269186,274.5320638269186,274.5320638269186,274.5320638269186,274.5320638269186,274.5320638269186,,d,2.2913930285722017,target,None,,,,,,,,,,,,,,,ST03_112822,2022-11-29_14h38.57.805,Hippopolis_4AFCT,2022.2.2,60.00589696899818,
Camponello,stimuli/subj_files/ST03_112822_cityB.csv,./stimuli/arnedillo.png,./stimuli/street_plate2.png,./stimuli/videos/camponello_part1.mp4,POLIP UTCA,stimuli/objects/101a.jpg,object,1,stimuli/objects/080a.jpg,stimuli/objects/049a.jpg,stimuli/objects/080a.jpg,stimuli/objects/080b.jpg,stimuli/objects/049b.jpg,dist1,target,lure,dist2,0,0,0,0,0,59,59,50,,,,,,,276.85452924855053,277.92247761413455,277.92247761413455,277.92247761413455,277.92247761413455,277.92247761413455,277.92247761413455,277.92247761413455,277.92247761413455,277.92247761413455,277.92247761413455,277.92247761413455,277.92247761413455,281.3631643410772,f,3.700775096192956,target,None,,,,,,,,,,,,,,,ST03_112822,2022-11-29_14h38.57.805,Hippopolis_4AFCT,2022.2.2,60.00589696899818,
Camponello,stimuli/subj_files/ST03_112822_cityB.csv,./stimuli/arnedillo.png,./stimuli/street_plate2.png,./stimuli/videos/camponello_part1.mp4,KOSÁR UTCA,stimuli/objects/078a.jpg,object,0,stimuli/objects/078a.jpg,stimuli/objects/078a.jpg,stimuli/objects/078b.jpg,stimuli/objects/007b.jpg,stimuli/objects/007a.jpg,target,lure,dist2,dist1,0,0,0,0,0,60,60,79,,,,,,,281.64528912492096,282.69714384153485,282.69714384153485,282.69714384153485,282.69714384153485,282.69714384153485,282.69714384153485,282.69714384153485,282.69714384153485,282.69714384153485,282.69714384153485,282.69714384153485,282.69714384153485,,d,2.702230917289853,target,None,,,,,,,,,,,,,,,ST03_112822,2022-11-29_14h38.57.805,Hippopolis_4AFCT,2022.2.2,60.00589696899818,
Camponello,stimuli/subj_files/ST03_112822_cityB.csv,./stimuli/arnedillo.png,./stimuli/street_plate2.png,./stimuli/videos/camponello_part1.mp4,TENISZ UTCA,stimuli/scenes/099a.jpg,scene,2,stimuli/objects/105a.jpg,stimuli/scenes/034b.jpg,stimuli/objects/105a.jpg,stimuli/scenes/034a.jpg,stimuli/objects/105b.jpg,dist2,target,dist1,lure,0,0,0,0,0,61,61,7,,,,,,,285.4187632650137,286.46033922210336,286.46033922210336,286.46033922210336,286.46033922210336,286.46033922210336,286.46033922210336,286.46033922210336,286.46033922210336,286.46033922210336,286.46033922210336,286.46033922210336,286.46033922210336,,j,2.699086330831051,dist1,None,,,,,,,,,,,,,,,ST03_112822,2022-11-29_14h38.57.805,Hippopolis_4AFCT,2022.2.2,60.00589696899818,
Camponello,stimuli/subj_files/ST03_112822_cityB.csv,./stimuli/arnedillo.png,./stimuli/street_plate2.png,./stimuli/videos/camponello_part1.mp4,KÖTÉNY UTCA,stimuli/objects/115a.jpg,object,0,stimuli/objects/115a.jpg,stimuli/objects/115b.jpg,stimuli/objects/083a.jpg,stimuli/objects/115a.jpg,stimuli/objects/083b.jpg,lure,dist1,target,dist2,0,0,0,0,0,62,62,28,,,,,,,289.1845256909728,290.2473147716373,290.2473147716373,290.2473147716373,290.2473147716373,290.2473147716373,290.2473147716373,290.2473147716373,290.2473147716373,290.2473147716373,290.2473147716373,290.2473147716373,290.2473147716373,293.68422712385654,j,3.455743733793497,target,None,,,,,,,,,,,,,,,ST03_112822,2022-11-29_14h38.57.805,Hippopolis_4AFCT,2022.2.2,60.00589696899818,
Camponello,stimuli/subj_files/ST03_112822_cityB.csv,./stimuli/arnedillo.png,./stimuli/street_plate2.png,./stimuli/videos/camponello_part1.mp4,TORONY UTCA,stimuli/objects/061a.jpg,object,0,stimuli/objects/061a.jpg,stimuli/objects/061b.jpg,stimuli/objects/061a.jpg,stimuli/scenes/112b.jpg,stimuli/scenes/112a.jpg,lure,target,dist2,dist1,0,0,0,0,0,63,63,14,,,,,,,293.7313013635576,294.7808443699032,294.7808443699032,294.7808443699032,294.7808443699032,294.7808443699032,294.7808443699032,294.7808443699032,294.7808443699032,294.7808443699032,294.7808443699032,294.7808443699032,294.7808443699032,,d,2.7787655480206013,lure,None,,,,,,,,,,,,,,,ST03_112822,2022-11-29_14h38.57.805,Hippopolis_4AFCT,2022.2.2,60.00589696899818,
Camponello,stimuli/subj_files/ST03_112822_cityB.csv,./stimuli/arnedillo.png,./stimuli/street_plate2.png,./stimuli/videos/camponello_part1.mp4,FÜGE UTCA,stimuli/scenes/073a.jpg,scene,0,stimuli/scenes/073a.jpg,stimuli/scenes/073a.jpg,stimuli/scenes/073b.jpg,stimuli/scenes/118a.jpg,stimuli/scenes/118b.jpg,target,lure,dist1,dist2,0,0,0,0,0,64,64,2,,,,,,,297.58148274198174,298.6283535826951,298.6283535826951,298.6283535826951,298.6283535826951,298.6283535826951,298.6283535826951,298.6283535826951,298.6283535826951,298.6283535826951,298.6283535826951,298.6283535826951,298.6283535826951,,d,1.907233890146017,target,None,,,,,,,,,,,,,,,ST03_112822,2022-11-29_14h38.57.805,Hippopolis_4AFCT,2022.2.2,60.00589696899818,
Camponello,stimuli/subj_files/ST03_112822_cityB.csv,./stimuli/arnedillo.png,./stimuli/street_plate2.png,./stimuli/videos/camponello_part1.mp4,ORVOS UTCA,stimuli/scenes/063a.jpg,scene,0,stimuli/scenes/063a.jpg,stimuli/scenes/063b.jpg,stimuli/objects/120a.jpg,stimuli/scenes/063a.jpg,stimuli/objects/120b.jpg,lure,dist1,target,dist2,0,0,0,0,0,65,65,23,,,,,,,300.5553305260837,301.6040170211345,301.6040170211345,301.6040170211345,301.6040170211345,301.6040170211345,301.6040170211345,301.6040170211345,301.6040170211345,301.6040170211345,301.6040170211345,301.6040170211345,301.6040170211345,,d,3.41112613491714,lure,None,,,,,,,,,,,,,,,ST03_112822,2022-11-29_14h38.57.805,Hippopolis_4AFCT,2022.2.2,60.00589696899818,
Camponello,stimuli/subj_files/ST03_112822_cityB.csv,./stimuli/arnedillo.png,./stimuli/street_plate2.png,./stimuli/videos/camponello_part1.mp4,LOVAGLÁS UTCA,stimuli/scenes/012a.jpg,scene,0,stimuli/scenes/012a.jpg,stimuli/scenes/012b.jpg,stimuli/scenes/104a.jpg,stimuli/scenes/012a.jpg,stimuli/scenes/104b.jpg,lure,dist1,target,dist2,0,0,0,0,0,66,66,37,,,,,,,305.03407075069845,306.0720253493637,306.0720253493637,306.0720253493637,306.0720253493637,306.0720253493637,306.0720253493637,306.0720253493637,306.0720253493637,306.0720253493637,306.0720253493637,306.0720253493637,306.0720253493637,,j,3.3428459260612726,target,None,,,,,,,,,,,,,,,ST03_112822,2022-11-29_14h38.57.805,Hippopolis_4AFCT,2022.2.2,60.00589696899818,
Camponello,stimuli/subj_files/ST03_112822_cityB.csv,./stimuli/arnedillo.png,./stimuli/street_plate2.png,./stimuli/videos/camponello_part1.mp4,MOCSÁR UTCA,stimuli/objects/063a.jpg,object,1,stimuli/objects/033a.jpg,stimuli/objects/033b.jpg,stimuli/objects/033a.jpg,stimuli/objects/053b.jpg,stimuli/objects/053a.jpg,lure,target,dist2,dist1,0,0,0,0,0,67,67,13,,,,,,,309.43613452650607,310.51990876346827,310.51990876346827,310.51990876346827,310.51990876346827,310.51990876346827,310.51990876346827,310.51990876346827,310.51990876346827,310.51990876346827,310.51990876346827,310.51990876346827,310.51990876346827,313.9386042281985,j,3.695362029597163,dist2,None,310.51990876346827,,,,,,,,,,,,,,ST03_112822,2022-11-29_14h38.57.805,Hippopolis_4AFCT,2022.2.2,60.00589696899818,
Camponello,stimuli/subj_files/ST03_112822_cityB.csv,./stimuli/arnedillo.png,./stimuli/street_plate2.png,./stimuli/videos/camponello_part1.mp4,PÉKSÉG UTCA,stimuli/objects/017a.jpg,object,1,stimuli/objects/027a.jpg,stimuli/objects/033a.jpg,stimuli/objects/033b.jpg,stimuli/objects/027b.jpg,stimuli/objects/027a.jpg,dist1,dist2,lure,target,0,0,0,0,0,68,68,55,,,,,,,314.24550782330334,315.30159347318113,315.30159347318113,315.30159347318113,315.30159347318113,315.30159347318113,315.30159347318113,315.30159347318113,315.30159347318113,315.30159347318113,315.30159347318113,315.30159347318113,315.30159347318113,,k,2.225393431261182,target,None,,,,,,,,,,,,,,,ST03_112822,2022-11-29_14h38.57.805,Hippopolis_4AFCT,2022.2.2,60.00589696899818,
Camponello,stimuli/subj_files/ST03_112822_cityB.csv,./stimuli/arnedillo.png,./stimuli/street_plate2.png,./stimuli/videos/camponello_part1.mp4,MENTA UTCA,stimuli/scenes/059a.jpg,scene,1,stimuli/scenes/057a.jpg,stimuli/scenes/111b.jpg,stimuli/scenes/057a.jpg,stimuli/scenes/111a.jpg,stimuli/scenes/057b.jpg,dist2,target,dist1,lure,0,0,0,0,0,69,69,58,,,,,,,317.54409510828555,318.5925234686583,318.5925234686583,318.5925234686583,318.5925234686583,318.5925234686583,318.5925234686583,318.5925234686583,318.5925234686583,318.5925234686583,318.5925234686583,318.5925234686583,318.5925234686583,322.03759289719164,f,3.7027611825615168,target,None,,,,,,,,,,,,,,,ST03_112822,2022-11-29_14h38.57.805,Hippopolis_4AFCT,2022.2.2,60.00589696899818,
Camponello,stimuli/subj_files/ST03_112822_cityB.csv,./stimuli/arnedillo.png,./stimuli/street_plate2.png,./stimuli/videos/camponello_part1.mp4,BANÁN UTCA,stimuli/objects/079a.jpg,object,0,stimuli/objects/079a.jpg,stimuli/objects/079b.jpg,stimuli/objects/115b.jpg,stimuli/objects/115a.jpg,stimuli/objects/079a.jpg,lure,dist2,dist1,target,0,0,0,0,0,70,70,42,,,,,,,322.3254159409553,323.36898109316826,323.36898109316826,323.36898109316826,323.36898109316826,323.36898109316826,323.36898109316826,323.36898109316826,323.36898109316826,323.36898109316826,323.36898109316826,323.36898109316826,323.36898109316826,,d,2.382496442645788,lure,None,,,,,,,,,,,,,,,ST03_112822,2022-11-29_14h38.57.805,Hippopolis_4AFCT,2022.2.2,60.00589696899818,
Camponello,stimuli/subj_files/ST03_112822_cityB.csv,./stimuli/arnedillo.png,./stimuli/street_plate2.png,./stimuli/videos/camponello_part1.mp4,BAGOLY UTCA,stimuli/objects/014a.jpg,object,2,stimuli/scenes/054a.jpg,stimuli/objects/105a.jpg,stimuli/scenes/054b.jpg,stimuli/scenes/054a.jpg,stimuli/objects/105b.jpg,dist1,lure,target,dist2,0,0,0,0,0,71,71,17,,,,,,,325.78049168922007,326.84425577521324,326.84425577521324,326.84425577521324,326.84425577521324,326.84425577521324,326.84425577521324,326.84425577521324,326.84425577521324,326.84425577521324,326.84425577521324,326.84425577521324,326.84425577521324,,j,2.858701966702938,target,None,,,,,,,,,,,,,,,ST03_112822,2022-11-29_14h38.57.805,Hippopolis_4AFCT,2022.2.2,60.00589696899818,
Camponello,stimuli/subj_files/ST03_112822_cityB.csv,./stimuli/arnedillo.png,./stimuli/street_plate2.png,./stimuli/videos/camponello_part1.mp4,HORGONY UTCA,stimuli/scenes/048a.jpg,scene,2,stimuli/objects/074a.jpg,stimuli/objects/077a.jpg,stimuli/objects/074a.jpg,stimuli/objects/074b.jpg,stimuli/objects/077b.jpg,dist1,target,lure,dist2,0,0,0,0,0,72,72,68,,,,,,,329.7336911354214,330.8163796495646,330.8163796495646,330.8163796495646,330.8163796495646,330.8163796495646,330.8163796495646,330.8163796495646,330.8163796495646,330.8163796495646,330.8163796495646,330.8163796495646,330.8163796495646,334.232555963099,f,3.7022828552871943,target,None,,,,,,,,,,,,,,,ST03_112822,2022-11-29_14h38.57.805,Hippopolis_4AFCT,2022.2.2,60.00589696899818,
Camponello,stimuli/subj_files/ST03_112822_cityB.csv,./stimuli/arnedillo.png,./stimuli/street_plate2.png,./stimuli/videos/camponello_part1.mp4,MUNKA UTCA,stimuli/objects/082a.jpg,object,2,stimuli/scenes/016a.jpg,stimuli/scenes/087b.jpg,stimuli/scenes/016b.jpg,stimuli/scenes/016a.jpg,stimuli/scenes/087a.jpg,dist2,lure,target,dist1,0,0,0,0,0,73,73,18,,,,,,,334.541650287807,335.61605607904494,335.61605607904494,335.61605607904494,335.61605607904494,335.61605607904494,335.61605607904494,335.61605607904494,335.61605607904494,335.61605607904494,335.61605607904494,335.61605607904494,335.61605607904494,339.03550106845796,f,4.343252100050449,lure,None,,,,,,,,,,,,,,,ST03_112822,2022-11-29_14h38.57.805,Hippopolis_4AFCT,2022.2.2,60.00589696899818,
Camponello,stimuli/subj_files/ST03_112822_cityB.csv,./stimuli/arnedillo.png,./stimuli/street_plate2.png,./stimuli/videos/camponello_part1.mp4,HAJÓ UTCA,stimuli/objects/046a.jpg,object,0,stimuli/objects/046a.jpg,stimuli/scenes/078a.jpg,stimuli/objects/046a.jpg,stimuli/objects/046b.jpg,stimuli/scenes/078b.jpg,dist1,target,lure,dist2,0,0,0,0,0,74,74,36,,,,,,,339.97820467315614,341.02805682085454,341.02805682085454,341.02805682085454,341.02805682085454,341.02805682085454,341.02805682085454,341.02805682085454,341.02805682085454,341.02805682085454,341.02805682085454,341.02805682085454,341.02805682085454,344.49472595378757,f,3.650670101866126,target,None,,,,,,,,,,,,,,,ST03_112822,2022-11-29_14h38.57.805,Hippopolis_4AFCT,2022.2.2,60.00589696899818,
Camponello,stimuli/subj_files/ST03_112822_cityB.csv,./stimuli/arnedillo.png,./stimuli/street_plate2.png,./stimuli/videos/camponello_part1.mp4,KRÉTA UTCA,stimuli/objects/108a.jpg,object,0,stimuli/objects/108a.jpg,stimuli/objects/108b.jpg,stimuli/objects/029a.jpg,stimuli/objects/029b.jpg,stimuli/objects/108a.jpg,lure,dist1,dist2,target,0,0,0,0,0,75,75,54,,,,,,,344.699470480904,345.7587884198874,345.7587884198874,345.7587884198874,345.7587884198874,345.7587884198874,345.7587884198874,345.7587884198874,345.7587884198874,345.7587884198874,345.7587884198874,345.7587884198874,345.7587884198874,349.2088641189039,k,4.520192343741655,target,None,,,,,,,,,,,,,,,ST03_112822,2022-11-29_14h38.57.805,Hippopolis_4AFCT,2022.2.2,60.00589696899818,
Camponello,stimuli/subj_files/ST03_112822_cityB.csv,./stimuli/arnedillo.png,./stimuli/street_plate2.png,./stimuli/videos/camponello_part1.mp4,SZIKLA UTCA,stimuli/objects/021a.jpg,object,2,stimuli/scenes/005a.jpg,stimuli/scenes/054a.jpg,stimuli/scenes/005b.jpg,stimuli/scenes/005a.jpg,stimuli/scenes/054b.jpg,dist1,lure,target,dist2,0,0,0,0,0,76,76,24,,,,,,,350.319132367149,351.35888551548123,351.35888551548123,351.35888551548123,351.35888551548123,351.35888551548123,351.35888551548123,351.35888551548123,351.35888551548123,351.35888551548123,351.35888551548123,351.35888551548123,351.35888551548123,354.8272477686405,None,,invalid,None,,,,,,,,,,,,,,,ST03_112822,2022-11-29_14h38.57.805,Hippopolis_4AFCT,2022.2.2,60.00589696899818,
Camponello,stimuli/subj_files/ST03_112822_cityB.csv,./stimuli/arnedillo.png,./stimuli/street_plate2.png,./stimuli/videos/camponello_part1.mp4,AJÁNDÉK UTCA,stimuli/objects/092a.jpg,object,2,stimuli/scenes/034a.jpg,stimuli/scenes/034a.jpg,stimuli/scenes/034b.jpg,stimuli/scenes/016b.jpg,stimuli/scenes/016a.jpg,target,lure,dist2,dist1,0,0,0,0,0,77,77,26,,,,,,,356.31909162551165,357.34740533679724,357.34740533679724,357.34740533679724,357.34740533679724,357.34740533679724,357.34740533679724,357.34740533679724,357.34740533679724,357.34740533679724,357.34740533679724,357.34740533679724,357.34740533679724,,d,2.8030850030481815,target,None,,,,,,,,,,,,,,,ST03_112822,2022-11-29_14h38.57.805,Hippopolis_4AFCT,2022.2.2,60.00589696899818,
Camponello,stimuli/subj_files/ST03_112822_cityB.csv,./stimuli/arnedillo.png,./stimuli/street_plate2.png,./stimuli/videos/camponello_part1.mp4,HEGESZTŐ UTCA,stimuli/scenes/093a.jpg,scene,0,stimuli/scenes/093a.jpg,stimuli/objects/095b.jpg,stimuli/scenes/093a.jpg,stimuli/objects/095a.jpg,stimuli/scenes/093b.jpg,dist2,target,dist1,lure,0,0,0,0,0,78,78,74,,,,,,,360.1706093996763,361.22334924153984,361.22334924153984,361.22334924153984,361.22334924153984,361.22334924153984,361.22334924153984,361.22334924153984,361.22334924153984,361.22334924153984,361.22334924153984,361.22334924153984,361.22334924153984,,f,1.8711658585816622,target,None,361.22334924153984,,,,,,,,,,,,,,ST03_112822,2022-11-29_14h38.57.805,Hippopolis_4AFCT,2022.2.2,60.00589696899818,
Camponello,stimuli/subj_files/ST03_112822_cityB.csv,./stimuli/arnedillo.png,./stimuli/street_plate2.png,./stimuli/videos/camponello_part1.mp4,PÁLMAFA UTCA,stimuli/objects/047a.jpg,object,2,stimuli/scenes/049a.jpg,stimuli/objects/074a.jpg,stimuli/scenes/049a.jpg,stimuli/objects/074b.jpg,stimuli/scenes/049b.jpg,dist1,target,dist2,lure,0,0,0,0,0,79,79,12,,,,,,,363.1263967305422,364.18261393532157,364.18261393532157,364.18261393532157,364.18261393532157,364.18261393532157,364.18261393532157,364.18261393532157,364.18261393532157,364.18261393532157,364.18261393532157,364.18261393532157,364.18261393532157,367.64015347510576,f,3.696004880592227,target,None,,,,,,,,,,,,,,,ST03_112822,2022-11-29_14h38.57.805,Hippopolis_4AFCT,2022.2.2,60.00589696899818,
Hippopolis,stimuli/subj_files/ST03_112822_cityA.csv,./stimuli/seattle.jpg,./stimuli/street_plate1.png,./stimuli/videos/hippopolis_part1.mp4,FÉSZEK UTCA,stimuli/scenes/107a.jpg,scene,2,stimuli/objects/020a.jpg,stimuli/objects/020a.jpg,stimuli/objects/020b.jpg,stimuli/scenes/047b.jpg,stimuli/scenes/047a.jpg,target,lure,dist2,dist1,0,1,1,1,0,0,0,22,,,,,372.5832548569888,372.5832548569888,375.5699577778578,376.6233712602407,376.6233712602407,376.6233712602407,376.6233712602407,376.6233712602407,376.6233712602407,376.6233712602407,376.6233712602407,376.6233712602407,376.6233712602407,376.6233712602407,376.6233712602407,,d,3.0634732395410538,target,None,,,,,64,8,3,4,367.9008219279349,367.9008219279349,space,4.617817873135209,,,ST03_112822,2022-11-29_14h38.57.805,Hippopolis_4AFCT,2022.2.2,60.00589696899818,
Hippopolis,stimuli/subj_files/ST03_112822_cityA.csv,./stimuli/seattle.jpg,./stimuli/street_plate1.png,./stimuli/videos/hippopolis_part1.mp4,TOJÁS UTCA,stimuli/scenes/027a.jpg,scene,0,stimuli/scenes/027a.jpg,stimuli/scenes/025b.jpg,stimuli/scenes/027a.jpg,stimuli/scenes/027b.jpg,stimuli/scenes/025a.jpg,dist2,target,lure,dist1,0,1,1,1,0,1,1,72,,,,,,,379.71500742807984,380.7510760817677,380.7510760817677,380.7510760817677,380.7510760817677,380.7510760817677,380.7510760817677,380.7510760817677,380.7510760817677,380.7510760817677,380.7510760817677,380.7510760817677,380.7510760817677,,f,2.023492744192481,target,None,,,,,,,,,,,,,,,ST03_112822,2022-11-29_14h38.57.805,Hippopolis_4AFCT,2022.2.2,60.00589696899818,
Hippopolis,stimuli/subj_files/ST03_112822_cityA.csv,./stimuli/seattle.jpg,./stimuli/street_plate1.png,./stimuli/videos/hippopolis_part1.mp4,KÖNYVTÁR UTCA,stimuli/scenes/033a.jpg,scene,1,stimuli/scenes/097a.jpg,stimuli/scenes/097a.jpg,stimuli/scenes/097b.jpg,stimuli/scenes/094b.jpg,stimuli/scenes/094a.jpg,target,lure,dist2,dist1,0,1,1,1,0,2,2,63,,,,,,,382.80328659154475,383.8817640785128,383.8817640785128,383.8817640785128,383.8817640785128,383.8817640785128,383.8817640785128,383.8817640785128,383.8817640785128,383.8817640785128,383.8817640785128,383.8817640785128,383.8817640785128,387.3161473274231,d,4.012947451323271,target,None,,,,,,,,,,,,,,,ST03_112822,2022-11-29_14h38.57.805,Hippopolis_4AFCT,2022.2.2,60.00589696899818,
Hippopolis,stimuli/subj_files/ST03_112822_cityA.csv,./stimuli/seattle.jpg,./stimuli/street_plate1.png,./stimuli/videos/hippopolis_part1.mp4,ÁLOM UTCA,stimuli/scenes/119a.jpg,scene,2,stimuli/objects/087a.jpg,stimuli/scenes/081b.jpg,stimuli/objects/087b.jpg,stimuli/objects/087a.jpg,stimuli/scenes/081a.jpg,dist2,lure,target,dist1,0,1,1,1,0,3,3,73,,,,,,,387.9273333568126,388.96066173538566,388.96066173538566,388.96066173538566,388.96066173538566,388.96066173538566,388.96066173538566,388.96066173538566,388.96066173538566,388.96066173538566,388.96066173538566,388.96066173538566,388.96066173538566,,j,1.9736860040575266,target,None,,,,,,,,,,,,,,,ST03_112822,2022-11-29_14h38.57.805,Hippopolis_4AFCT,2022.2.2,60.00589696899818,
Hippopolis,stimuli/subj_files/ST03_112822_cityA.csv,./stimuli/seattle.jpg,./stimuli/street_plate1.png,./stimuli/videos/hippopolis_part1.mp4,EGÉR UTCA,stimuli/scenes/056a.jpg,scene,1,stimuli/scenes/003a.jpg,stimuli/scenes/105a.jpg,stimuli/scenes/003b.jpg,stimuli/scenes/105b.jpg,stimuli/scenes/003a.jpg,dist1,lure,dist2,target,0,1,1,1,0,4,4,43,,,,,,,390.95082709006965,391.9897756651044,391.9897756651044,391.9897756651044,391.9897756651044,391.9897756651044,391.9897756651044,391.9897756651044,391.9897756651044,391.9897756651044,391.9897756651044,391.9897756651044,391.9897756651044,395.452618798241,f,4.89641273394227,lure,None,391.9897756651044,,,,,,,,,,,,,,ST03_112822,2022-11-29_14h38.57.805,Hippopolis_4AFCT,2022.2.2,60.00589696899818,
Hippopolis,stimuli/subj_files/ST03_112822_cityA.csv,./stimuli/seattle.jpg,./stimuli/street_plate1.png,./stimuli/videos/hippopolis_part1.mp4,KOCKA UTCA,stimuli/objects/003a.jpg,object,1,stimuli/objects/052a.jpg,stimuli/objects/052a.jpg,stimuli/objects/118b.jpg,stimuli/objects/118a.jpg,stimuli/objects/052b.jpg,target,dist2,dist1,lure,0,1,1,1,0,5,5,39,,,,,,,396.9189654197544,398.0146608427167,398.0146608427167,398.0146608427167,398.0146608427167,398.0146608427167,398.0146608427167,398.0146608427167,398.0146608427167,398.0146608427167,398.0146608427167,398.0146608427167,398.0146608427167,401.4176467526704,d,3.415547402575612,target,None,,,,,,,,,,,,,,,ST03_112822,2022-11-29_14h38.57.805,Hippopolis_4AFCT,2022.2.2,60.00589696899818,
Hippopolis,stimuli/subj_files/ST03_112822_cityA.csv,./stimuli/seattle.jpg,./stimuli/street_plate1.png,./stimuli/videos/hippopolis_part1.mp4,LIGET UTCA,stimuli/objects/113a.jpg,object,0,stimuli/objects/113a.jpg,stimuli/scenes/091b.jpg,stimuli/objects/113a.jpg,stimuli/objects/113b.jpg,stimuli/scenes/091a.jpg,dist2,target,lure,dist1,0,1,1,1,0,6,6,27,,,,,,,401.46000644378364,402.5105306766927,402.5105306766927,402.5105306766927,402.5105306766927,402.5105306766927,402.5105306766927,402.5105306766927,402.5105306766927,402.5105306766927,402.5105306766927,402.5105306766927,402.5105306766927,405.95651042088866,f,3.528053030371666,target,None,,,,,,,,,,,,,,,ST03_112822,2022-11-29_14h38.57.805,Hippopolis_4AFCT,2022.2.2,60.00589696899818,
Hippopolis,stimuli/subj_files/ST03_112822_cityA.csv,./stimuli/seattle.jpg,./stimuli/street_plate1.png,./stimuli/videos/hippopolis_part1.mp4,MANDARIN UTCA,stimuli/scenes/013a.jpg,scene,2,stimuli/objects/099a.jpg,stimuli/objects/099a.jpg,stimuli/objects/025a.jpg,stimuli/objects/099b.jpg,stimuli/objects/025b.jpg,target,dist1,lure,dist2,0,1,1,1,0,7,7,54,,,,,,,406.06633859686553,407.1400729250163,407.1400729250163,407.1400729250163,407.1400729250163,407.1400729250163,407.1400729250163,407.1400729250163,407.1400729250163,407.1400729250163,407.1400729250163,407.1400729250163,407.1400729250163,,d,2.9779079165309668,target,None,,,,,,,,,,,,,,,ST03_112822,2022-11-29_14h38.57.805,Hippopolis_4AFCT,2022.2.2,60.00589696899818,
Hippopolis,stimuli/subj_files/ST03_112822_cityA.csv,./stimuli/seattle.jpg,./stimuli/street_plate1.png,./stimuli/videos/hippopolis_part1.mp4,KESELYŰ UTCA,stimuli/objects/036a.jpg,object,2,stimuli/scenes/017a.jpg,stimuli/scenes/006b.jpg,stimuli/scenes/006a.jpg,stimuli/scenes/017a.jpg,stimuli/scenes/017b.jpg,dist2,dist1,target,lure,0,1,1,1,0,8,8,36,,,,,,,410.1626227553934,411.1890253312886,411.1890253312886,411.1890253312886,411.1890253312886,411.1890253312886,411.1890253312886,411.1890253312886,411.1890253312886,411.1890253312886,411.1890253312886,411.1890253312886,411.1890253312886,414.6616580132395,f,3.536948747932911,dist1,None,,,,,,,,,,,,,,,ST03_112822,2022-11-29_14h38.57.805,Hippopolis_4AFCT,2022.2.2,60.00589696899818,
Hippopolis,stimuli/subj_files/ST03_112822_cityA.csv,./stimuli/seattle.jpg,./stimuli/street_plate1.png,./stimuli/videos/hippopolis_part1.mp4,KÖTÉL UTCA,stimuli/scenes/030a.jpg,scene,1,stimuli/scenes/100a.jpg,stimuli/scenes/100a.jpg,stimuli/scenes/100b.jpg,stimuli/objects/106b.jpg,stimuli/objects/106a.jpg,target,lure,dist2,dist1,0,1,1,1,0,9,9,31,,,,,,,414.75379552319646,415.8075878098607,415.8075878098607,415.8075878098607,415.8075878098607,415.8075878098607,415.8075878098607,415.8075878098607,415.8075878098607,415.8075878098607,415.8075878098607,415.8075878098607,415.8075878098607,419.2628598045558,d,3.6699929274618626,target,None,,,,,,,,,,,,,,,ST03_112822,2022-11-29_14h38.57.805,Hippopolis_4AFCT,2022.2.2,60.00589696899818,
Hippopolis,stimuli/subj_files/ST03_112822_cityA.csv,./stimuli/seattle.jpg,./stimuli/street_plate1.png,./stimuli/videos/hippopolis_part1.mp4,SZALVÉTA UTCA,stimuli/objects/018a.jpg,object,2,stimuli/scenes/014a.jpg,stimuli/scenes/014b.jpg,stimuli/scenes/014a.jpg,stimuli/scenes/043a.jpg,stimuli/scenes/043b.jpg,lure,target,dist1,dist2,0,1,1,1,0,10,10,24,,,,,,,419.4969213474542,420.5160687677562,420.5160687677562,420.5160687677562,420.5160687677562,420.5160687677562,420.5160687677562,420.5160687677562,420.5160687677562,420.5160687677562,420.5160687677562,420.5160687677562,420.5160687677562,423.98652627132833,None,,invalid,None,420.5160687677562,,,,,,,,,,,,,,ST03_112822,2022-11-29_14h38.57.805,Hippopolis_4AFCT,2022.2.2,60.00589696899818,
Hippopolis,stimuli/subj_files/ST03_112822_cityA.csv,./stimuli/seattle.jpg,./stimuli/street_plate1.png,./stimuli/videos/hippopolis_part1.mp4,MOGYORÓ UTCA,stimuli/objects/094a.jpg,object,0,stimuli/objects/094a.jpg,stimuli/objects/094a.jpg,stimuli/objects/094b.jpg,stimuli/scenes/027b.jpg,stimuli/scenes/027a.jpg,target,lure,dist2,dist1,0,1,1,1,0,11,11,16,,,,,,,425.5013615861535,426.55261512845755,426.55261512845755,426.55261512845755,426.55261512845755,426.55261512845755,426.55261512845755,426.55261512845755,426.55261512845755,426.55261512845755,426.55261512845755,426.55261512845755,426.55261512845755,,f,2.1093799583613873,lure,None,,,,,,,,,,,,,,,ST03_112822,2022-11-29_14h38.57.805,Hippopolis_4AFCT,2022.2.2,60.00589696899818,
Hippopolis,stimuli/subj_files/ST03_112822_cityA.csv,./stimuli/seattle.jpg,./stimuli/street_plate1.png,./stimuli/videos/hippopolis_part1.mp4,RIBIZLI UTCA,stimuli/objects/065a.jpg,object,1,stimuli/objects/023a.jpg,stimuli/objects/023a.jpg,stimuli/objects/023b.jpg,stimuli/scenes/069a.jpg,stimuli/scenes/069b.jpg,target,lure,dist1,dist2,0,1,1,1,0,12,12,4,,,,,,,428.69919399544597,429.7638957668096,429.7638957668096,429.7638957668096,429.7638957668096,429.7638957668096,429.7638957668096,429.7638957668096,429.7638957668096,429.7638957668096,429.7638957668096,429.7638957668096,429.7638957668096,,d,2.866257555782795,target,None,,,,,,,,,,,,,,,ST03_112822,2022-11-29_14h38.57.805,Hippopolis_4AFCT,2022.2.2,60.00589696899818,
Hippopolis,stimuli/subj_files/ST03_112822_cityA.csv,./stimuli/seattle.jpg,./stimuli/street_plate1.png,./stimuli/videos/hippopolis_part1.mp4,ECSET UTCA,stimuli/scenes/098a.jpg,scene,0,stimuli/scenes/098a.jpg,stimuli/scenes/082b.jpg,stimuli/scenes/098b.jpg,stimuli/scenes/082a.jpg,stimuli/scenes/098a.jpg,dist2,lure,dist1,target,0,1,1,1,0,13,13,13,,,,,,,432.66357723250985,433.70058917067945,433.70058917067945,433.70058917067945,433.70058917067945,433.70058917067945,433.70058917067945,433.70058917067945,433.70058917067945,433.70058917067945,433.70058917067945,433.70058917067945,433.70058917067945,437.16666552610695,None,,invalid,None,,,,,,,,,,,,,,,ST03_112822,2022-11-29_14h38.57.805,Hippopolis_4AFCT,2022.2.2,60.00589696899818,
Hippopolis,stimuli/subj_files/ST03_112822_cityA.csv,./stimuli/seattle.jpg,./stimuli/street_plate1.png,./stimuli/videos/hippopolis_part1.mp4,TELEFON UTCA,stimuli/objects/072a.jpg,object,0,stimuli/objects/072a.jpg,stimuli/objects/084b.jpg,stimuli/objects/072a.jpg,stimuli/objects/084a.jpg,stimuli/objects/072b.jpg,dist2,target,dist1,lure,0,1,1,1,0,14,14,14,,,,,,,438.68292805179954,439.7549754809588,439.7549754809588,439.7549754809588,439.7549754809588,439.7549754809588,439.7549754809588,439.7549754809588,439.7549754809588,439.7549754809588,439.7549754809588,439.7549754809588,439.7549754809588,,f,2.058802854269743,target,None,,,,,,,,,,,,,,,ST03_112822,2022-11-29_14h38.57.805,Hippopolis_4AFCT,2022.2.2,60.00589696899818,
Hippopolis,stimuli/subj_files/ST03_112822_cityA.csv,./stimuli/seattle.jpg,./stimuli/street_plate1.png,./stimuli/videos/hippopolis_part1.mp4,CITROM UTCA,stimuli/scenes/041a.jpg,scene,1,stimuli/scenes/035a.jpg,stimuli/scenes/035b.jpg,stimuli/objects/052b.jpg,stimuli/objects/052a.jpg,stimuli/scenes/035a.jpg,lure,dist2,dist1,target,0,1,1,1,0,15,15,67,,,,,,,441.83374095894396,442.89393158070743,442.89393158070743,442.89393158070743,442.89393158070743,442.89393158070743,442.89393158070743,442.89393158070743,442.89393158070743,442.89393158070743,442.89393158070743,442.89393158070743,442.89393158070743,446.3243690934032,j,4.727564254775643,dist1,None,,,,,,,,,,,,,,,ST03_112822,2022-11-29_14h38.57.805,Hippopolis_4AFCT,2022.2.2,60.00589696899818,
Hippopolis,stimuli/subj_files/ST03_112822_cityA.csv,./stimuli/seattle.jpg,./stimuli/street_plate1.png,./stimuli/videos/hippopolis_part1.mp4,TÜKÖR UTCA,stimuli/objects/069a.jpg,object,2,stimuli/scenes/026a.jpg,stimuli/scenes/026b.jpg,stimuli/scenes/060b.jpg,stimuli/scenes/060a.jpg,stimuli/scenes/026a.jpg,lure,dist2,dist1,target,0,1,1,1,0,16,16,34,,,,,,,447.64865950122476,448.6971086990088,448.6971086990088,448.6971086990088,448.6971086990088,448.6971086990088,448.6971086990088,448.6971086990088,448.6971086990088,448.6971086990088,448.6971086990088,448.6971086990088,448.6971086990088,452.13824669644237,j,4.476164726540446,dist1,None,,,,,,,,,,,,,,,ST03_112822,2022-11-29_14h38.57.805,Hippopolis_4AFCT,2022.2.2,60.00589696899818,
Hippopolis,stimuli/subj_files/ST03_112822_cityA.csv,./stimuli/seattle.jpg,./stimuli/street_plate1.png,./stimuli/videos/hippopolis_part1.mp4,KERET UTCA,stimuli/scenes/025a.jpg,scene,0,stimuli/scenes/025a.jpg,stimuli/scenes/025a.jpg,stimuli/scenes/025b.jpg,stimuli/objects/072b.jpg,stimuli/objects/072a.jpg,target,lure,dist2,dist1,0,1,1,1,0,17,17,12,,,,,,,453.1993986386806,454.2449315302074,454.2449315302074,454.2449315302074,454.2449315302074,454.2449315302074,454.2449315302074,454.2449315302074,454.2449315302074,454.2449315302074,454.2449315302074,454.2449315302074,454.2449315302074,,d,1.9044454079121351,target,None,,,,,,,,,,,,,,,ST03_112822,2022-11-29_14h38.57.805,Hippopolis_4AFCT,2022.2.2,60.00589696899818,
Hippopolis,stimuli/subj_files/ST03_112822_cityA.csv,./stimuli/seattle.jpg,./stimuli/street_plate1.png,./stimuli/videos/hippopolis_part1.mp4,LABDA UTCA,stimuli/scenes/070a.jpg,scene,2,stimuli/objects/064a.jpg,stimuli/objects/060b.jpg,stimuli/objects/060a.jpg,stimuli/objects/064b.jpg,stimuli/objects/064a.jpg,dist2,dist1,lure,target,0,1,1,1,0,18,18,50,,,,,,,456.16643662564456,457.24832989647985,457.24832989647985,457.24832989647985,457.24832989647985,457.24832989647985,457.24832989647985,457.24832989647985,457.24832989647985,457.24832989647985,457.24832989647985,457.24832989647985,457.24832989647985,,j,2.469094306230545,lure,None,,,,,,,,,,,,,,,ST03_112822,2022-11-29_14h38.57.805,Hippopolis_4AFCT,2022.2.2,60.00589696899818,
Hippopolis,stimuli/subj_files/ST03_112822_cityA.csv,./stimuli/seattle.jpg,./stimuli/street_plate1.png,./stimuli/videos/hippopolis_part1.mp4,TÁSKA UTCA,stimuli/scenes/091a.jpg,scene,0,stimuli/scenes/091a.jpg,stimuli/scenes/091b.jpg,stimuli/scenes/091a.jpg,stimuli/objects/094b.jpg,stimuli/objects/094a.jpg,lure,target,dist2,dist1,0,1,1,1,0,19,19,76,,,,,,,459.7446348294616,460.79444250278175,460.79444250278175,460.79444250278175,460.79444250278175,460.79444250278175,460.79444250278175,460.79444250278175,460.79444250278175,460.79444250278175,460.79444250278175,460.79444250278175,460.79444250278175,,f,2.171342384070158,target,None,460.79444250278175,,,,,,,,,,,,,,ST03_112822,2022-11-29_14h38.57.805,Hippopolis_4AFCT,2022.2.2,60.00589696899818,
Hippopolis,stimuli/subj_files/ST03_112822_cityA.csv,./stimuli/seattle.jpg,./stimuli/street_plate1.png,./stimuli/videos/hippopolis_part1.mp4,CUKOR UTCA,stimuli/scenes/088a.jpg,scene,2,stimuli/objects/015a.jpg,stimuli/objects/015b.jpg,stimuli/objects/071a.jpg,stimuli/objects/015a.jpg,stimuli/objects/071b.jpg,lure,dist1,target,dist2,0,1,1,1,0,20,20,74,,,,,,,463.000725267455,464.06239441409707,464.06239441409707,464.06239441409707,464.06239441409707,464.06239441409707,464.06239441409707,464.06239441409707,464.06239441409707,464.06239441409707,464.06239441409707,464.06239441409707,464.06239441409707,,j,3.3671066034585238,target,None,,,,,,,,,,,,,,,ST03_112822,2022-11-29_14h38.57.805,Hippopolis_4AFCT,2022.2.2,60.00589696899818,
Hippopolis,stimuli/subj_files/ST03_112822_cityA.csv,./stimuli/seattle.jpg,./stimuli/street_plate1.png,./stimuli/videos/hippopolis_part1.mp4,LEGELŐ UTCA,stimuli/objects/002a.jpg,object,1,stimuli/objects/106a.jpg,stimuli/objects/106a.jpg,stimuli/scenes/051b.jpg,stimuli/objects/106b.jpg,stimuli/scenes/051a.jpg,target,dist2,lure,dist1,0,1,1,1,0,21,21,71,,,,,,,467.45365320518613,468.53558877296746,468.53558877296746,468.53558877296746,468.53558877296746,468.53558877296746,468.53558877296746,468.53558877296746,468.53558877296746,468.53558877296746,468.53558877296746,468.53558877296746,468.53558877296746,,f,2.9900349881500006,dist2,None,,,,,,,,,,,,,,,ST03_112822,2022-11-29_14h38.57.805,Hippopolis_4AFCT,2022.2.2,60.00589696899818,
Hippopolis,stimuli/subj_files/ST03_112822_cityA.csv,./stimuli/seattle.jpg,./stimuli/street_plate1.png,./stimuli/videos/hippopolis_part1.mp4,ZSEMLE UTCA,stimuli/objects/001a.jpg,object,2,stimuli/scenes/042a.jpg,stimuli/scenes/096a.jpg,stimuli/scenes/096b.jpg,stimuli/scenes/042a.jpg,stimuli/scenes/042b.jpg,dist1,dist2,target,lure,0,1,1,1,0,22,22,7,,,,,,,471.54500760138035,472.59521522931755,472.59521522931755,472.59521522931755,472.59521522931755,472.59521522931755,472.59521522931755,472.59521522931755,472.59521522931755,472.59521522931755,472.59521522931755,472.59521522931755,472.59521522931755,,j,2.4662706796079874,target,None,472.59521522931755,,,,,,,,,,,,,,ST03_112822,2022-11-29_14h38.57.805,Hippopolis_4AFCT,2022.2.2,60.00589696899818,
Hippopolis,stimuli/subj_files/ST03_112822_cityA.csv,./stimuli/seattle.jpg,./stimuli/street_plate1.png,./stimuli/videos/hippopolis_part1.mp4,BONBON UTCA,stimuli/scenes/010a.jpg,scene,0,stimuli/scenes/010a.jpg,stimuli/scenes/046a.jpg,stimuli/scenes/046b.jpg,stimuli/scenes/010a.jpg,stimuli/scenes/010b.jpg,dist1,dist2,target,lure,0,1,1,1,0,23,23,0,,,,,,,475.085750060156,476.15480312146246,476.15480312146246,476.15480312146246,476.15480312146246,476.15480312146246,476.15480312146246,476.15480312146246,476.15480312146246,476.15480312146246,476.15480312146246,476.15480312146246,476.15480312146246,,j,3.3864583522081375,target,None,,,,,,,,,,,,,,,ST03_112822,2022-11-29_14h38.57.805,Hippopolis_4AFCT,2022.2.2,60.00589696899818,
Hippopolis,stimuli/subj_files/ST03_112822_cityA.csv,./stimuli/seattle.jpg,./stimuli/street_plate1.png,./stimuli/videos/hippopolis_part1.mp4,HARCSA UTCA,stimuli/objects/026a.jpg,object,1,stimuli/objects/089a.jpg,stimuli/objects/098a.jpg,stimuli/objects/098b.jpg,stimuli/objects/089a.jpg,stimuli/objects/089b.jpg,dist1,dist2,target,lure,0,1,1,1,0,24,24,18,,,,,,,479.5661115627736,480.6410693898797,480.6410693898797,480.6410693898797,480.6410693898797,480.6410693898797,480.6410693898797,480.6410693898797,480.6410693898797,480.6410693898797,480.6410693898797,480.6410693898797,480.6410693898797,484.0532085299492,j,4.131828399375081,target,None,,,,,,,,,,,,,,,ST03_112822,2022-11-29_14h38.57.805,Hippopolis_4AFCT,2022.2.2,60.00589696899818,
Hippopolis,stimuli/subj_files/ST03_112822_cityA.csv,./stimuli/seattle.jpg,./stimuli/street_plate1.png,./stimuli/videos/hippopolis_part1.mp4,LÉPCSŐ UTCA,stimuli/objects/009a.jpg,object,0,stimuli/objects/009a.jpg,stimuli/scenes/098b.jpg,stimuli/objects/009b.jpg,stimuli/objects/009a.jpg,stimuli/scenes/098a.jpg,dist2,lure,target,dist1,0,1,1,1,0,25,25,15,,,,,,,484.8102777041495,485.8684943690896,485.8684943690896,485.8684943690896,485.8684943690896,485.8684943690896,485.8684943690896,485.8684943690896,485.8684943690896,485.8684943690896,485.8684943690896,485.8684943690896,485.8684943690896,,f,2.0250602159649134,lure,None,,,,,,,,,,,,,,,ST03_112822,2022-11-29_14h38.57.805,Hippopolis_4AFCT,2022.2.2,60.00589696899818,
Hippopolis,stimuli/subj_files/ST03_112822_cityA.csv,./stimuli/seattle.jpg,./stimuli/street_plate1.png,./stimuli/videos/hippopolis_part1.mp4,PALACK UTCA,stimuli/scenes/082a.jpg,scene,0,stimuli/scenes/082a.jpg,stimuli/objects/041b.jpg,stimuli/objects/041a.jpg,stimuli/scenes/082a.jpg,stimuli/scenes/082b.jpg,dist2,dist1,target,lure,0,1,1,1,0,26,26,69,,,,,,,487.91617382504046,488.9597899839282,488.9597899839282,488.9597899839282,488.9597899839282,488.9597899839282,488.9597899839282,488.9597899839282,488.9597899839282,488.9597899839282,488.9597899839282,488.9597899839282,488.9597899839282,,j,2.469229282811284,target,None,,,,,,,,,,,,,,,ST03_112822,2022-11-29_14h38.57.805,Hippopolis_4AFCT,2022.2.2,60.00589696899818,
Hippopolis,stimuli/subj_files/ST03_112822_cityA.csv,./stimuli/seattle.jpg,./stimuli/street_plate1.png,./stimuli/videos/hippopolis_part1.mp4,BÚJÓCSKA UTCA,stimuli/scenes/029a.jpg,scene,2,stimuli/objects/093a.jpg,stimuli/objects/093a.jpg,stimuli/scenes/106b.jpg,stimuli/scenes/106a.jpg,stimuli/objects/093b.jpg,target,dist2,dist1,lure,0,1,1,1,0,27,27,65,,,,,,,491.44938713125885,492.48526825010777,492.48526825010777,492.48526825010777,492.48526825010777,492.48526825010777,492.48526825010777,492.48526825010777,492.48526825010777,492.48526825010777,492.48526825010777,492.48526825010777,492.48526825010777,,d,2.159602515399456,target,None,,,,,,,,,,,,,,,ST03_112822,2022-11-29_14h38.57.805,Hippopolis_4AFCT,2022.2.2,60.00589696899818,
Hippopolis,stimuli/subj_files/ST03_112822_cityA.csv,./stimuli/seattle.jpg,./stimuli/street_plate1.png,./stimuli/videos/hippopolis_part1.mp4,ZEBRA UTCA,stimuli/objects/090a.jpg,object,1,stimuli/objects/075a.jpg,stimuli/scenes/066b.jpg,stimuli/objects/075a.jpg,stimuli/scenes/066a.jpg,stimuli/objects/075b.jpg,dist2,target,dist1,lure,0,1,1,1,0,28,28,66,,,,,,,494.67688488587737,495.71712506935,495.71712506935,495.71712506935,495.71712506935,495.71712506935,495.71712506935,495.71712506935,495.71712506935,495.71712506935,495.71712506935,495.71712506935,495.71712506935,,f,3.2319957837462425,target,None,,,,,,,,,,,,,,,ST03_112822,2022-11-29_14h38.57.805,Hippopolis_4AFCT,2022.2.2,60.00589696899818,
Hippopolis,stimuli/subj_files/ST03_112822_cityA.csv,./stimuli/seattle.jpg,./stimuli/street_plate1.png,./stimuli/videos/hippopolis_part1.mp4,TERÍTŐ UTCA,stimuli/scenes/115a.jpg,scene,2,stimuli/objects/031a.jpg,stimuli/objects/051b.jpg,stimuli/objects/031a.jpg,stimuli/objects/051a.jpg,stimuli/objects/031b.jpg,dist2,target,dist1,lure,0,1,1,1,0,29,29,1,,,,,,,498.96636901423335,500.0559239257127,500.0559239257127,500.0559239257127,500.0559239257127,500.0559239257127,500.0559239257127,500.0559239257127,500.0559239257127,500.0559239257127,500.0559239257127,500.0559239257127,500.0559239257127,,d,3.3414280489087105,dist2,None,,,,,,,,,,,,,,,ST03_112822,2022-11-29_14h38.57.805,Hippopolis_4AFCT,2022.2.2,60.00589696899818,
Hippopolis,stimuli/subj_files/ST03_112822_cityA.csv,./stimuli/seattle.jpg,./stimuli/street_plate1.png,./stimuli/videos/hippopolis_part1.mp4,ÁRNYÉK UTCA,stimuli/scenes/009a.jpg,scene,1,stimuli/scenes/051a.jpg,stimuli/objects/037a.jpg,stimuli/scenes/051a.jpg,stimuli/scenes/051b.jpg,stimuli/objects/037b.jpg,dist1,target,lure,dist2,0,1,1,1,0,30,30,3,,,,,,,503.41846438869834,504.4628848079592,504.4628848079592,504.4628848079592,504.4628848079592,504.4628848079592,504.4628848079592,504.4628848079592,504.4628848079592,504.4628848079592,504.4628848079592,504.4628848079592,504.4628848079592,,f,2.53359267860651,target,None,,,,,,,,,,,,,,,ST03_112822,2022-11-29_14h38.57.805,Hippopolis_4AFCT,2022.2.2,60.00589696899818,
Hippopolis,stimuli/subj_files/ST03_112822_cityA.csv,./stimuli/seattle.jpg,./stimuli/street_plate1.png,./stimuli/videos/hippopolis_part1.mp4,POGÁCSA UTCA,stimuli/objects/013a.jpg,object,2,stimuli/scenes/043a.jpg,stimuli/objects/068a.jpg,stimuli/objects/068b.jpg,stimuli/scenes/043a.jpg,stimuli/scenes/043b.jpg,dist1,dist2,target,lure,0,1,1,1,0,31,31,45,,,,,,,507.03082539886236,508.0692542809993,508.0692542809993,508.0692542809993,508.0692542809993,508.0692542809993,508.0692542809993,508.0692542809993,508.0692542809993,508.0692542809993,508.0692542809993,508.0692542809993,508.0692542809993,,j,1.9517155792564154,target,None,,,,,,,,,,,,,,,ST03_112822,2022-11-29_14h38.57.805,Hippopolis_4AFCT,2022.2.2,60.00589696899818,
Hippopolis,stimuli/subj_files/ST03_112822_cityA.csv,./stimuli/seattle.jpg,./stimuli/street_plate1.png,./stimuli/videos/hippopolis_part1.mp4,TELEP UTCA,stimuli/objects/073a.jpg,object,0,stimuli/objects/073a.jpg,stimuli/scenes/090a.jpg,stimuli/scenes/090b.jpg,stimuli/objects/073a.jpg,stimuli/objects/073b.jpg,dist1,dist2,target,lure,0,1,1,1,0,32,32,68,,,,,,,510.04802654124796,511.1119349338114,511.1119349338114,511.1119349338114,511.1119349338114,511.1119349338114,511.1119349338114,511.1119349338114,511.1119349338114,511.1119349338114,511.1119349338114,511.1119349338114,511.1119349338114,514.5463548805565,k,3.661250539124012,lure,None,,,,,,,,,,,,,,,ST03_112822,2022-11-29_14h38.57.805,Hippopolis_4AFCT,2022.2.2,60.00589696899818,
Hippopolis,stimuli/subj_files/ST03_112822_cityA.csv,./stimuli/seattle.jpg,./stimuli/street_plate1.png,./stimuli/videos/hippopolis_part1.mp4,SÜTŐ UTCA,stimuli/objects/044a.jpg,object,1,stimuli/objects/118a.jpg,stimuli/objects/118b.jpg,stimuli/objects/070b.jpg,stimuli/objects/070a.jpg,stimuli/objects/118a.jpg,lure,dist2,dist1,target,0,1,1,1,0,33,33,41,,,,,,,514.7975740265101,515.8541196528822,515.8541196528822,515.8541196528822,515.8541196528822,515.8541196528822,515.8541196528822,515.8541196528822,515.8541196528822,515.8541196528822,515.8541196528822,515.8541196528822,515.8541196528822,519.2986762337387,j,3.7824267148971558,dist1,None,,,,,,,,,,,,,,,ST03_112822,2022-11-29_14h38.57.805,Hippopolis_4AFCT,2022.2.2,60.00589696899818,
Hippopolis,stimuli/subj_files/ST03_112822_cityA.csv,./stimuli/seattle.jpg,./stimuli/street_plate1.png,./stimuli/videos/hippopolis_part1.mp4,FÜZET UTCA,stimuli/objects/042a.jpg,object,0,stimuli/objects/042a.jpg,stimuli/scenes/110a.jpg,stimuli/scenes/110b.jpg,stimuli/objects/042b.jpg,stimuli/objects/042a.jpg,dist1,dist2,lure,target,0,1,1,1,0,34,34,23,,,,,,,519.6680103186518,520.7384871654212,520.7384871654212,520.7384871654212,520.7384871654212,520.7384871654212,520.7384871654212,520.7384871654212,520.7384871654212,520.7384871654212,520.7384871654212,520.7384871654212,520.7384871654212,,j,1.5545526407659054,lure,None,,,,,,,,,,,,,,,ST03_112822,2022-11-29_14h38.57.805,Hippopolis_4AFCT,2022.2.2,60.00589696899818,
Hippopolis,stimuli/subj_files/ST03_112822_cityA.csv,./stimuli/seattle.jpg,./stimuli/street_plate1.png,./stimuli/videos/hippopolis_part1.mp4,KÁRTYA UTCA,stimuli/scenes/032a.jpg,scene,0,stimuli/scenes/032a.jpg,stimuli/objects/116a.jpg,stimuli/objects/116b.jpg,stimuli/scenes/032b.jpg,stimuli/scenes/032a.jpg,dist1,dist2,lure,target,0,1,1,1,0,35,35,79,,,,,,,522.3188437540084,523.3782736528665,523.3782736528665,523.3782736528665,523.3782736528665,523.3782736528665,523.3782736528665,523.3782736528665,523.3782736528665,523.3782736528665,523.3782736528665,523.3782736528665,523.3782736528665,,k,2.4188232328742743,target,None,,,,,,,,,,,,,,,ST03_112822,2022-11-29_14h38.57.805,Hippopolis_4AFCT,2022.2.2,60.00589696899818,
Hippopolis,stimuli/subj_files/ST03_112822_cityA.csv,./stimuli/seattle.jpg,./stimuli/street_plate1.png,./stimuli/videos/hippopolis_part1.mp4,HORDÓ UTCA,stimuli/scenes/001a.jpg,scene,2,stimuli/objects/068a.jpg,stimuli/scenes/052a.jpg,stimuli/objects/068a.jpg,stimuli/scenes/052b.jpg,stimuli/objects/068b.jpg,dist1,target,dist2,lure,0,1,1,1,0,36,36,51,,,,,,,525.8177679814398,526.8575556520373,526.8575556520373,526.8575556520373,526.8575556520373,526.8575556520373,526.8575556520373,526.8575556520373,526.8575556520373,526.8575556520373,526.8575556520373,526.8575556520373,526.8575556520373,530.31206163764,k,3.627644743770361,lure,None,,,,,,,,,,,,,,,ST03_112822,2022-11-29_14h38.57.805,Hippopolis_4AFCT,2022.2.2,60.00589696899818,
Hippopolis,stimuli/subj_files/ST03_112822_cityA.csv,./stimuli/seattle.jpg,./stimuli/street_plate1.png,./stimuli/videos/hippopolis_part1.mp4,KARTON UTCA,stimuli/objects/066a.jpg,object,1,stimuli/objects/114a.jpg,stimuli/objects/048a.jpg,stimuli/objects/114a.jpg,stimuli/objects/048b.jpg,stimuli/objects/114b.jpg,dist1,target,dist2,lure,0,1,1,1,0,37,37,2,,,,,,,530.5151935964823,531.5666838139296,531.5666838139296,531.5666838139296,531.5666838139296,531.5666838139296,531.5666838139296,531.5666838139296,531.5666838139296,531.5666838139296,531.5666838139296,531.5666838139296,531.5666838139296,535.0183192100376,f,3.717781549319625,target,None,531.5666838139296,,,,,,,,,,,,,,ST03_112822,2022-11-29_14h38.57.805,Hippopolis_4AFCT,2022.2.2,60.00589696899818,
Hippopolis,stimuli/subj_files/ST03_112822_cityA.csv,./stimuli/seattle.jpg,./stimuli/street_plate1.png,./stimuli/videos/hippopolis_part1.mp4,PIZSAMA UTCA,stimuli/objects/016a.jpg,object,2,stimuli/scenes/006a.jpg,stimuli/scenes/006b.jpg,stimuli/scenes/116a.jpg,stimuli/scenes/116b.jpg,stimuli/scenes/006a.jpg,lure,dist1,dist2,target,0,1,1,1,0,38,38,46,,,,,,,535.3072114922106,536.3652210272849,536.3652210272849,536.3652210272849,536.3652210272849,536.3652210272849,536.3652210272849,536.3652210272849,536.3652210272849,536.3652210272849,536.3652210272849,536.3652210272849,536.3652210272849,,k,2.695351768285036,target,None,,,,,,,,,,,,,,,ST03_112822,2022-11-29_14h38.57.805,Hippopolis_4AFCT,2022.2.2,60.00589696899818,
Hippopolis,stimuli/subj_files/ST03_112822_cityA.csv,./stimuli/seattle.jpg,./stimuli/street_plate1.png,./stimuli/videos/hippopolis_part1.mp4,ZONGORA UTCA,stimuli/scenes/015a.jpg,scene,1,stimuli/scenes/069a.jpg,stimuli/scenes/069a.jpg,stimuli/scenes/071b.jpg,stimuli/scenes/069b.jpg,stimuli/scenes/071a.jpg,target,dist2,lure,dist1,0,1,1,1,0,39,39,78,,,,,,,539.0860038418323,540.1198453810066,540.1198453810066,540.1198453810066,540.1198453810066,540.1198453810066,540.1198453810066,540.1198453810066,540.1198453810066,540.1198453810066,540.1198453810066,540.1198453810066,540.1198453810066,543.5831966977566,None,,invalid,None,,,,,,,,,,,,,,,ST03_112822,2022-11-29_14h38.57.805,Hippopolis_4AFCT,2022.2.2,60.00589696899818,
Hippopolis,stimuli/subj_files/ST03_112822_cityA.csv,./stimuli/seattle.jpg,./stimuli/street_plate1.png,./stimuli/videos/hippopolis_part1.mp4,SZILVA UTCA,stimuli/objects/011a.jpg,object,2,stimuli/scenes/039a.jpg,stimuli/objects/020a.jpg,stimuli/scenes/039a.jpg,stimuli/scenes/039b.jpg,stimuli/objects/020b.jpg,dist1,target,lure,dist2,0,1,1,1,0,40,40,9,,,,,,,545.0987846497446,546.1614975333214,546.1614975333214,546.1614975333214,546.1614975333214,546.1614975333214,546.1614975333214,546.1614975333214,546.1614975333214,546.1614975333214,546.1614975333214,546.1614975333214,546.1614975333214,549.5989354886115,d,3.5706497114151716,dist1,None,,,,,,,,,,,,,,,ST03_112822,2022-11-29_14h38.57.805,Hippopolis_4AFCT,2022.2.2,60.00589696899818,
Hippopolis,stimuli/subj_files/ST03_112822_cityA.csv,./stimuli/seattle.jpg,./stimuli/street_plate1.png,./stimuli/videos/hippopolis_part1.mp4,KÖMÉNYMAG UTCA,stimuli/scenes/068a.jpg,scene,1,stimuli/scenes/066a.jpg,stimuli/scenes/066b.jpg,stimuli/objects/114a.jpg,stimuli/objects/114b.jpg,stimuli/scenes/066a.jpg,lure,dist1,dist2,target,0,1,1,1,0,41,41,8,,,,,,,549.7512617539614,550.7921992130578,550.7921992130578,550.7921992130578,550.7921992130578,550.7921992130578,550.7921992130578,550.7921992130578,550.7921992130578,550.7921992130578,550.7921992130578,550.7921992130578,550.7921992130578,,k,2.1566028594970703,target,None,,,,,,,,,,,,,,,ST03_112822,2022-11-29_14h38.57.805,Hippopolis_4AFCT,2022.2.2,60.00589696899818,
Hippopolis,stimuli/subj_files/ST03_112822_cityA.csv,./stimuli/seattle.jpg,./stimuli/street_plate1.png,./stimuli/videos/hippopolis_part1.mp4,MARTINI UTCA,stimuli/scenes/077a.jpg,scene,0,stimuli/scenes/077a.jpg,stimuli/scenes/077a.jpg,stimuli/scenes/010b.jpg,stimuli/scenes/077b.jpg,stimuli/scenes/010a.jpg,target,dist2,lure,dist1,0,1,1,1,0,42,42,19,,,,,,,552.9683519899845,554.0231727752835,554.0231727752835,554.0231727752835,554.0231727752835,554.0231727752835,554.0231727752835,554.0231727752835,554.0231727752835,554.0231727752835,554.0231727752835,554.0231727752835,554.0231727752835,,d,2.381141697987914,target,None,,,,,,,,,,,,,,,ST03_112822,2022-11-29_14h38.57.805,Hippopolis_4AFCT,2022.2.2,60.00589696899818,
Hippopolis,stimuli/subj_files/ST03_112822_cityA.csv,./stimuli/seattle.jpg,./stimuli/street_plate1.png,./stimuli/videos/hippopolis_part1.mp4,ÜVEG UTCA,stimuli/scenes/065a.jpg,scene,2,stimuli/objects/050a.jpg,stimuli/objects/050a.jpg,stimuli/objects/050b.jpg,stimuli/objects/015b.jpg,stimuli/objects/015a.jpg,target,lure,dist2,dist1,0,1,1,1,0,43,43,10,,,,,,,556.4305964354426,557.4909385181963,557.4909385181963,557.4909385181963,557.4909385181963,557.4909385181963,557.4909385181963,557.4909385181963,557.4909385181963,557.4909385181963,557.4909385181963,557.4909385181963,557.4909385181963,,f,2.7377686835825443,lure,None,,,,,,,,,,,,,,,ST03_112822,2022-11-29_14h38.57.805,Hippopolis_4AFCT,2022.2.2,60.00589696899818,
Hippopolis,stimuli/subj_files/ST03_112822_cityA.csv,./stimuli/seattle.jpg,./stimuli/street_plate1.png,./stimuli/videos/hippopolis_part1.mp4,SÜTEMÉNY UTCA,stimuli/scenes/072a.jpg,scene,2,stimuli/objects/025a.jpg,stimuli/objects/025a.jpg,stimuli/objects/025b.jpg,stimuli/objects/031b.jpg,stimuli/objects/031a.jpg,target,lure,dist2,dist1,0,1,1,1,0,44,44,25,,,,,,,560.2591678462923,561.320047037676,561.320047037676,561.320047037676,561.320047037676,561.320047037676,561.320047037676,561.320047037676,561.320047037676,561.320047037676,561.320047037676,561.320047037676,561.320047037676,,d,2.5561260245740414,target,space,,563.9157088715583,563.9157088715583,1.7207152713090181,,,,,,,,,,,ST03_112822,2022-11-29_14h38.57.805,Hippopolis_4AFCT,2022.2.2,60.00589696899818,
Hippopolis,stimuli/subj_files/ST03_112822_cityA.csv,./stimuli/seattle.jpg,./stimuli/street_plate1.png,./stimuli/videos/hippopolis_part1.mp4,KATONA UTCA,stimuli/objects/091a.jpg,object,0,stimuli/objects/091a.jpg,stimuli/objects/091a.jpg,stimuli/objects/091b.jpg,stimuli/objects/085a.jpg,stimuli/objects/085b.jpg,target,lure,dist1,dist2,0,1,1,1,0,45,45,77,,,,,,,565.664975207299,566.7404427733272,566.7404427733272,566.7404427733272,566.7404427733272,566.7404427733272,566.7404427733272,566.7404427733272,566.7404427733272,566.7404427733272,566.7404427733272,566.7404427733272,566.7404427733272,,d,2.143562050536275,target,None,,,,,,,,,,,,,,,ST03_112822,2022-11-29_14h38.57.805,Hippopolis_4AFCT,2022.2.2,60.00589696899818,
Hippopolis,stimuli/subj_files/ST03_112822_cityA.csv,./stimuli/seattle.jpg,./stimuli/street_plate1.png,./stimuli/videos/hippopolis_part1.mp4,TÁNYÉR UTCA,stimuli/scenes/067a.jpg,scene,0,stimuli/scenes/067a.jpg,stimuli/objects/042a.jpg,stimuli/objects/042b.jpg,stimuli/scenes/067b.jpg,stimuli/scenes/067a.jpg,dist1,dist2,lure,target,0,1,1,1,0,46,46,59,,,,,,,568.9011136516929,569.9561882186681,569.9561882186681,569.9561882186681,569.9561882186681,569.9561882186681,569.9561882186681,569.9561882186681,569.9561882186681,569.9561882186681,569.9561882186681,569.9561882186681,569.9561882186681,,k,1.8559221904724836,target,None,,,,,,,,,,,,,,,ST03_112822,2022-11-29_14h38.57.805,Hippopolis_4AFCT,2022.2.2,60.00589696899818,
Hippopolis,stimuli/subj_files/ST03_112822_cityA.csv,./stimuli/seattle.jpg,./stimuli/street_plate1.png,./stimuli/videos/hippopolis_part1.mp4,SZOBOR UTCA,stimuli/scenes/114a.jpg,scene,1,stimuli/scenes/113a.jpg,stimuli/scenes/113a.jpg,stimuli/objects/023a.jpg,stimuli/objects/023b.jpg,stimuli/scenes/113b.jpg,target,dist1,dist2,lure,0,1,1,1,0,47,47,70,,,,,,,571.8320291806012,572.9053243678063,572.9053243678063,572.9053243678063,572.9053243678063,572.9053243678063,572.9053243678063,572.9053243678063,572.9053243678063,572.9053243678063,572.9053243678063,572.9053243678063,572.9053243678063,,d,1.9945343174040318,target,None,,,,,,,,,,,,,,,ST03_112822,2022-11-29_14h38.57.805,Hippopolis_4AFCT,2022.2.2,60.00589696899818,
Hippopolis,stimuli/subj_files/ST03_112822_cityA.csv,./stimuli/seattle.jpg,./stimuli/street_plate1.png,./stimuli/videos/hippopolis_part1.mp4,LEVÉL UTCA,stimuli/objects/005a.jpg,object,2,stimuli/scenes/052a.jpg,stimuli/scenes/052a.jpg,stimuli/scenes/026b.jpg,stimuli/scenes/052b.jpg,stimuli/scenes/026a.jpg,target,dist2,lure,dist1,0,1,1,1,0,48,48,21,,,,,,,574.9403477311134,575.9796153977513,575.9796153977513,575.9796153977513,575.9796153977513,575.9796153977513,575.9796153977513,575.9796153977513,575.9796153977513,575.9796153977513,575.9796153977513,575.9796153977513,575.9796153977513,579.4187206570059,k,3.784595051780343,dist1,None,,,,,,,,,,,,,,,ST03_112822,2022-11-29_14h38.57.805,Hippopolis_4AFCT,2022.2.2,60.00589696899818,
Hippopolis,stimuli/subj_files/ST03_112822_cityA.csv,./stimuli/seattle.jpg,./stimuli/street_plate1.png,./stimuli/videos/hippopolis_part1.mp4,FÓKA UTCA,stimuli/scenes/080a.jpg,scene,2,stimuli/objects/086a.jpg,stimuli/objects/086b.jpg,stimuli/objects/086a.jpg,stimuli/scenes/042a.jpg,stimuli/scenes/042b.jpg,lure,target,dist1,dist2,0,1,1,1,0,49,49,6,,,,,,,579.8027242925018,580.883597150445,580.883597150445,580.883597150445,580.883597150445,580.883597150445,580.883597150445,580.883597150445,580.883597150445,580.883597150445,580.883597150445,580.883597150445,580.883597150445,584.3026048652828,d,4.144648706540465,lure,None,,,,,,,,,,,,,,,ST03_112822,2022-11-29_14h38.57.805,Hippopolis_4AFCT,2022.2.2,60.00589696899818,
Hippopolis,stimuli/subj_files/ST03_112822_cityA.csv,./stimuli/seattle.jpg,./stimuli/street_plate1.png,./stimuli/videos/hippopolis_part1.mp4,TULIPÁN UTCA,stimuli/scenes/092a.jpg,scene,2,stimuli/objects/060a.jpg,stimuli/objects/060b.jpg,stimuli/objects/060a.jpg,stimuli/objects/093b.jpg,stimuli/objects/093a.jpg,lure,target,dist2,dist1,0,1,1,1,0,50,50,55,,,,,,,585.0472760815173,586.113589797169,586.113589797169,586.113589797169,586.113589797169,586.113589797169,586.113589797169,586.113589797169,586.113589797169,586.113589797169,586.113589797169,586.113589797169,586.113589797169,,d,2.834174446761608,lure,None,,,,,,,,,,,,,,,ST03_112822,2022-11-29_14h38.57.805,Hippopolis_4AFCT,2022.2.2,60.00589696899818,
Hippopolis,stimuli/subj_files/ST03_112822_cityA.csv,./stimuli/seattle.jpg,./stimuli/street_plate1.png,./stimuli/videos/hippopolis_part1.mp4,KIRAKÓ UTCA,stimuli/scenes/004a.jpg,scene,2,stimuli/objects/071a.jpg,stimuli/objects/071b.jpg,stimuli/scenes/014b.jpg,stimuli/objects/071a.jpg,stimuli/scenes/014a.jpg,lure,dist2,target,dist1,0,1,1,1,0,51,51,37,,,,,,,588.9774063192308,590.0360260475427,590.0360260475427,590.0360260475427,590.0360260475427,590.0360260475427,590.0360260475427,590.0360260475427,590.0360260475427,590.0360260475427,590.0360260475427,590.0360260475427,590.0360260475427,,j,2.9596972465515137,target,None,,,,,,,,,,,,,,,ST03_112822,2022-11-29_14h38.57.805,Hippopolis_4AFCT,2022.2.2,60.00589696899818,
Hippopolis,stimuli/subj_files/ST03_112822_cityA.csv,./stimuli/seattle.jpg,./stimuli/street_plate1.png,./stimuli/videos/hippopolis_part1.mp4,HENTES UTCA,stimuli/scenes/046a.jpg,scene,0,stimuli/scenes/046a.jpg,stimuli/scenes/046b.jpg,stimuli/scenes/046a.jpg,stimuli/scenes/032a.jpg,stimuli/scenes/032b.jpg,lure,target,dist1,dist2,0,1,1,1,0,52,52,62,,,,,,,593.0147333070636,594.0639982745051,594.0639982745051,594.0639982745051,594.0639982745051,594.0639982745051,594.0639982745051,594.0639982745051,594.0639982745051,594.0639982745051,594.0639982745051,594.0639982745051,594.0639982745051,,f,2.6921117026358843,target,None,,,,,,,,,,,,,,,ST03_112822,2022-11-29_14h38.57.805,Hippopolis_4AFCT,2022.2.2,60.00589696899818,
Hippopolis,stimuli/subj_files/ST03_112822_cityA.csv,./stimuli/seattle.jpg,./stimuli/street_plate1.png,./stimuli/videos/hippopolis_part1.mp4,LEMEZ UTCA,stimuli/objects/032a.jpg,object,2,stimuli/scenes/047a.jpg,stimuli/scenes/047b.jpg,stimuli/scenes/047a.jpg,stimuli/objects/050a.jpg,stimuli/objects/050b.jpg,lure,target,dist1,dist2,0,1,1,1,0,53,53,75,,,,,,,596.7902271226048,597.8487389311194,597.8487389311194,597.8487389311194,597.8487389311194,597.8487389311194,597.8487389311194,597.8487389311194,597.8487389311194,597.8487389311194,597.8487389311194,597.8487389311194,597.8487389311194,,f,2.330636126920581,target,None,,,,,,,,,,,,,,,ST03_112822,2022-11-29_14h38.57.805,Hippopolis_4AFCT,2022.2.2,60.00589696899818,
