CityName,StimuliFile,CityImage,StreetSign,VideoFile,Cue,Image,Category,Novelty,UpdateImage,TestImage1,TestImage2,TestImage3,TestImage4,TestImage1Type,TestImage2Type,TestImage3Type,TestImage4Type,CityBlock.thisRepN,CityBlock.thisTrialN,CityBlock.thisN,CityBlock.thisIndex,LearningTrials.thisRepN,LearningTrials.thisTrialN,LearningTrials.thisN,LearningTrials.thisIndex,learning_instructions_text.started,intro_key.started,intro_key.keys,intro_key.rt,cityname_text.started,city_image.started,fx_cross.started,plate.started,city_text.started,street_text.started,fx_cross_prediction.started,plate_updating.started,city_text_updating.started,street_text_updating.started,updating_image.started,short_break_key.keys,fx_cross.stopped,short_break_text.started,short_break_key.started,short_break_key.rt,break_text.started,break_key_resp.started,break_key_resp.keys,break_key_resp.rt,end_text.started,participant,date,expName,psychopyVersion,frameRate,
,,,,,,,,,,,,,,,,,,,,,,,,,,181.2006921134889,181.2006921134889,space,8.139774231240153,,,,,,,,,,,,,,,,,,,,,,ST03_112822,2022-11-29_14h20.36.991,Hippopolis_Updating,2022.2.2,60.01777042595094,
Camponello,stimuli/subj_files/ST03_112822_cityB.csv,./stimuli/arnedillo.png,./stimuli/street_plate2.png,./stimuli/videos/camponello_part1.mp4,GYŰRŰ UTCA,stimuli/objects/040a.jpg,object,0,stimuli/objects/040a.jpg,stimuli/objects/040a.jpg,stimuli/objects/062b.jpg,stimuli/objects/040b.jpg,stimuli/objects/062a.jpg,target,dist2,lure,dist1,0,0,0,0,0,0,0,49,,,,,189.42544648051262,189.42544648051262,192.37678082101047,193.38563019782305,193.38563019782305,193.38563019782305,193.38563019782305,196.39239178784192,196.39239178784192,196.39239178784192,196.39239178784192,None,,,,,,,,,,ST03_112822,2022-11-29_14h20.36.991,Hippopolis_Updating,2022.2.2,60.01777042595094,
Camponello,stimuli/subj_files/ST03_112822_cityB.csv,./stimuli/arnedillo.png,./stimuli/street_plate2.png,./stimuli/videos/camponello_part1.mp4,SZÖCSKE UTCA,stimuli/objects/008a.jpg,object,0,stimuli/objects/008a.jpg,stimuli/objects/008a.jpg,stimuli/scenes/117a.jpg,stimuli/scenes/117b.jpg,stimuli/objects/008b.jpg,target,dist1,dist2,lure,0,0,0,0,0,1,1,56,,,,,,,198.37282171100378,199.3880939912051,199.3880939912051,199.3880939912051,199.3880939912051,202.39681492000818,202.39681492000818,202.39681492000818,202.39681492000818,None,199.3880939912051,,,,,,,,,ST03_112822,2022-11-29_14h20.36.991,Hippopolis_Updating,2022.2.2,60.01777042595094,
Camponello,stimuli/subj_files/ST03_112822_cityB.csv,./stimuli/arnedillo.png,./stimuli/street_plate2.png,./stimuli/videos/camponello_part1.mp4,KORONA UTCA,stimuli/scenes/120a.jpg,scene,0,stimuli/scenes/120a.jpg,stimuli/scenes/120a.jpg,stimuli/scenes/120b.jpg,stimuli/scenes/063b.jpg,stimuli/scenes/063a.jpg,target,lure,dist2,dist1,0,0,0,0,0,2,2,3,,,,,,,204.389662085101,205.40710270032287,205.40710270032287,205.40710270032287,205.40710270032287,208.40771569497883,208.40771569497883,208.40771569497883,208.40771569497883,None,,,,,,,,,,ST03_112822,2022-11-29_14h20.36.991,Hippopolis_Updating,2022.2.2,60.01777042595094,
Camponello,stimuli/subj_files/ST03_112822_cityB.csv,./stimuli/arnedillo.png,./stimuli/street_plate2.png,./stimuli/videos/camponello_part1.mp4,NARANCS UTCA,stimuli/objects/038a.jpg,object,0,stimuli/objects/038a.jpg,stimuli/objects/038b.jpg,stimuli/scenes/019b.jpg,stimuli/objects/038a.jpg,stimuli/scenes/019a.jpg,lure,dist2,target,dist1,0,0,0,0,0,3,3,75,,,,,,,210.3971557840705,211.42289187386632,211.42289187386632,211.42289187386632,211.42289187386632,214.41791701503098,214.41791701503098,214.41791701503098,214.41791701503098,None,,,,,,,,,,ST03_112822,2022-11-29_14h20.36.991,Hippopolis_Updating,2022.2.2,60.01777042595094,
Camponello,stimuli/subj_files/ST03_112822_cityB.csv,./stimuli/arnedillo.png,./stimuli/street_plate2.png,./stimuli/videos/camponello_part1.mp4,HAJÓ UTCA,stimuli/objects/046a.jpg,object,0,stimuli/objects/046a.jpg,stimuli/scenes/078a.jpg,stimuli/objects/046a.jpg,stimuli/objects/046b.jpg,stimuli/scenes/078b.jpg,dist1,target,lure,dist2,0,0,0,0,0,4,4,36,,,,,,,216.39791992679238,217.42314689792693,217.42314689792693,217.42314689792693,217.42314689792693,220.43380944244564,220.43380944244564,220.43380944244564,220.43380944244564,None,,,,,,,,,,ST03_112822,2022-11-29_14h20.36.991,Hippopolis_Updating,2022.2.2,60.01777042595094,
Camponello,stimuli/subj_files/ST03_112822_cityB.csv,./stimuli/arnedillo.png,./stimuli/street_plate2.png,./stimuli/videos/camponello_part1.mp4,TÉRKÉP UTCA,stimuli/scenes/064a.jpg,scene,0,stimuli/scenes/064a.jpg,stimuli/scenes/064b.jpg,stimuli/scenes/023b.jpg,stimuli/scenes/064a.jpg,stimuli/scenes/023a.jpg,lure,dist2,target,dist1,0,0,0,0,0,5,5,11,,,,,,,222.40615537576377,223.42132191359997,223.42132191359997,223.42132191359997,223.42132191359997,226.42748232744634,226.42748232744634,226.42748232744634,226.42748232744634,None,,,,,,,,,,ST03_112822,2022-11-29_14h20.36.991,Hippopolis_Updating,2022.2.2,60.01777042595094,
Camponello,stimuli/subj_files/ST03_112822_cityB.csv,./stimuli/arnedillo.png,./stimuli/street_plate2.png,./stimuli/videos/camponello_part1.mp4,TISZTÁS UTCA,stimuli/scenes/095a.jpg,scene,0,stimuli/scenes/095a.jpg,stimuli/scenes/095a.jpg,stimuli/scenes/095b.jpg,stimuli/objects/078a.jpg,stimuli/objects/078b.jpg,target,lure,dist1,dist2,0,0,0,0,0,6,6,32,,,,,,,228.41804639436305,229.4357199538499,229.4357199538499,229.4357199538499,229.4357199538499,232.4385470021516,232.4385470021516,232.4385470021516,232.4385470021516,None,,,,,,,,,,ST03_112822,2022-11-29_14h20.36.991,Hippopolis_Updating,2022.2.2,60.01777042595094,
Camponello,stimuli/subj_files/ST03_112822_cityB.csv,./stimuli/arnedillo.png,./stimuli/street_plate2.png,./stimuli/videos/camponello_part1.mp4,KAKAS UTCA,stimuli/objects/081a.jpg,object,0,stimuli/objects/081a.jpg,stimuli/objects/081b.jpg,stimuli/scenes/021b.jpg,stimuli/scenes/021a.jpg,stimuli/objects/081a.jpg,lure,dist2,dist1,target,0,0,0,0,0,7,7,57,,,,,,,234.43443580903113,235.45220826938748,235.45220826938748,235.45220826938748,235.45220826938748,238.4630300477147,238.4630300477147,238.4630300477147,238.4630300477147,None,,,,,,,,,,ST03_112822,2022-11-29_14h20.36.991,Hippopolis_Updating,2022.2.2,60.01777042595094,
Camponello,stimuli/subj_files/ST03_112822_cityB.csv,./stimuli/arnedillo.png,./stimuli/street_plate2.png,./stimuli/videos/camponello_part1.mp4,SUGÁR UTCA,stimuli/scenes/036a.jpg,scene,0,stimuli/scenes/036a.jpg,stimuli/objects/097a.jpg,stimuli/scenes/036a.jpg,stimuli/scenes/036b.jpg,stimuli/objects/097b.jpg,dist1,target,lure,dist2,0,0,0,0,0,8,8,51,,,,,,,240.44391217269003,241.45260760188103,241.45260760188103,241.45260760188103,241.45260760188103,244.47339184768498,244.47339184768498,244.47339184768498,244.47339184768498,None,,,,,,,,,,ST03_112822,2022-11-29_14h20.36.991,Hippopolis_Updating,2022.2.2,60.01777042595094,
Camponello,stimuli/subj_files/ST03_112822_cityB.csv,./stimuli/arnedillo.png,./stimuli/street_plate2.png,./stimuli/videos/camponello_part1.mp4,MAJOM UTCA,stimuli/objects/083a.jpg,object,0,stimuli/objects/083a.jpg,stimuli/objects/083b.jpg,stimuli/scenes/002b.jpg,stimuli/scenes/002a.jpg,stimuli/objects/083a.jpg,lure,dist2,dist1,target,0,0,0,0,0,9,9,29,,,,,,,246.45109859853983,247.47656504623592,247.47656504623592,247.47656504623592,247.47656504623592,250.47565130889416,250.47565130889416,250.47565130889416,250.47565130889416,None,,,,,,,,,,ST03_112822,2022-11-29_14h20.36.991,Hippopolis_Updating,2022.2.2,60.01777042595094,
Camponello,stimuli/subj_files/ST03_112822_cityB.csv,./stimuli/arnedillo.png,./stimuli/street_plate2.png,./stimuli/videos/camponello_part1.mp4,PULÓVER UTCA,stimuli/objects/007a.jpg,object,0,stimuli/objects/007a.jpg,stimuli/scenes/103b.jpg,stimuli/objects/007b.jpg,stimuli/objects/007a.jpg,stimuli/scenes/103a.jpg,dist2,lure,target,dist1,0,0,0,0,0,10,10,39,,,,,,,252.45751714892685,253.47665710374713,253.47665710374713,253.47665710374713,253.47665710374713,256.4899056646973,256.4899056646973,256.4899056646973,256.4899056646973,None,,,,,,,,,,ST03_112822,2022-11-29_14h20.36.991,Hippopolis_Updating,2022.2.2,60.01777042595094,
Camponello,stimuli/subj_files/ST03_112822_cityB.csv,./stimuli/arnedillo.png,./stimuli/street_plate2.png,./stimuli/videos/camponello_part1.mp4,MOSODA UTCA,stimuli/scenes/040a.jpg,scene,2,stimuli/objects/077a.jpg,stimuli/objects/077a.jpg,stimuli/objects/077b.jpg,stimuli/scenes/005a.jpg,stimuli/scenes/005b.jpg,target,lure,dist1,dist2,0,0,0,0,0,11,11,65,,,,,,,258.4600922819227,259.47748344764113,259.47748344764113,259.47748344764113,259.47748344764113,262.49224971979856,262.49224971979856,262.49224971979856,262.49224971979856,None,,,,,,,,,,ST03_112822,2022-11-29_14h20.36.991,Hippopolis_Updating,2022.2.2,60.01777042595094,
Camponello,stimuli/subj_files/ST03_112822_cityB.csv,./stimuli/arnedillo.png,./stimuli/street_plate2.png,./stimuli/videos/camponello_part1.mp4,SZIKLA UTCA,stimuli/objects/021a.jpg,object,2,stimuli/scenes/005a.jpg,stimuli/scenes/054a.jpg,stimuli/scenes/005b.jpg,stimuli/scenes/005a.jpg,stimuli/scenes/054b.jpg,dist1,lure,target,dist2,0,0,0,0,0,12,12,24,,,,,,,264.4645207002759,265.4822266064584,265.4822266064584,265.4822266064584,265.4822266064584,268.49356683157384,268.49356683157384,268.49356683157384,268.49356683157384,None,,,,,,,,,,ST03_112822,2022-11-29_14h20.36.991,Hippopolis_Updating,2022.2.2,60.01777042595094,
Camponello,stimuli/subj_files/ST03_112822_cityB.csv,./stimuli/arnedillo.png,./stimuli/street_plate2.png,./stimuli/videos/camponello_part1.mp4,SZAXOFON UTCA,stimuli/scenes/117a.jpg,scene,0,stimuli/scenes/117a.jpg,stimuli/objects/028a.jpg,stimuli/scenes/117a.jpg,stimuli/objects/028b.jpg,stimuli/scenes/117b.jpg,dist1,target,dist2,lure,0,0,0,0,0,13,13,4,,,,,,,270.4730833284557,271.48851017840207,271.48851017840207,271.48851017840207,271.48851017840207,274.5057878289372,274.5057878289372,274.5057878289372,274.5057878289372,None,271.48851017840207,,,,,,,,,ST03_112822,2022-11-29_14h20.36.991,Hippopolis_Updating,2022.2.2,60.01777042595094,
Camponello,stimuli/subj_files/ST03_112822_cityB.csv,./stimuli/arnedillo.png,./stimuli/street_plate2.png,./stimuli/videos/camponello_part1.mp4,KRÉTA UTCA,stimuli/objects/108a.jpg,object,0,stimuli/objects/108a.jpg,stimuli/objects/108b.jpg,stimuli/objects/029a.jpg,stimuli/objects/029b.jpg,stimuli/objects/108a.jpg,lure,dist1,dist2,target,0,0,0,0,0,14,14,54,,,,,,,276.47945429570973,277.50416499748826,277.50416499748826,277.50416499748826,277.50416499748826,280.51340095326304,280.51340095326304,280.51340095326304,280.51340095326304,None,,,,,,,,,,ST03_112822,2022-11-29_14h20.36.991,Hippopolis_Updating,2022.2.2,60.01777042595094,
Camponello,stimuli/subj_files/ST03_112822_cityB.csv,./stimuli/arnedillo.png,./stimuli/street_plate2.png,./stimuli/videos/camponello_part1.mp4,TORONY UTCA,stimuli/objects/061a.jpg,object,0,stimuli/objects/061a.jpg,stimuli/objects/061b.jpg,stimuli/objects/061a.jpg,stimuli/scenes/112b.jpg,stimuli/scenes/112a.jpg,lure,target,dist2,dist1,0,0,0,0,0,15,15,14,,,,,,,282.48087435029447,283.50407573767006,283.50407573767006,283.50407573767006,283.50407573767006,286.516115417704,286.516115417704,286.516115417704,286.516115417704,None,,,,,,,,,,ST03_112822,2022-11-29_14h20.36.991,Hippopolis_Updating,2022.2.2,60.01777042595094,
Camponello,stimuli/subj_files/ST03_112822_cityB.csv,./stimuli/arnedillo.png,./stimuli/street_plate2.png,./stimuli/videos/camponello_part1.mp4,POLIP UTCA,stimuli/objects/101a.jpg,object,1,stimuli/objects/080a.jpg,stimuli/objects/049a.jpg,stimuli/objects/080a.jpg,stimuli/objects/080b.jpg,stimuli/objects/049b.jpg,dist1,target,lure,dist2,0,0,0,0,0,16,16,50,,,,,,,288.4937904458493,289.512171857059,289.512171857059,289.512171857059,289.512171857059,292.54057109355927,292.54057109355927,292.54057109355927,292.54057109355927,None,,,,,,,,,,ST03_112822,2022-11-29_14h20.36.991,Hippopolis_Updating,2022.2.2,60.01777042595094,
Camponello,stimuli/subj_files/ST03_112822_cityB.csv,./stimuli/arnedillo.png,./stimuli/street_plate2.png,./stimuli/videos/camponello_part1.mp4,KAKAÓ UTCA,stimuli/objects/045a.jpg,object,0,stimuli/objects/045a.jpg,stimuli/objects/045b.jpg,stimuli/scenes/055b.jpg,stimuli/objects/045a.jpg,stimuli/scenes/055a.jpg,lure,dist2,target,dist1,0,0,0,0,0,17,17,25,,,,,,,294.49909279309213,295.5104414168745,295.5104414168745,295.5104414168745,295.5104414168745,298.5210128352046,298.5210128352046,298.5210128352046,298.5210128352046,None,,,,,,,,,,ST03_112822,2022-11-29_14h20.36.991,Hippopolis_Updating,2022.2.2,60.01777042595094,
Camponello,stimuli/subj_files/ST03_112822_cityB.csv,./stimuli/arnedillo.png,./stimuli/street_plate2.png,./stimuli/videos/camponello_part1.mp4,TALICSKA UTCA,stimuli/scenes/019a.jpg,scene,0,stimuli/scenes/019a.jpg,stimuli/scenes/019b.jpg,stimuli/scenes/019a.jpg,stimuli/objects/108b.jpg,stimuli/objects/108a.jpg,lure,target,dist2,dist1,0,0,0,0,0,18,18,10,,,,,,,300.5118020698428,301.53523671254516,301.53523671254516,301.53523671254516,301.53523671254516,304.54091413505375,304.54091413505375,304.54091413505375,304.54091413505375,None,,,,,,,,,,ST03_112822,2022-11-29_14h20.36.991,Hippopolis_Updating,2022.2.2,60.01777042595094,
Camponello,stimuli/subj_files/ST03_112822_cityB.csv,./stimuli/arnedillo.png,./stimuli/street_plate2.png,./stimuli/videos/camponello_part1.mp4,PADLÓ UTCA,stimuli/scenes/008a.jpg,scene,1,stimuli/scenes/028a.jpg,stimuli/scenes/028a.jpg,stimuli/scenes/084b.jpg,stimuli/scenes/084a.jpg,stimuli/scenes/028b.jpg,target,dist2,dist1,lure,0,0,0,0,0,19,19,1,,,,,,,306.5170941539109,307.5289693120867,307.5289693120867,307.5289693120867,307.5289693120867,310.5648022238165,310.5648022238165,310.5648022238165,310.5648022238165,None,,,,,,,,,,ST03_112822,2022-11-29_14h20.36.991,Hippopolis_Updating,2022.2.2,60.01777042595094,
Camponello,stimuli/subj_files/ST03_112822_cityB.csv,./stimuli/arnedillo.png,./stimuli/street_plate2.png,./stimuli/videos/camponello_part1.mp4,REPÜLŐ UTCA,stimuli/objects/022a.jpg,object,0,stimuli/objects/022a.jpg,stimuli/objects/022a.jpg,stimuli/scenes/050a.jpg,stimuli/objects/022b.jpg,stimuli/scenes/050b.jpg,target,dist1,lure,dist2,0,0,0,0,0,20,20,61,,,,,,,312.5235901456326,313.5425108410418,313.5425108410418,313.5425108410418,313.5425108410418,316.5576895084232,316.5576895084232,316.5576895084232,316.5576895084232,None,,,,,,,,,,ST03_112822,2022-11-29_14h20.36.991,Hippopolis_Updating,2022.2.2,60.01777042595094,
Camponello,stimuli/subj_files/ST03_112822_cityB.csv,./stimuli/arnedillo.png,./stimuli/street_plate2.png,./stimuli/videos/camponello_part1.mp4,KECSKE UTCA,stimuli/objects/095a.jpg,object,0,stimuli/objects/095a.jpg,stimuli/objects/079a.jpg,stimuli/objects/095b.jpg,stimuli/objects/095a.jpg,stimuli/objects/079b.jpg,dist1,lure,target,dist2,0,0,0,0,0,21,21,45,,,,,,,318.53064905665815,319.5545772667974,319.5545772667974,319.5545772667974,319.5545772667974,322.55195268429816,322.55195268429816,322.55195268429816,322.55195268429816,None,,,,,,,,,,ST03_112822,2022-11-29_14h20.36.991,Hippopolis_Updating,2022.2.2,60.01777042595094,
Camponello,stimuli/subj_files/ST03_112822_cityB.csv,./stimuli/arnedillo.png,./stimuli/street_plate2.png,./stimuli/videos/camponello_part1.mp4,HARMONIKA UTCA,stimuli/objects/112a.jpg,object,0,stimuli/objects/112a.jpg,stimuli/objects/081b.jpg,stimuli/objects/112b.jpg,stimuli/objects/081a.jpg,stimuli/objects/112a.jpg,dist2,lure,dist1,target,0,0,0,0,0,22,22,63,,,,,,,324.53871687315404,325.559519469738,325.559519469738,325.559519469738,325.559519469738,328.5800166577101,328.5800166577101,328.5800166577101,328.5800166577101,None,,,,,,,,,,ST03_112822,2022-11-29_14h20.36.991,Hippopolis_Updating,2022.2.2,60.01777042595094,
Camponello,stimuli/subj_files/ST03_112822_cityB.csv,./stimuli/arnedillo.png,./stimuli/street_plate2.png,./stimuli/videos/camponello_part1.mp4,AKÁC UTCA,stimuli/scenes/058a.jpg,scene,0,stimuli/scenes/058a.jpg,stimuli/scenes/058b.jpg,stimuli/objects/104a.jpg,stimuli/objects/104b.jpg,stimuli/scenes/058a.jpg,lure,dist1,dist2,target,0,0,0,0,0,23,23,16,,,,,,,330.55006487481296,331.5674921181053,331.5674921181053,331.5674921181053,331.5674921181053,334.57263989560306,334.57263989560306,334.57263989560306,334.57263989560306,None,,,,,,,,,,ST03_112822,2022-11-29_14h20.36.991,Hippopolis_Updating,2022.2.2,60.01777042595094,
Camponello,stimuli/subj_files/ST03_112822_cityB.csv,./stimuli/arnedillo.png,./stimuli/street_plate2.png,./stimuli/videos/camponello_part1.mp4,ZÁSZLÓ UTCA,stimuli/objects/062a.jpg,object,0,stimuli/objects/062a.jpg,stimuli/scenes/044b.jpg,stimuli/objects/062a.jpg,stimuli/scenes/044a.jpg,stimuli/objects/062b.jpg,dist2,target,dist1,lure,0,0,0,0,0,24,24,64,,,,,,,336.55156890302896,337.56305250152946,337.56305250152946,337.56305250152946,337.56305250152946,340.592776004225,340.592776004225,340.592776004225,340.592776004225,None,,,,,,,,,,ST03_112822,2022-11-29_14h20.36.991,Hippopolis_Updating,2022.2.2,60.01777042595094,
Camponello,stimuli/subj_files/ST03_112822_cityB.csv,./stimuli/arnedillo.png,./stimuli/street_plate2.png,./stimuli/videos/camponello_part1.mp4,HORGONY UTCA,stimuli/scenes/048a.jpg,scene,2,stimuli/objects/074a.jpg,stimuli/objects/077a.jpg,stimuli/objects/074a.jpg,stimuli/objects/074b.jpg,stimuli/objects/077b.jpg,dist1,target,lure,dist2,0,0,0,0,0,25,25,68,,,,,,,342.5571234766394,343.58375339768827,343.58375339768827,343.58375339768827,343.58375339768827,346.57861153036356,346.57861153036356,346.57861153036356,346.57861153036356,None,,,,,,,,,,ST03_112822,2022-11-29_14h20.36.991,Hippopolis_Updating,2022.2.2,60.01777042595094,
Camponello,stimuli/subj_files/ST03_112822_cityB.csv,./stimuli/arnedillo.png,./stimuli/street_plate2.png,./stimuli/videos/camponello_part1.mp4,VITORLA UTCA,stimuli/objects/059a.jpg,object,2,stimuli/scenes/087a.jpg,stimuli/objects/030a.jpg,stimuli/scenes/087b.jpg,stimuli/objects/030b.jpg,stimuli/scenes/087a.jpg,dist1,lure,dist2,target,0,0,0,0,0,26,26,41,,,,,,,348.5713775213808,349.58954091742635,349.58954091742635,349.58954091742635,349.58954091742635,352.5918544922024,352.5918544922024,352.5918544922024,352.5918544922024,None,349.58954091742635,,,,,,,,,ST03_112822,2022-11-29_14h20.36.991,Hippopolis_Updating,2022.2.2,60.01777042595094,
Camponello,stimuli/subj_files/ST03_112822_cityB.csv,./stimuli/arnedillo.png,./stimuli/street_plate2.png,./stimuli/videos/camponello_part1.mp4,KOKTÉL UTCA,stimuli/scenes/112a.jpg,scene,0,stimuli/scenes/112a.jpg,stimuli/scenes/112b.jpg,stimuli/scenes/101b.jpg,stimuli/scenes/112a.jpg,stimuli/scenes/101a.jpg,lure,dist2,target,dist1,0,0,0,0,0,27,27,66,,,,,,,354.5723379086703,355.59905118122697,355.59905118122697,355.59905118122697,355.59905118122697,358.59753160364926,358.59753160364926,358.59753160364926,358.59753160364926,None,,,,,,,,,,ST03_112822,2022-11-29_14h20.36.991,Hippopolis_Updating,2022.2.2,60.01777042595094,
Camponello,stimuli/subj_files/ST03_112822_cityB.csv,./stimuli/arnedillo.png,./stimuli/street_plate2.png,./stimuli/videos/camponello_part1.mp4,FIÓK UTCA,stimuli/scenes/103a.jpg,scene,0,stimuli/scenes/103a.jpg,stimuli/scenes/103b.jpg,stimuli/scenes/103a.jpg,stimuli/objects/112a.jpg,stimuli/objects/112b.jpg,lure,target,dist1,dist2,0,0,0,0,0,28,28,73,,,,,,,360.57935545779765,361.6028731390834,361.6028731390834,361.6028731390834,361.6028731390834,364.6135375481099,364.6135375481099,364.6135375481099,364.6135375481099,None,,,,,,,,,,ST03_112822,2022-11-29_14h20.36.991,Hippopolis_Updating,2022.2.2,60.01777042595094,
Camponello,stimuli/subj_files/ST03_112822_cityB.csv,./stimuli/arnedillo.png,./stimuli/street_plate2.png,./stimuli/videos/camponello_part1.mp4,MÁLNA UTCA,stimuli/objects/010a.jpg,object,1,stimuli/objects/053a.jpg,stimuli/objects/053b.jpg,stimuli/objects/053a.jpg,stimuli/objects/080b.jpg,stimuli/objects/080a.jpg,lure,target,dist2,dist1,0,0,0,0,0,29,29,62,,,,,,,366.59545159339905,367.6238853521645,367.6238853521645,367.6238853521645,367.6238853521645,370.63794221915305,370.63794221915305,370.63794221915305,370.63794221915305,None,,,,,,,,,,ST03_112822,2022-11-29_14h20.36.991,Hippopolis_Updating,2022.2.2,60.01777042595094,
Camponello,stimuli/subj_files/ST03_112822_cityB.csv,./stimuli/arnedillo.png,./stimuli/street_plate2.png,./stimuli/videos/camponello_part1.mp4,LAKAT UTCA,stimuli/objects/120a.jpg,object,0,stimuli/objects/120a.jpg,stimuli/scenes/064a.jpg,stimuli/scenes/064b.jpg,stimuli/objects/120b.jpg,stimuli/objects/120a.jpg,dist1,dist2,lure,target,0,0,0,0,0,30,30,59,,,,,,,372.6105226520449,373.6336829867214,373.6336829867214,373.6336829867214,373.6336829867214,376.63245886564255,376.63245886564255,376.63245886564255,376.63245886564255,None,,,,,,,,,,ST03_112822,2022-11-29_14h20.36.991,Hippopolis_Updating,2022.2.2,60.01777042595094,
Camponello,stimuli/subj_files/ST03_112822_cityB.csv,./stimuli/arnedillo.png,./stimuli/street_plate2.png,./stimuli/videos/camponello_part1.mp4,ORVOS UTCA,stimuli/scenes/063a.jpg,scene,0,stimuli/scenes/063a.jpg,stimuli/scenes/063b.jpg,stimuli/objects/120a.jpg,stimuli/scenes/063a.jpg,stimuli/objects/120b.jpg,lure,dist1,target,dist2,0,0,0,0,0,31,31,23,,,,,,,378.61288909986615,379.6370415445417,379.6370415445417,379.6370415445417,379.6370415445417,382.64634623378515,382.64634623378515,382.64634623378515,382.64634623378515,None,,,,,,,,,,ST03_112822,2022-11-29_14h20.36.991,Hippopolis_Updating,2022.2.2,60.01777042595094,
Camponello,stimuli/subj_files/ST03_112822_cityB.csv,./stimuli/arnedillo.png,./stimuli/street_plate2.png,./stimuli/videos/camponello_part1.mp4,PAPUCS UTCA,stimuli/scenes/038a.jpg,scene,0,stimuli/scenes/038a.jpg,stimuli/scenes/038a.jpg,stimuli/scenes/038b.jpg,stimuli/objects/076b.jpg,stimuli/objects/076a.jpg,target,lure,dist2,dist1,0,0,0,0,0,32,32,71,,,,,,,384.62856382131577,385.63850234262645,385.63850234262645,385.63850234262645,385.63850234262645,388.6603377889842,388.6603377889842,388.6603377889842,388.6603377889842,None,,,,,,,,,,ST03_112822,2022-11-29_14h20.36.991,Hippopolis_Updating,2022.2.2,60.01777042595094,
Camponello,stimuli/subj_files/ST03_112822_cityB.csv,./stimuli/arnedillo.png,./stimuli/street_plate2.png,./stimuli/videos/camponello_part1.mp4,BAGOLY UTCA,stimuli/objects/014a.jpg,object,2,stimuli/scenes/054a.jpg,stimuli/objects/105a.jpg,stimuli/scenes/054b.jpg,stimuli/scenes/054a.jpg,stimuli/objects/105b.jpg,dist1,lure,target,dist2,0,0,0,0,0,33,33,17,,,,,,,390.63720513507724,391.66347988694906,391.66347988694906,391.66347988694906,391.66347988694906,394.67539578676224,394.67539578676224,394.67539578676224,394.67539578676224,None,,,,,,,,,,ST03_112822,2022-11-29_14h20.36.991,Hippopolis_Updating,2022.2.2,60.01777042595094,
Camponello,stimuli/subj_files/ST03_112822_cityB.csv,./stimuli/arnedillo.png,./stimuli/street_plate2.png,./stimuli/videos/camponello_part1.mp4,ÁLLOMÁS UTCA,stimuli/scenes/061a.jpg,scene,0,stimuli/scenes/061a.jpg,stimuli/scenes/061a.jpg,stimuli/scenes/061b.jpg,stimuli/scenes/036a.jpg,stimuli/scenes/036b.jpg,target,lure,dist1,dist2,0,0,0,0,0,34,34,47,,,,,,,396.64599883928895,397.6693392470479,397.6693392470479,397.6693392470479,397.6693392470479,400.6676019653678,400.6676019653678,400.6676019653678,400.6676019653678,None,,,,,,,,,,ST03_112822,2022-11-29_14h20.36.991,Hippopolis_Updating,2022.2.2,60.01777042595094,
Camponello,stimuli/subj_files/ST03_112822_cityB.csv,./stimuli/arnedillo.png,./stimuli/street_plate2.png,./stimuli/videos/camponello_part1.mp4,VÖDÖR UTCA,stimuli/scenes/045a.jpg,scene,1,stimuli/scenes/111a.jpg,stimuli/scenes/111b.jpg,stimuli/scenes/108b.jpg,stimuli/scenes/111a.jpg,stimuli/scenes/108a.jpg,lure,dist2,target,dist1,0,0,0,0,0,35,35,67,,,,,,,402.660827934742,403.669077379629,403.669077379629,403.669077379629,403.669077379629,406.7046266552061,406.7046266552061,406.7046266552061,406.7046266552061,None,,,,,,,,,,ST03_112822,2022-11-29_14h20.36.991,Hippopolis_Updating,2022.2.2,60.01777042595094,
Camponello,stimuli/subj_files/ST03_112822_cityB.csv,./stimuli/arnedillo.png,./stimuli/street_plate2.png,./stimuli/videos/camponello_part1.mp4,MUNKA UTCA,stimuli/objects/082a.jpg,object,2,stimuli/scenes/016a.jpg,stimuli/scenes/087b.jpg,stimuli/scenes/016b.jpg,stimuli/scenes/016a.jpg,stimuli/scenes/087a.jpg,dist2,lure,target,dist1,0,0,0,0,0,36,36,18,,,,,,,408.66253100708127,409.68677799776196,409.68677799776196,409.68677799776196,409.68677799776196,412.6886144913733,412.6886144913733,412.6886144913733,412.6886144913733,None,,,,,,,,,,ST03_112822,2022-11-29_14h20.36.991,Hippopolis_Updating,2022.2.2,60.01777042595094,
Camponello,stimuli/subj_files/ST03_112822_cityB.csv,./stimuli/arnedillo.png,./stimuli/street_plate2.png,./stimuli/videos/camponello_part1.mp4,TOLMÁCS UTCA,stimuli/scenes/078a.jpg,scene,0,stimuli/scenes/078a.jpg,stimuli/scenes/078b.jpg,stimuli/objects/110a.jpg,stimuli/scenes/078a.jpg,stimuli/objects/110b.jpg,lure,dist1,target,dist2,0,0,0,0,0,37,37,52,,,,,,,414.67076334543526,415.6980003528297,415.6980003528297,415.6980003528297,415.6980003528297,418.69504330307245,418.69504330307245,418.69504330307245,418.69504330307245,None,,,,,,,,,,ST03_112822,2022-11-29_14h20.36.991,Hippopolis_Updating,2022.2.2,60.01777042595094,
Camponello,stimuli/subj_files/ST03_112822_cityB.csv,./stimuli/arnedillo.png,./stimuli/street_plate2.png,./stimuli/videos/camponello_part1.mp4,SIVATAG UTCA,stimuli/objects/119a.jpg,object,0,stimuli/objects/119a.jpg,stimuli/objects/119b.jpg,stimuli/scenes/120a.jpg,stimuli/objects/119a.jpg,stimuli/scenes/120b.jpg,lure,dist1,target,dist2,0,0,0,0,0,38,38,8,,,,,,,420.6726747918874,421.6820276863873,421.6820276863873,421.6820276863873,421.6820276863873,424.7080471031368,424.7080471031368,424.7080471031368,424.7080471031368,None,,,,,,,,,,ST03_112822,2022-11-29_14h20.36.991,Hippopolis_Updating,2022.2.2,60.01777042595094,
Camponello,stimuli/subj_files/ST03_112822_cityB.csv,./stimuli/arnedillo.png,./stimuli/street_plate2.png,./stimuli/videos/camponello_part1.mp4,SZŐLŐ UTCA,stimuli/scenes/007a.jpg,scene,0,stimuli/scenes/007a.jpg,stimuli/scenes/073b.jpg,stimuli/scenes/007a.jpg,stimuli/scenes/073a.jpg,stimuli/scenes/007b.jpg,dist2,target,dist1,lure,0,0,0,0,0,39,39,22,,,,,,,426.68943648040295,427.71627197787166,427.71627197787166,427.71627197787166,427.71627197787166,430.72768591344357,430.72768591344357,430.72768591344357,430.72768591344357,None,,,,,,,,,,ST03_112822,2022-11-29_14h20.36.991,Hippopolis_Updating,2022.2.2,60.01777042595094,
Camponello,stimuli/subj_files/ST03_112822_cityB.csv,./stimuli/arnedillo.png,./stimuli/street_plate2.png,./stimuli/videos/camponello_part1.mp4,ASZTAL UTCA,stimuli/scenes/062a.jpg,scene,2,stimuli/objects/111a.jpg,stimuli/scenes/049a.jpg,stimuli/objects/111a.jpg,stimuli/objects/111b.jpg,stimuli/scenes/049b.jpg,dist1,target,lure,dist2,0,0,0,0,0,40,40,5,,,,,,,432.6979816928506,433.7101439088583,433.7101439088583,433.7101439088583,433.7101439088583,436.74518064409494,436.74518064409494,436.74518064409494,436.74518064409494,None,,,,,,,,,,ST03_112822,2022-11-29_14h20.36.991,Hippopolis_Updating,2022.2.2,60.01777042595094,
Camponello,stimuli/subj_files/ST03_112822_cityB.csv,./stimuli/arnedillo.png,./stimuli/street_plate2.png,./stimuli/videos/camponello_part1.mp4,HERNYÓ UTCA,stimuli/objects/057a.jpg,object,0,stimuli/objects/057a.jpg,stimuli/objects/061a.jpg,stimuli/objects/057b.jpg,stimuli/objects/057a.jpg,stimuli/objects/061b.jpg,dist1,lure,target,dist2,0,0,0,0,0,41,41,40,,,,,,,438.71197760105133,439.7249848227948,439.7249848227948,439.7249848227948,439.7249848227948,442.7462361995131,442.7462361995131,442.7462361995131,442.7462361995131,None,,,,,,,,,,ST03_112822,2022-11-29_14h20.36.991,Hippopolis_Updating,2022.2.2,60.01777042595094,
Camponello,stimuli/subj_files/ST03_112822_cityB.csv,./stimuli/arnedillo.png,./stimuli/street_plate2.png,./stimuli/videos/camponello_part1.mp4,BETON UTCA,stimuli/objects/097a.jpg,object,0,stimuli/objects/097a.jpg,stimuli/scenes/095a.jpg,stimuli/scenes/095b.jpg,stimuli/objects/097b.jpg,stimuli/objects/097a.jpg,dist1,dist2,lure,target,0,0,0,0,0,42,42,21,,,,,,,444.72230550274253,445.749643586576,445.749643586576,445.749643586576,445.749643586576,448.74384891428053,448.74384891428053,448.74384891428053,448.74384891428053,None,,,,,,,,,,ST03_112822,2022-11-29_14h20.36.991,Hippopolis_Updating,2022.2.2,60.01777042595094,
Camponello,stimuli/subj_files/ST03_112822_cityB.csv,./stimuli/arnedillo.png,./stimuli/street_plate2.png,./stimuli/videos/camponello_part1.mp4,CSAVAR UTCA,stimuli/scenes/075a.jpg,scene,1,stimuli/scenes/084a.jpg,stimuli/scenes/109b.jpg,stimuli/scenes/109a.jpg,stimuli/scenes/084b.jpg,stimuli/scenes/084a.jpg,dist2,dist1,lure,target,0,0,0,0,0,43,43,15,,,,,,,450.72860400378704,451.75578067451715,451.75578067451715,451.75578067451715,451.75578067451715,454.7619180753827,454.7619180753827,454.7619180753827,454.7619180753827,None,,,,,,,,,,ST03_112822,2022-11-29_14h20.36.991,Hippopolis_Updating,2022.2.2,60.01777042595094,
Camponello,stimuli/subj_files/ST03_112822_cityB.csv,./stimuli/arnedillo.png,./stimuli/street_plate2.png,./stimuli/videos/camponello_part1.mp4,BOLYGÓ UTCA,stimuli/objects/029a.jpg,object,0,stimuli/objects/029a.jpg,stimuli/scenes/058a.jpg,stimuli/scenes/058b.jpg,stimuli/objects/029a.jpg,stimuli/objects/029b.jpg,dist1,dist2,target,lure,0,0,0,0,0,44,44,44,,,,,,,456.7398842051625,457.7666089851409,457.7666089851409,457.7666089851409,457.7666089851409,460.76383947208524,460.76383947208524,460.76383947208524,460.76383947208524,space,,462.7467055078596,462.7467055078596,6.301575304940343,,,,,,ST03_112822,2022-11-29_14h20.36.991,Hippopolis_Updating,2022.2.2,60.01777042595094,
Camponello,stimuli/subj_files/ST03_112822_cityB.csv,./stimuli/arnedillo.png,./stimuli/street_plate2.png,./stimuli/videos/camponello_part1.mp4,OLDAL UTCA,stimuli/objects/076a.jpg,object,0,stimuli/objects/076a.jpg,stimuli/objects/076b.jpg,stimuli/objects/008a.jpg,stimuli/objects/008b.jpg,stimuli/objects/076a.jpg,lure,dist1,dist2,target,0,0,0,0,0,45,45,69,,,,,,,469.0823131278157,470.0940125659108,470.0940125659108,470.0940125659108,470.0940125659108,473.1102247070521,473.1102247070521,473.1102247070521,473.1102247070521,None,470.0940125659108,,,,,,,,,ST03_112822,2022-11-29_14h20.36.991,Hippopolis_Updating,2022.2.2,60.01777042595094,
Camponello,stimuli/subj_files/ST03_112822_cityB.csv,./stimuli/arnedillo.png,./stimuli/street_plate2.png,./stimuli/videos/camponello_part1.mp4,KESZTYŰ UTCA,stimuli/objects/055a.jpg,object,0,stimuli/objects/055a.jpg,stimuli/objects/119b.jpg,stimuli/objects/055b.jpg,stimuli/objects/119a.jpg,stimuli/objects/055a.jpg,dist2,lure,dist1,target,0,0,0,0,0,46,46,43,,,,,,,475.0948902256787,476.11938882246614,476.11938882246614,476.11938882246614,476.11938882246614,479.1154337543994,479.1154337543994,479.1154337543994,479.1154337543994,None,,,,,,,,,,ST03_112822,2022-11-29_14h20.36.991,Hippopolis_Updating,2022.2.2,60.01777042595094,
Camponello,stimuli/subj_files/ST03_112822_cityB.csv,./stimuli/arnedillo.png,./stimuli/street_plate2.png,./stimuli/videos/camponello_part1.mp4,SALÁTA UTCA,stimuli/scenes/044a.jpg,scene,0,stimuli/scenes/044a.jpg,stimuli/scenes/044b.jpg,stimuli/objects/045b.jpg,stimuli/objects/045a.jpg,stimuli/scenes/044a.jpg,lure,dist2,dist1,target,0,0,0,0,0,47,47,53,,,,,,,481.10961637832224,482.14200582914054,482.14200582914054,482.14200582914054,482.14200582914054,485.13370755687356,485.13370755687356,485.13370755687356,485.13370755687356,None,,,,,,,,,,ST03_112822,2022-11-29_14h20.36.991,Hippopolis_Updating,2022.2.2,60.01777042595094,
Camponello,stimuli/subj_files/ST03_112822_cityB.csv,./stimuli/arnedillo.png,./stimuli/street_plate2.png,./stimuli/videos/camponello_part1.mp4,MENTA UTCA,stimuli/scenes/059a.jpg,scene,1,stimuli/scenes/057a.jpg,stimuli/scenes/111b.jpg,stimuli/scenes/057a.jpg,stimuli/scenes/111a.jpg,stimuli/scenes/057b.jpg,dist2,target,dist1,lure,0,0,0,0,0,48,48,58,,,,,,,487.1197371482849,488.14908060245216,488.14908060245216,488.14908060245216,488.14908060245216,491.137662936002,491.137662936002,491.137662936002,491.137662936002,None,,,,,,,,,,ST03_112822,2022-11-29_14h20.36.991,Hippopolis_Updating,2022.2.2,60.01777042595094,
Camponello,stimuli/subj_files/ST03_112822_cityB.csv,./stimuli/arnedillo.png,./stimuli/street_plate2.png,./stimuli/videos/camponello_part1.mp4,TENISZ UTCA,stimuli/scenes/099a.jpg,scene,2,stimuli/objects/105a.jpg,stimuli/scenes/034b.jpg,stimuli/objects/105a.jpg,stimuli/scenes/034a.jpg,stimuli/objects/105b.jpg,dist2,target,dist1,lure,0,0,0,0,0,49,49,7,,,,,,,493.1362913977355,494.1562409028411,494.1562409028411,494.1562409028411,494.1562409028411,497.16801498271525,497.16801498271525,497.16801498271525,497.16801498271525,None,,,,,,,,,,ST03_112822,2022-11-29_14h20.36.991,Hippopolis_Updating,2022.2.2,60.01777042595094,
Camponello,stimuli/subj_files/ST03_112822_cityB.csv,./stimuli/arnedillo.png,./stimuli/street_plate2.png,./stimuli/videos/camponello_part1.mp4,PETÁRDA UTCA,stimuli/scenes/050a.jpg,scene,0,stimuli/scenes/050a.jpg,stimuli/scenes/050a.jpg,stimuli/objects/022a.jpg,stimuli/scenes/050b.jpg,stimuli/objects/022b.jpg,target,dist1,lure,dist2,0,0,0,0,0,50,50,20,,,,,,,499.1495153885335,500.18076157942414,500.18076157942414,500.18076157942414,500.18076157942414,503.1755509786308,503.1755509786308,503.1755509786308,503.1755509786308,None,,,,,,,,,,ST03_112822,2022-11-29_14h20.36.991,Hippopolis_Updating,2022.2.2,60.01777042595094,
Camponello,stimuli/subj_files/ST03_112822_cityB.csv,./stimuli/arnedillo.png,./stimuli/street_plate2.png,./stimuli/videos/camponello_part1.mp4,HEGESZTŐ UTCA,stimuli/scenes/093a.jpg,scene,0,stimuli/scenes/093a.jpg,stimuli/objects/095b.jpg,stimuli/scenes/093a.jpg,stimuli/objects/095a.jpg,stimuli/scenes/093b.jpg,dist2,target,dist1,lure,0,0,0,0,0,51,51,74,,,,,,,505.16391032002866,506.18314482085407,506.18314482085407,506.18314482085407,506.18314482085407,509.1913031414151,509.1913031414151,509.1913031414151,509.1913031414151,None,,,,,,,,,,ST03_112822,2022-11-29_14h20.36.991,Hippopolis_Updating,2022.2.2,60.01777042595094,
Camponello,stimuli/subj_files/ST03_112822_cityB.csv,./stimuli/arnedillo.png,./stimuli/street_plate2.png,./stimuli/videos/camponello_part1.mp4,FOGAS UTCA,stimuli/scenes/118a.jpg,scene,0,stimuli/scenes/118a.jpg,stimuli/scenes/007b.jpg,stimuli/scenes/118b.jpg,stimuli/scenes/118a.jpg,stimuli/scenes/007a.jpg,dist2,lure,target,dist1,0,0,0,0,0,52,52,35,,,,,,,511.18025930412114,512.1927275508642,512.1927275508642,512.1927275508642,512.1927275508642,515.205712378025,515.205712378025,515.205712378025,515.205712378025,None,,,,,,,,,,ST03_112822,2022-11-29_14h20.36.991,Hippopolis_Updating,2022.2.2,60.01777042595094,
Camponello,stimuli/subj_files/ST03_112822_cityB.csv,./stimuli/arnedillo.png,./stimuli/street_plate2.png,./stimuli/videos/camponello_part1.mp4,HÁRFA UTCA,stimuli/objects/019a.jpg,object,1,stimuli/objects/109a.jpg,stimuli/objects/109a.jpg,stimuli/scenes/057a.jpg,stimuli/objects/109b.jpg,stimuli/scenes/057b.jpg,target,dist1,lure,dist2,0,0,0,0,0,53,53,77,,,,,,,517.1945565789938,518.2178403828293,518.2178403828293,518.2178403828293,518.2178403828293,521.2238213475794,521.2238213475794,521.2238213475794,521.2238213475794,None,,,,,,,,,,ST03_112822,2022-11-29_14h20.36.991,Hippopolis_Updating,2022.2.2,60.01777042595094,
Camponello,stimuli/subj_files/ST03_112822_cityB.csv,./stimuli/arnedillo.png,./stimuli/street_plate2.png,./stimuli/videos/camponello_part1.mp4,PAPRIKA UTCA,stimuli/scenes/079a.jpg,scene,1,stimuli/scenes/109a.jpg,stimuli/scenes/109b.jpg,stimuli/scenes/028b.jpg,stimuli/scenes/028a.jpg,stimuli/scenes/109a.jpg,lure,dist2,dist1,target,0,0,0,0,0,54,54,48,,,,,,,523.2087111026049,524.2274769172072,524.2274769172072,524.2274769172072,524.2274769172072,527.2448491118848,527.2448491118848,527.2448491118848,527.2448491118848,None,,,,,,,,,,ST03_112822,2022-11-29_14h20.36.991,Hippopolis_Updating,2022.2.2,60.01777042595094,
Camponello,stimuli/subj_files/ST03_112822_cityB.csv,./stimuli/arnedillo.png,./stimuli/street_plate2.png,./stimuli/videos/camponello_part1.mp4,KUTYA UTCA,stimuli/scenes/089a.jpg,scene,1,stimuli/scenes/108a.jpg,stimuli/scenes/108a.jpg,stimuli/objects/027a.jpg,stimuli/objects/027b.jpg,stimuli/scenes/108b.jpg,target,dist1,dist2,lure,0,0,0,0,0,55,55,0,,,,,,,529.211098074913,530.2352928183973,530.2352928183973,530.2352928183973,530.2352928183973,533.2361477743834,533.2361477743834,533.2361477743834,533.2361477743834,None,,,,,,,,,,ST03_112822,2022-11-29_14h20.36.991,Hippopolis_Updating,2022.2.2,60.01777042595094,
Camponello,stimuli/subj_files/ST03_112822_cityB.csv,./stimuli/arnedillo.png,./stimuli/street_plate2.png,./stimuli/videos/camponello_part1.mp4,VASALÓ UTCA,stimuli/objects/104a.jpg,object,0,stimuli/objects/104a.jpg,stimuli/objects/055b.jpg,stimuli/objects/055a.jpg,stimuli/objects/104a.jpg,stimuli/objects/104b.jpg,dist2,dist1,target,lure,0,0,0,0,0,56,56,60,,,,,,,535.2277350518852,536.2509311530739,536.2509311530739,536.2509311530739,536.2509311530739,539.2503259330988,539.2503259330988,539.2503259330988,539.2503259330988,None,,,,,,,,,,ST03_112822,2022-11-29_14h20.36.991,Hippopolis_Updating,2022.2.2,60.01777042595094,
Camponello,stimuli/subj_files/ST03_112822_cityB.csv,./stimuli/arnedillo.png,./stimuli/street_plate2.png,./stimuli/videos/camponello_part1.mp4,KÍGYÓ UTCA,stimuli/scenes/076a.jpg,scene,0,stimuli/scenes/076a.jpg,stimuli/scenes/076b.jpg,stimuli/objects/057a.jpg,stimuli/scenes/076a.jpg,stimuli/objects/057b.jpg,lure,dist1,target,dist2,0,0,0,0,0,57,57,6,,,,,,,541.2350626736879,542.2633962891996,542.2633962891996,542.2633962891996,542.2633962891996,545.2571609206498,545.2571609206498,545.2571609206498,545.2571609206498,None,,,,,,,,,,ST03_112822,2022-11-29_14h20.36.991,Hippopolis_Updating,2022.2.2,60.01777042595094,
Camponello,stimuli/subj_files/ST03_112822_cityB.csv,./stimuli/arnedillo.png,./stimuli/street_plate2.png,./stimuli/videos/camponello_part1.mp4,KALAPÁCS UTCA,stimuli/scenes/002a.jpg,scene,0,stimuli/scenes/002a.jpg,stimuli/scenes/002b.jpg,stimuli/objects/038a.jpg,stimuli/objects/038b.jpg,stimuli/scenes/002a.jpg,lure,dist1,dist2,target,0,0,0,0,0,58,58,33,,,,,,,547.2466389536858,548.268373945728,548.268373945728,548.268373945728,548.268373945728,551.2643122021109,551.2643122021109,551.2643122021109,551.2643122021109,None,,,,,,,,,,ST03_112822,2022-11-29_14h20.36.991,Hippopolis_Updating,2022.2.2,60.01777042595094,
Camponello,stimuli/subj_files/ST03_112822_cityB.csv,./stimuli/arnedillo.png,./stimuli/street_plate2.png,./stimuli/videos/camponello_part1.mp4,AJÁNDÉK UTCA,stimuli/objects/092a.jpg,object,2,stimuli/scenes/034a.jpg,stimuli/scenes/034a.jpg,stimuli/scenes/034b.jpg,stimuli/scenes/016b.jpg,stimuli/scenes/016a.jpg,target,lure,dist2,dist1,0,0,0,0,0,59,59,26,,,,,,,553.2638071272522,554.2746659163386,554.2746659163386,554.2746659163386,554.2746659163386,557.2899046074599,557.2899046074599,557.2899046074599,557.2899046074599,None,,,,,,,,,,ST03_112822,2022-11-29_14h20.36.991,Hippopolis_Updating,2022.2.2,60.01777042595094,
Camponello,stimuli/subj_files/ST03_112822_cityB.csv,./stimuli/arnedillo.png,./stimuli/street_plate2.png,./stimuli/videos/camponello_part1.mp4,BÖGRE UTCA,stimuli/scenes/055a.jpg,scene,0,stimuli/scenes/055a.jpg,stimuli/scenes/093a.jpg,stimuli/scenes/055b.jpg,stimuli/scenes/055a.jpg,stimuli/scenes/093b.jpg,dist1,lure,target,dist2,0,0,0,0,0,60,60,27,,,,,,,559.2703852243721,560.2988939359784,560.2988939359784,560.2988939359784,560.2988939359784,563.3106020819396,563.3106020819396,563.3106020819396,563.3106020819396,None,,,,,,,,,,ST03_112822,2022-11-29_14h20.36.991,Hippopolis_Updating,2022.2.2,60.01777042595094,
Camponello,stimuli/subj_files/ST03_112822_cityB.csv,./stimuli/arnedillo.png,./stimuli/street_plate2.png,./stimuli/videos/camponello_part1.mp4,KANÁL UTCA,stimuli/scenes/101a.jpg,scene,0,stimuli/scenes/101a.jpg,stimuli/objects/040a.jpg,stimuli/scenes/101a.jpg,stimuli/scenes/101b.jpg,stimuli/objects/040b.jpg,dist1,target,lure,dist2,0,0,0,0,0,61,61,38,,,,,,,565.2768243011087,566.2980893626809,566.2980893626809,566.2980893626809,566.2980893626809,569.2919115312397,569.2919115312397,569.2919115312397,569.2919115312397,None,,,,,,,,,,ST03_112822,2022-11-29_14h20.36.991,Hippopolis_Updating,2022.2.2,60.01777042595094,
Camponello,stimuli/subj_files/ST03_112822_cityB.csv,./stimuli/arnedillo.png,./stimuli/street_plate2.png,./stimuli/videos/camponello_part1.mp4,FÉSŰ UTCA,stimuli/scenes/021a.jpg,scene,0,stimuli/scenes/021a.jpg,stimuli/scenes/021b.jpg,stimuli/scenes/076a.jpg,stimuli/scenes/076b.jpg,stimuli/scenes/021a.jpg,lure,dist1,dist2,target,0,0,0,0,0,62,62,46,,,,,,,571.2852730993181,572.3008977510035,572.3008977510035,572.3008977510035,572.3008977510035,575.2972191665322,575.2972191665322,575.2972191665322,575.2972191665322,None,,,,,,,,,,ST03_112822,2022-11-29_14h20.36.991,Hippopolis_Updating,2022.2.2,60.01777042595094,
Camponello,stimuli/subj_files/ST03_112822_cityB.csv,./stimuli/arnedillo.png,./stimuli/street_plate2.png,./stimuli/videos/camponello_part1.mp4,OROSZLÁN UTCA,stimuli/objects/102a.jpg,object,0,stimuli/objects/102a.jpg,stimuli/objects/102b.jpg,stimuli/scenes/012b.jpg,stimuli/scenes/012a.jpg,stimuli/objects/102a.jpg,lure,dist2,dist1,target,0,0,0,0,0,63,63,76,,,,,,,577.2869562674314,578.3150668907911,578.3150668907911,578.3150668907911,578.3150668907911,581.3132058288902,581.3132058288902,581.3132058288902,581.3132058288902,None,,,,,,,,,,ST03_112822,2022-11-29_14h20.36.991,Hippopolis_Updating,2022.2.2,60.01777042595094,
Camponello,stimuli/subj_files/ST03_112822_cityB.csv,./stimuli/arnedillo.png,./stimuli/street_plate2.png,./stimuli/videos/camponello_part1.mp4,LÉTRA UTCA,stimuli/objects/012a.jpg,object,1,stimuli/objects/049a.jpg,stimuli/objects/049a.jpg,stimuli/objects/049b.jpg,stimuli/objects/109b.jpg,stimuli/objects/109a.jpg,target,lure,dist2,dist1,0,0,0,0,0,64,64,30,,,,,,,583.2937635742128,584.3172321170568,584.3172321170568,584.3172321170568,584.3172321170568,587.3166797701269,587.3166797701269,587.3166797701269,587.3166797701269,None,,,,,,,,,,ST03_112822,2022-11-29_14h20.36.991,Hippopolis_Updating,2022.2.2,60.01777042595094,
Camponello,stimuli/subj_files/ST03_112822_cityB.csv,./stimuli/arnedillo.png,./stimuli/street_plate2.png,./stimuli/videos/camponello_part1.mp4,SZŐNYEG UTCA,stimuli/objects/028a.jpg,object,0,stimuli/objects/028a.jpg,stimuli/objects/028a.jpg,stimuli/scenes/038a.jpg,stimuli/scenes/038b.jpg,stimuli/objects/028b.jpg,target,dist1,dist2,lure,0,0,0,0,0,65,65,78,,,,,,,589.297305315733,590.3109672050923,590.3109672050923,590.3109672050923,590.3109672050923,593.3274648487568,593.3274648487568,593.3274648487568,593.3274648487568,None,,,,,,,,,,ST03_112822,2022-11-29_14h20.36.991,Hippopolis_Updating,2022.2.2,60.01777042595094,
Camponello,stimuli/subj_files/ST03_112822_cityB.csv,./stimuli/arnedillo.png,./stimuli/street_plate2.png,./stimuli/videos/camponello_part1.mp4,MOTOR UTCA,stimuli/scenes/018a.jpg,scene,0,stimuli/scenes/018a.jpg,stimuli/objects/046b.jpg,stimuli/objects/046a.jpg,stimuli/scenes/018a.jpg,stimuli/scenes/018b.jpg,dist2,dist1,target,lure,0,0,0,0,0,66,66,9,,,,,,,595.303579557687,596.330288477242,596.330288477242,596.330288477242,596.330288477242,599.3229826260358,599.3229826260358,599.3229826260358,599.3229826260358,None,,,,,,,,,,ST03_112822,2022-11-29_14h20.36.991,Hippopolis_Updating,2022.2.2,60.01777042595094,
Camponello,stimuli/subj_files/ST03_112822_cityB.csv,./stimuli/arnedillo.png,./stimuli/street_plate2.png,./stimuli/videos/camponello_part1.mp4,PÉKSÉG UTCA,stimuli/objects/017a.jpg,object,1,stimuli/objects/027a.jpg,stimuli/objects/033a.jpg,stimuli/objects/033b.jpg,stimuli/objects/027b.jpg,stimuli/objects/027a.jpg,dist1,dist2,lure,target,0,0,0,0,0,67,67,55,,,,,,,601.3052714336663,602.313037885353,602.313037885353,602.313037885353,602.313037885353,605.3350403439254,605.3350403439254,605.3350403439254,605.3350403439254,None,,,,,,,,,,ST03_112822,2022-11-29_14h20.36.991,Hippopolis_Updating,2022.2.2,60.01777042595094,
Camponello,stimuli/subj_files/ST03_112822_cityB.csv,./stimuli/arnedillo.png,./stimuli/street_plate2.png,./stimuli/videos/camponello_part1.mp4,KOSÁR UTCA,stimuli/objects/078a.jpg,object,0,stimuli/objects/078a.jpg,stimuli/objects/078a.jpg,stimuli/objects/078b.jpg,stimuli/objects/007b.jpg,stimuli/objects/007a.jpg,target,lure,dist2,dist1,0,0,0,0,0,68,68,79,,,,,,,607.3181803748012,608.3274844419211,608.3274844419211,608.3274844419211,608.3274844419211,611.3403585515916,611.3403585515916,611.3403585515916,611.3403585515916,None,608.3274844419211,,,,,,,,,ST03_112822,2022-11-29_14h20.36.991,Hippopolis_Updating,2022.2.2,60.01777042595094,
Camponello,stimuli/subj_files/ST03_112822_cityB.csv,./stimuli/arnedillo.png,./stimuli/street_plate2.png,./stimuli/videos/camponello_part1.mp4,PÁLMAFA UTCA,stimuli/objects/047a.jpg,object,2,stimuli/scenes/049a.jpg,stimuli/objects/074a.jpg,stimuli/scenes/049a.jpg,stimuli/objects/074b.jpg,stimuli/scenes/049b.jpg,dist1,target,dist2,lure,0,0,0,0,0,69,69,12,,,,,,,613.3213964924216,614.3385338783264,614.3385338783264,614.3385338783264,614.3385338783264,617.3421636335552,617.3421636335552,617.3421636335552,617.3421636335552,None,,,,,,,,,,ST03_112822,2022-11-29_14h20.36.991,Hippopolis_Updating,2022.2.2,60.01777042595094,
Camponello,stimuli/subj_files/ST03_112822_cityB.csv,./stimuli/arnedillo.png,./stimuli/street_plate2.png,./stimuli/videos/camponello_part1.mp4,KÖTÉNY UTCA,stimuli/objects/115a.jpg,object,0,stimuli/objects/115a.jpg,stimuli/objects/115b.jpg,stimuli/objects/083a.jpg,stimuli/objects/115a.jpg,stimuli/objects/083b.jpg,lure,dist1,target,dist2,0,0,0,0,0,70,70,28,,,,,,,619.3311104662716,620.3593128360808,620.3593128360808,620.3593128360808,620.3593128360808,623.35977094993,623.35977094993,623.35977094993,623.35977094993,None,,,,,,,,,,ST03_112822,2022-11-29_14h20.36.991,Hippopolis_Updating,2022.2.2,60.01777042595094,
Camponello,stimuli/subj_files/ST03_112822_cityB.csv,./stimuli/arnedillo.png,./stimuli/street_plate2.png,./stimuli/videos/camponello_part1.mp4,FÜGE UTCA,stimuli/scenes/073a.jpg,scene,0,stimuli/scenes/073a.jpg,stimuli/scenes/073a.jpg,stimuli/scenes/073b.jpg,stimuli/scenes/118a.jpg,stimuli/scenes/118b.jpg,target,lure,dist1,dist2,0,0,0,0,0,71,71,2,,,,,,,625.3383435420692,626.3689527902752,626.3689527902752,626.3689527902752,626.3689527902752,629.3604803550988,629.3604803550988,629.3604803550988,629.3604803550988,None,,,,,,,,,,ST03_112822,2022-11-29_14h20.36.991,Hippopolis_Updating,2022.2.2,60.01777042595094,
Camponello,stimuli/subj_files/ST03_112822_cityB.csv,./stimuli/arnedillo.png,./stimuli/street_plate2.png,./stimuli/videos/camponello_part1.mp4,SIRÁLY UTCA,stimuli/scenes/086a.jpg,scene,2,stimuli/objects/088a.jpg,stimuli/objects/088b.jpg,stimuli/objects/088a.jpg,stimuli/objects/111b.jpg,stimuli/objects/111a.jpg,lure,target,dist2,dist1,0,0,0,0,0,72,72,34,,,,,,,631.3448221161962,632.3554874584079,632.3554874584079,632.3554874584079,632.3554874584079,635.3754207901657,635.3754207901657,635.3754207901657,635.3754207901657,None,,,,,,,,,,ST03_112822,2022-11-29_14h20.36.991,Hippopolis_Updating,2022.2.2,60.01777042595094,
Camponello,stimuli/subj_files/ST03_112822_cityB.csv,./stimuli/arnedillo.png,./stimuli/street_plate2.png,./stimuli/videos/camponello_part1.mp4,TOBOZ UTCA,stimuli/scenes/104a.jpg,scene,0,stimuli/scenes/104a.jpg,stimuli/scenes/104b.jpg,stimuli/scenes/061b.jpg,stimuli/scenes/104a.jpg,stimuli/scenes/061a.jpg,lure,dist2,target,dist1,0,0,0,0,0,73,73,72,,,,,,,637.3574719894677,638.3839373905212,638.3839373905212,638.3839373905212,638.3839373905212,641.3829427920282,641.3829427920282,641.3829427920282,641.3829427920282,None,,,,,,,,,,ST03_112822,2022-11-29_14h20.36.991,Hippopolis_Updating,2022.2.2,60.01777042595094,
Camponello,stimuli/subj_files/ST03_112822_cityB.csv,./stimuli/arnedillo.png,./stimuli/street_plate2.png,./stimuli/videos/camponello_part1.mp4,KERÉK UTCA,stimuli/scenes/023a.jpg,scene,0,stimuli/scenes/023a.jpg,stimuli/scenes/023a.jpg,stimuli/scenes/018a.jpg,stimuli/scenes/018b.jpg,stimuli/scenes/023b.jpg,target,dist1,dist2,lure,0,0,0,0,0,74,74,31,,,,,,,643.3629886209965,644.3725576661527,644.3725576661527,644.3725576661527,644.3725576661527,647.3923784140497,647.3923784140497,647.3923784140497,647.3923784140497,None,,,,,,,,,,ST03_112822,2022-11-29_14h20.36.991,Hippopolis_Updating,2022.2.2,60.01777042595094,
Camponello,stimuli/subj_files/ST03_112822_cityB.csv,./stimuli/arnedillo.png,./stimuli/street_plate2.png,./stimuli/videos/camponello_part1.mp4,LOVAGLÁS UTCA,stimuli/scenes/012a.jpg,scene,0,stimuli/scenes/012a.jpg,stimuli/scenes/012b.jpg,stimuli/scenes/104a.jpg,stimuli/scenes/012a.jpg,stimuli/scenes/104b.jpg,lure,dist1,target,dist2,0,0,0,0,0,75,75,37,,,,,,,649.3697337284684,650.379974545911,650.379974545911,650.379974545911,650.379974545911,653.3981223907322,653.3981223907322,653.3981223907322,653.3981223907322,None,,,,,,,,,,ST03_112822,2022-11-29_14h20.36.991,Hippopolis_Updating,2022.2.2,60.01777042595094,
Camponello,stimuli/subj_files/ST03_112822_cityB.csv,./stimuli/arnedillo.png,./stimuli/street_plate2.png,./stimuli/videos/camponello_part1.mp4,CSILLAG UTCA,stimuli/objects/110a.jpg,object,0,stimuli/objects/110a.jpg,stimuli/objects/110b.jpg,stimuli/objects/102b.jpg,stimuli/objects/102a.jpg,stimuli/objects/110a.jpg,lure,dist2,dist1,target,0,0,0,0,0,76,76,70,,,,,,,655.3803608156741,656.4111641328782,656.4111641328782,656.4111641328782,656.4111641328782,659.4077611025423,659.4077611025423,659.4077611025423,659.4077611025423,None,,,,,,,,,,ST03_112822,2022-11-29_14h20.36.991,Hippopolis_Updating,2022.2.2,60.01777042595094,
Camponello,stimuli/subj_files/ST03_112822_cityB.csv,./stimuli/arnedillo.png,./stimuli/street_plate2.png,./stimuli/videos/camponello_part1.mp4,FEJSZE UTCA,stimuli/scenes/083a.jpg,scene,2,stimuli/objects/030a.jpg,stimuli/objects/088b.jpg,stimuli/objects/030b.jpg,stimuli/objects/088a.jpg,stimuli/objects/030a.jpg,dist2,lure,dist1,target,0,0,0,0,0,77,77,19,,,,,,,661.3882423397154,662.4159231539816,662.4159231539816,662.4159231539816,662.4159231539816,665.4143093414605,665.4143093414605,665.4143093414605,665.4143093414605,None,,,,,,,,,,ST03_112822,2022-11-29_14h20.36.991,Hippopolis_Updating,2022.2.2,60.01777042595094,
Camponello,stimuli/subj_files/ST03_112822_cityB.csv,./stimuli/arnedillo.png,./stimuli/street_plate2.png,./stimuli/videos/camponello_part1.mp4,BANÁN UTCA,stimuli/objects/079a.jpg,object,0,stimuli/objects/079a.jpg,stimuli/objects/079b.jpg,stimuli/objects/115b.jpg,stimuli/objects/115a.jpg,stimuli/objects/079a.jpg,lure,dist2,dist1,target,0,0,0,0,0,78,78,42,,,,,,,667.3958212547004,668.4091827124357,668.4091827124357,668.4091827124357,668.4091827124357,671.4209791850299,671.4209791850299,671.4209791850299,671.4209791850299,None,,,,,,,,,,ST03_112822,2022-11-29_14h20.36.991,Hippopolis_Updating,2022.2.2,60.01777042595094,
Camponello,stimuli/subj_files/ST03_112822_cityB.csv,./stimuli/arnedillo.png,./stimuli/street_plate2.png,./stimuli/videos/camponello_part1.mp4,MOCSÁR UTCA,stimuli/objects/063a.jpg,object,1,stimuli/objects/033a.jpg,stimuli/objects/033b.jpg,stimuli/objects/033a.jpg,stimuli/objects/053b.jpg,stimuli/objects/053a.jpg,lure,target,dist2,dist1,0,0,0,0,0,79,79,13,,,,,,,673.4084506034851,674.4193078354001,674.4193078354001,674.4193078354001,674.4193078354001,677.4397589936852,677.4397589936852,677.4397589936852,677.4397589936852,None,,,,,,,,,,ST03_112822,2022-11-29_14h20.36.991,Hippopolis_Updating,2022.2.2,60.01777042595094,
Hippopolis,stimuli/subj_files/ST03_112822_cityA.csv,./stimuli/seattle.jpg,./stimuli/street_plate1.png,./stimuli/videos/hippopolis_part1.mp4,KOCKA UTCA,stimuli/objects/003a.jpg,object,1,stimuli/objects/052a.jpg,stimuli/objects/052a.jpg,stimuli/objects/118b.jpg,stimuli/objects/118a.jpg,stimuli/objects/052b.jpg,target,dist2,dist1,lure,0,1,1,1,0,0,0,39,,,,,687.4667801633477,687.4667801633477,690.4666134640574,691.4563200846314,691.4563200846314,691.4563200846314,691.4563200846314,694.4693434778601,694.4693434778601,694.4693434778601,694.4693434778601,None,,,,,679.4184441715479,679.4184441715479,space,7.995299320667982,,ST03_112822,2022-11-29_14h20.36.991,Hippopolis_Updating,2022.2.2,60.01777042595094,
Hippopolis,stimuli/subj_files/ST03_112822_cityA.csv,./stimuli/seattle.jpg,./stimuli/street_plate1.png,./stimuli/videos/hippopolis_part1.mp4,PIZSAMA UTCA,stimuli/objects/016a.jpg,object,2,stimuli/scenes/006a.jpg,stimuli/scenes/006b.jpg,stimuli/scenes/116a.jpg,stimuli/scenes/116b.jpg,stimuli/scenes/006a.jpg,lure,dist1,dist2,target,0,1,1,1,0,1,1,46,,,,,,,696.437090869993,697.4656838644296,697.4656838644296,697.4656838644296,697.4656838644296,700.4504958670586,700.4504958670586,700.4504958670586,700.4504958670586,None,,,,,,,,,,ST03_112822,2022-11-29_14h20.36.991,Hippopolis_Updating,2022.2.2,60.01777042595094,
Hippopolis,stimuli/subj_files/ST03_112822_cityA.csv,./stimuli/seattle.jpg,./stimuli/street_plate1.png,./stimuli/videos/hippopolis_part1.mp4,KÁRTYA UTCA,stimuli/scenes/032a.jpg,scene,0,stimuli/scenes/032a.jpg,stimuli/objects/116a.jpg,stimuli/objects/116b.jpg,stimuli/scenes/032b.jpg,stimuli/scenes/032a.jpg,dist1,dist2,lure,target,0,1,1,1,0,2,2,79,,,,,,,702.4423838891089,703.4554533101618,703.4554533101618,703.4554533101618,703.4554533101618,706.4690044801682,706.4690044801682,706.4690044801682,706.4690044801682,None,,,,,,,,,,ST03_112822,2022-11-29_14h20.36.991,Hippopolis_Updating,2022.2.2,60.01777042595094,
Hippopolis,stimuli/subj_files/ST03_112822_cityA.csv,./stimuli/seattle.jpg,./stimuli/street_plate1.png,./stimuli/videos/hippopolis_part1.mp4,TÁNYÉR UTCA,stimuli/scenes/067a.jpg,scene,0,stimuli/scenes/067a.jpg,stimuli/objects/042a.jpg,stimuli/objects/042b.jpg,stimuli/scenes/067b.jpg,stimuli/scenes/067a.jpg,dist1,dist2,lure,target,0,1,1,1,0,3,3,59,,,,,,,708.4445198792964,709.4665080327541,709.4665080327541,709.4665080327541,709.4665080327541,712.4730721320957,712.4730721320957,712.4730721320957,712.4730721320957,None,,,,,,,,,,ST03_112822,2022-11-29_14h20.36.991,Hippopolis_Updating,2022.2.2,60.01777042595094,
Hippopolis,stimuli/subj_files/ST03_112822_cityA.csv,./stimuli/seattle.jpg,./stimuli/street_plate1.png,./stimuli/videos/hippopolis_part1.mp4,SZOBOR UTCA,stimuli/scenes/114a.jpg,scene,1,stimuli/scenes/113a.jpg,stimuli/scenes/113a.jpg,stimuli/objects/023a.jpg,stimuli/objects/023b.jpg,stimuli/scenes/113b.jpg,target,dist1,dist2,lure,0,1,1,1,0,4,4,70,,,,,,,714.4512397944927,715.4787747468799,715.4787747468799,715.4787747468799,715.4787747468799,718.4871772062033,718.4871772062033,718.4871772062033,718.4871772062033,None,,,,,,,,,,ST03_112822,2022-11-29_14h20.36.991,Hippopolis_Updating,2022.2.2,60.01777042595094,
Hippopolis,stimuli/subj_files/ST03_112822_cityA.csv,./stimuli/seattle.jpg,./stimuli/street_plate1.png,./stimuli/videos/hippopolis_part1.mp4,KÖMÉNYMAG UTCA,stimuli/scenes/068a.jpg,scene,1,stimuli/scenes/066a.jpg,stimuli/scenes/066b.jpg,stimuli/objects/114a.jpg,stimuli/objects/114b.jpg,stimuli/scenes/066a.jpg,lure,dist1,dist2,target,0,1,1,1,0,5,5,8,,,,,,,720.4585453346372,721.4798163063824,721.4798163063824,721.4798163063824,721.4798163063824,724.4831692669541,724.4831692669541,724.4831692669541,724.4831692669541,None,,,,,,,,,,ST03_112822,2022-11-29_14h20.36.991,Hippopolis_Updating,2022.2.2,60.01777042595094,
Hippopolis,stimuli/subj_files/ST03_112822_cityA.csv,./stimuli/seattle.jpg,./stimuli/street_plate1.png,./stimuli/videos/hippopolis_part1.mp4,SZOMSZÉD UTCA,stimuli/objects/107a.jpg,object,1,stimuli/objects/037a.jpg,stimuli/objects/037a.jpg,stimuli/objects/037b.jpg,stimuli/scenes/031b.jpg,stimuli/scenes/031a.jpg,target,lure,dist2,dist1,0,1,1,1,0,6,6,57,,,,,,,726.466768655926,727.4862575605512,727.4862575605512,727.4862575605512,727.4862575605512,730.4893847294152,730.4893847294152,730.4893847294152,730.4893847294152,None,,,,,,,,,,ST03_112822,2022-11-29_14h20.36.991,Hippopolis_Updating,2022.2.2,60.01777042595094,
Hippopolis,stimuli/subj_files/ST03_112822_cityA.csv,./stimuli/seattle.jpg,./stimuli/street_plate1.png,./stimuli/videos/hippopolis_part1.mp4,LEMEZ UTCA,stimuli/objects/032a.jpg,object,2,stimuli/scenes/047a.jpg,stimuli/scenes/047b.jpg,stimuli/scenes/047a.jpg,stimuli/objects/050a.jpg,stimuli/objects/050b.jpg,lure,target,dist1,dist2,0,1,1,1,0,7,7,75,,,,,,,732.472966702655,733.4959335904568,733.4959335904568,733.4959335904568,733.4959335904568,736.4971829038113,736.4971829038113,736.4971829038113,736.4971829038113,None,,,,,,,,,,ST03_112822,2022-11-29_14h20.36.991,Hippopolis_Updating,2022.2.2,60.01777042595094,
Hippopolis,stimuli/subj_files/ST03_112822_cityA.csv,./stimuli/seattle.jpg,./stimuli/street_plate1.png,./stimuli/videos/hippopolis_part1.mp4,KÖTÉL UTCA,stimuli/scenes/030a.jpg,scene,1,stimuli/scenes/100a.jpg,stimuli/scenes/100a.jpg,stimuli/scenes/100b.jpg,stimuli/objects/106b.jpg,stimuli/objects/106a.jpg,target,lure,dist2,dist1,0,1,1,1,0,8,8,31,,,,,,,738.4901815280318,739.5035482719541,739.5035482719541,739.5035482719541,739.5035482719541,742.513200353831,742.513200353831,742.513200353831,742.513200353831,None,,,,,,,,,,ST03_112822,2022-11-29_14h20.36.991,Hippopolis_Updating,2022.2.2,60.01777042595094,
Hippopolis,stimuli/subj_files/ST03_112822_cityA.csv,./stimuli/seattle.jpg,./stimuli/street_plate1.png,./stimuli/videos/hippopolis_part1.mp4,FÜZET UTCA,stimuli/objects/042a.jpg,object,0,stimuli/objects/042a.jpg,stimuli/scenes/110a.jpg,stimuli/scenes/110b.jpg,stimuli/objects/042b.jpg,stimuli/objects/042a.jpg,dist1,dist2,lure,target,0,1,1,1,0,9,9,23,,,,,,,744.5038580335677,745.5285612717271,745.5285612717271,745.5285612717271,745.5285612717271,748.5385318249464,748.5385318249464,748.5385318249464,748.5385318249464,None,,,,,,,,,,ST03_112822,2022-11-29_14h20.36.991,Hippopolis_Updating,2022.2.2,60.01777042595094,
Hippopolis,stimuli/subj_files/ST03_112822_cityA.csv,./stimuli/seattle.jpg,./stimuli/street_plate1.png,./stimuli/videos/hippopolis_part1.mp4,MÁRVÁNY UTCA,stimuli/scenes/085a.jpg,scene,1,stimuli/scenes/031a.jpg,stimuli/scenes/011b.jpg,stimuli/scenes/031b.jpg,stimuli/scenes/011a.jpg,stimuli/scenes/031a.jpg,dist2,lure,dist1,target,0,1,1,1,0,10,10,5,,,,,,,750.5128716211766,751.5453092772514,751.5453092772514,751.5453092772514,751.5453092772514,754.5341239310801,754.5341239310801,754.5341239310801,754.5341239310801,None,,,,,,,,,,ST03_112822,2022-11-29_14h20.36.991,Hippopolis_Updating,2022.2.2,60.01777042595094,
Hippopolis,stimuli/subj_files/ST03_112822_cityA.csv,./stimuli/seattle.jpg,./stimuli/street_plate1.png,./stimuli/videos/hippopolis_part1.mp4,FOLYÓ UTCA,stimuli/objects/117a.jpg,object,2,stimuli/scenes/060a.jpg,stimuli/scenes/060b.jpg,stimuli/scenes/060a.jpg,stimuli/objects/099a.jpg,stimuli/objects/099b.jpg,lure,target,dist1,dist2,0,1,1,1,0,11,11,56,,,,,,,756.5253672357649,757.5452200174332,757.5452200174332,757.5452200174332,757.5452200174332,760.5524717532098,760.5524717532098,760.5524717532098,760.5524717532098,None,,,,,,,,,,ST03_112822,2022-11-29_14h20.36.991,Hippopolis_Updating,2022.2.2,60.01777042595094,
Hippopolis,stimuli/subj_files/ST03_112822_cityA.csv,./stimuli/seattle.jpg,./stimuli/street_plate1.png,./stimuli/videos/hippopolis_part1.mp4,TELEP UTCA,stimuli/objects/073a.jpg,object,0,stimuli/objects/073a.jpg,stimuli/scenes/090a.jpg,stimuli/scenes/090b.jpg,stimuli/objects/073a.jpg,stimuli/objects/073b.jpg,dist1,dist2,target,lure,0,1,1,1,0,12,12,68,,,,,,,762.5256362557411,763.5452996362001,763.5452996362001,763.5452996362001,763.5452996362001,766.5586474072188,766.5586474072188,766.5586474072188,766.5586474072188,None,,,,,,,,,,ST03_112822,2022-11-29_14h20.36.991,Hippopolis_Updating,2022.2.2,60.01777042595094,
Hippopolis,stimuli/subj_files/ST03_112822_cityA.csv,./stimuli/seattle.jpg,./stimuli/street_plate1.png,./stimuli/videos/hippopolis_part1.mp4,LABDA UTCA,stimuli/scenes/070a.jpg,scene,2,stimuli/objects/064a.jpg,stimuli/objects/060b.jpg,stimuli/objects/060a.jpg,stimuli/objects/064b.jpg,stimuli/objects/064a.jpg,dist2,dist1,lure,target,0,1,1,1,0,13,13,50,,,,,,,768.527984354645,769.5455509293824,769.5455509293824,769.5455509293824,769.5455509293824,772.5594342537224,772.5594342537224,772.5594342537224,772.5594342537224,None,,,,,,,,,,ST03_112822,2022-11-29_14h20.36.991,Hippopolis_Updating,2022.2.2,60.01777042595094,
Hippopolis,stimuli/subj_files/ST03_112822_cityA.csv,./stimuli/seattle.jpg,./stimuli/street_plate1.png,./stimuli/videos/hippopolis_part1.mp4,HENTES UTCA,stimuli/scenes/046a.jpg,scene,0,stimuli/scenes/046a.jpg,stimuli/scenes/046b.jpg,stimuli/scenes/046a.jpg,stimuli/scenes/032a.jpg,stimuli/scenes/032b.jpg,lure,target,dist1,dist2,0,1,1,1,0,14,14,62,,,,,,,774.544790206477,775.5630503259599,775.5630503259599,775.5630503259599,775.5630503259599,778.5767551325262,778.5767551325262,778.5767551325262,778.5767551325262,None,,,,,,,,,,ST03_112822,2022-11-29_14h20.36.991,Hippopolis_Updating,2022.2.2,60.01777042595094,
Hippopolis,stimuli/subj_files/ST03_112822_cityA.csv,./stimuli/seattle.jpg,./stimuli/street_plate1.png,./stimuli/videos/hippopolis_part1.mp4,SÜTŐ UTCA,stimuli/objects/044a.jpg,object,1,stimuli/objects/118a.jpg,stimuli/objects/118b.jpg,stimuli/objects/070b.jpg,stimuli/objects/070a.jpg,stimuli/objects/118a.jpg,lure,dist2,dist1,target,0,1,1,1,0,15,15,41,,,,,,,780.5521200057119,781.5622398424894,781.5622398424894,781.5622398424894,781.5622398424894,784.5927007421851,784.5927007421851,784.5927007421851,784.5927007421851,None,,,,,,,,,,ST03_112822,2022-11-29_14h20.36.991,Hippopolis_Updating,2022.2.2,60.01777042595094,
Hippopolis,stimuli/subj_files/ST03_112822_cityA.csv,./stimuli/seattle.jpg,./stimuli/street_plate1.png,./stimuli/videos/hippopolis_part1.mp4,ÁLOM UTCA,stimuli/scenes/119a.jpg,scene,2,stimuli/objects/087a.jpg,stimuli/scenes/081b.jpg,stimuli/objects/087b.jpg,stimuli/objects/087a.jpg,stimuli/scenes/081a.jpg,dist2,lure,target,dist1,0,1,1,1,0,16,16,73,,,,,,,786.5556060764939,787.5659271348268,787.5659271348268,787.5659271348268,787.5659271348268,790.5931420587003,790.5931420587003,790.5931420587003,790.5931420587003,None,,,,,,,,,,ST03_112822,2022-11-29_14h20.36.991,Hippopolis_Updating,2022.2.2,60.01777042595094,
Hippopolis,stimuli/subj_files/ST03_112822_cityA.csv,./stimuli/seattle.jpg,./stimuli/street_plate1.png,./stimuli/videos/hippopolis_part1.mp4,SZALVÉTA UTCA,stimuli/objects/018a.jpg,object,2,stimuli/scenes/014a.jpg,stimuli/scenes/014b.jpg,stimuli/scenes/014a.jpg,stimuli/scenes/043a.jpg,stimuli/scenes/043b.jpg,lure,target,dist1,dist2,0,1,1,1,0,17,17,24,,,,,,,792.5598488245159,793.5756171606481,793.5756171606481,793.5756171606481,793.5756171606481,796.6004519537091,796.6004519537091,796.6004519537091,796.6004519537091,None,793.5756171606481,,,,,,,,,ST03_112822,2022-11-29_14h20.36.991,Hippopolis_Updating,2022.2.2,60.01777042595094,
Hippopolis,stimuli/subj_files/ST03_112822_cityA.csv,./stimuli/seattle.jpg,./stimuli/street_plate1.png,./stimuli/videos/hippopolis_part1.mp4,RÁDIÓ UTCA,stimuli/objects/096a.jpg,object,2,stimuli/scenes/081a.jpg,stimuli/objects/086a.jpg,stimuli/scenes/081b.jpg,stimuli/objects/086b.jpg,stimuli/scenes/081a.jpg,dist1,lure,dist2,target,0,1,1,1,0,18,18,61,,,,,,,798.566006751731,799.5951129067689,799.5951129067689,799.5951129067689,799.5951129067689,802.6034130454063,802.6034130454063,802.6034130454063,802.6034130454063,None,,,,,,,,,,ST03_112822,2022-11-29_14h20.36.991,Hippopolis_Updating,2022.2.2,60.01777042595094,
Hippopolis,stimuli/subj_files/ST03_112822_cityA.csv,./stimuli/seattle.jpg,./stimuli/street_plate1.png,./stimuli/videos/hippopolis_part1.mp4,HORDÓ UTCA,stimuli/scenes/001a.jpg,scene,2,stimuli/objects/068a.jpg,stimuli/scenes/052a.jpg,stimuli/objects/068a.jpg,stimuli/scenes/052b.jpg,stimuli/objects/068b.jpg,dist1,target,dist2,lure,0,1,1,1,0,19,19,51,,,,,,,804.571945419535,805.5988222807646,805.5988222807646,805.5988222807646,805.5988222807646,808.6044561602175,808.6044561602175,808.6044561602175,808.6044561602175,None,,,,,,,,,,ST03_112822,2022-11-29_14h20.36.991,Hippopolis_Updating,2022.2.2,60.01777042595094,
Hippopolis,stimuli/subj_files/ST03_112822_cityA.csv,./stimuli/seattle.jpg,./stimuli/street_plate1.png,./stimuli/videos/hippopolis_part1.mp4,MOGYORÓ UTCA,stimuli/objects/094a.jpg,object,0,stimuli/objects/094a.jpg,stimuli/objects/094a.jpg,stimuli/objects/094b.jpg,stimuli/scenes/027b.jpg,stimuli/scenes/027a.jpg,target,lure,dist2,dist1,0,1,1,1,0,20,20,16,,,,,,,810.5761573780328,811.5868712384254,811.5868712384254,811.5868712384254,811.5868712384254,814.5962598994374,814.5962598994374,814.5962598994374,814.5962598994374,None,,,,,,,,,,ST03_112822,2022-11-29_14h20.36.991,Hippopolis_Updating,2022.2.2,60.01777042595094,
Hippopolis,stimuli/subj_files/ST03_112822_cityA.csv,./stimuli/seattle.jpg,./stimuli/street_plate1.png,./stimuli/videos/hippopolis_part1.mp4,TERÍTŐ UTCA,stimuli/scenes/115a.jpg,scene,2,stimuli/objects/031a.jpg,stimuli/objects/051b.jpg,stimuli/objects/031a.jpg,stimuli/objects/051a.jpg,stimuli/objects/031b.jpg,dist2,target,dist1,lure,0,1,1,1,0,21,21,1,,,,,,,816.5775690358132,817.5885889250785,817.5885889250785,817.5885889250785,817.5885889250785,820.6165903862566,820.6165903862566,820.6165903862566,820.6165903862566,None,,,,,,,,,,ST03_112822,2022-11-29_14h20.36.991,Hippopolis_Updating,2022.2.2,60.01777042595094,
Hippopolis,stimuli/subj_files/ST03_112822_cityA.csv,./stimuli/seattle.jpg,./stimuli/street_plate1.png,./stimuli/videos/hippopolis_part1.mp4,ZEBRA UTCA,stimuli/objects/090a.jpg,object,1,stimuli/objects/075a.jpg,stimuli/scenes/066b.jpg,stimuli/objects/075a.jpg,stimuli/scenes/066a.jpg,stimuli/objects/075b.jpg,dist2,target,dist1,lure,0,1,1,1,0,22,22,66,,,,,,,822.5925222244114,823.6112233493477,823.6112233493477,823.6112233493477,823.6112233493477,826.6243745647371,826.6243745647371,826.6243745647371,826.6243745647371,None,,,,,,,,,,ST03_112822,2022-11-29_14h20.36.991,Hippopolis_Updating,2022.2.2,60.01777042595094,
Hippopolis,stimuli/subj_files/ST03_112822_cityA.csv,./stimuli/seattle.jpg,./stimuli/street_plate1.png,./stimuli/videos/hippopolis_part1.mp4,POGÁCSA UTCA,stimuli/objects/013a.jpg,object,2,stimuli/scenes/043a.jpg,stimuli/objects/068a.jpg,stimuli/objects/068b.jpg,stimuli/scenes/043a.jpg,stimuli/scenes/043b.jpg,dist1,dist2,target,lure,0,1,1,1,0,23,23,45,,,,,,,828.6075397897512,829.6216669436544,829.6216669436544,829.6216669436544,829.6216669436544,832.6506067104638,832.6506067104638,832.6506067104638,832.6506067104638,None,,,,,,,,,,ST03_112822,2022-11-29_14h20.36.991,Hippopolis_Updating,2022.2.2,60.01777042595094,
Hippopolis,stimuli/subj_files/ST03_112822_cityA.csv,./stimuli/seattle.jpg,./stimuli/street_plate1.png,./stimuli/videos/hippopolis_part1.mp4,MANDARIN UTCA,stimuli/scenes/013a.jpg,scene,2,stimuli/objects/099a.jpg,stimuli/objects/099a.jpg,stimuli/objects/025a.jpg,stimuli/objects/099b.jpg,stimuli/objects/025b.jpg,target,dist1,lure,dist2,0,1,1,1,0,24,24,54,,,,,,,834.6181933134794,835.6432330608368,835.6432330608368,835.6432330608368,835.6432330608368,838.6718052178621,838.6718052178621,838.6718052178621,838.6718052178621,None,,,,,,,,,,ST03_112822,2022-11-29_14h20.36.991,Hippopolis_Updating,2022.2.2,60.01777042595094,
Hippopolis,stimuli/subj_files/ST03_112822_cityA.csv,./stimuli/seattle.jpg,./stimuli/street_plate1.png,./stimuli/videos/hippopolis_part1.mp4,LÉPCSŐ UTCA,stimuli/objects/009a.jpg,object,0,stimuli/objects/009a.jpg,stimuli/scenes/098b.jpg,stimuli/objects/009b.jpg,stimuli/objects/009a.jpg,stimuli/scenes/098a.jpg,dist2,lure,target,dist1,0,1,1,1,0,25,25,15,,,,,,,840.6334677711129,841.6636288594455,841.6636288594455,841.6636288594455,841.6636288594455,844.6567083448172,844.6567083448172,844.6567083448172,844.6567083448172,None,,,,,,,,,,ST03_112822,2022-11-29_14h20.36.991,Hippopolis_Updating,2022.2.2,60.01777042595094,
Hippopolis,stimuli/subj_files/ST03_112822_cityA.csv,./stimuli/seattle.jpg,./stimuli/street_plate1.png,./stimuli/videos/hippopolis_part1.mp4,ZSEMLE UTCA,stimuli/objects/001a.jpg,object,2,stimuli/scenes/042a.jpg,stimuli/scenes/096a.jpg,stimuli/scenes/096b.jpg,stimuli/scenes/042a.jpg,stimuli/scenes/042b.jpg,dist1,dist2,target,lure,0,1,1,1,0,26,26,7,,,,,,,846.6405496969819,847.6511245369911,847.6511245369911,847.6511245369911,847.6511245369911,850.6708930358291,850.6708930358291,850.6708930358291,850.6708930358291,None,,,,,,,,,,ST03_112822,2022-11-29_14h20.36.991,Hippopolis_Updating,2022.2.2,60.01777042595094,
Hippopolis,stimuli/subj_files/ST03_112822_cityA.csv,./stimuli/seattle.jpg,./stimuli/street_plate1.png,./stimuli/videos/hippopolis_part1.mp4,LEGELŐ UTCA,stimuli/objects/002a.jpg,object,1,stimuli/objects/106a.jpg,stimuli/objects/106a.jpg,stimuli/scenes/051b.jpg,stimuli/objects/106b.jpg,stimuli/scenes/051a.jpg,target,dist2,lure,dist1,0,1,1,1,0,27,27,71,,,,,,,852.6572059560567,853.6814212240279,853.6814212240279,853.6814212240279,853.6814212240279,856.6908910572529,856.6908910572529,856.6908910572529,856.6908910572529,None,,,,,,,,,,ST03_112822,2022-11-29_14h20.36.991,Hippopolis_Updating,2022.2.2,60.01777042595094,
Hippopolis,stimuli/subj_files/ST03_112822_cityA.csv,./stimuli/seattle.jpg,./stimuli/street_plate1.png,./stimuli/videos/hippopolis_part1.mp4,KERET UTCA,stimuli/scenes/025a.jpg,scene,0,stimuli/scenes/025a.jpg,stimuli/scenes/025a.jpg,stimuli/scenes/025b.jpg,stimuli/objects/072b.jpg,stimuli/objects/072a.jpg,target,lure,dist2,dist1,0,1,1,1,0,28,28,12,,,,,,,858.6737841516733,859.7000822294503,859.7000822294503,859.7000822294503,859.7000822294503,862.6985069811344,862.6985069811344,862.6985069811344,862.6985069811344,None,,,,,,,,,,ST03_112822,2022-11-29_14h20.36.991,Hippopolis_Updating,2022.2.2,60.01777042595094,
Hippopolis,stimuli/subj_files/ST03_112822_cityA.csv,./stimuli/seattle.jpg,./stimuli/street_plate1.png,./stimuli/videos/hippopolis_part1.mp4,ECSET UTCA,stimuli/scenes/098a.jpg,scene,0,stimuli/scenes/098a.jpg,stimuli/scenes/082b.jpg,stimuli/scenes/098b.jpg,stimuli/scenes/082a.jpg,stimuli/scenes/098a.jpg,dist2,lure,dist1,target,0,1,1,1,0,29,29,13,,,,,,,864.6856978721917,865.7135752420872,865.7135752420872,865.7135752420872,865.7135752420872,868.70739989914,868.70739989914,868.70739989914,868.70739989914,None,,,,,,,,,,ST03_112822,2022-11-29_14h20.36.991,Hippopolis_Updating,2022.2.2,60.01777042595094,
Hippopolis,stimuli/subj_files/ST03_112822_cityA.csv,./stimuli/seattle.jpg,./stimuli/street_plate1.png,./stimuli/videos/hippopolis_part1.mp4,BOHÓC UTCA,stimuli/objects/085a.jpg,object,0,stimuli/objects/085a.jpg,stimuli/objects/113b.jpg,stimuli/objects/113a.jpg,stimuli/objects/085b.jpg,stimuli/objects/085a.jpg,dist2,dist1,lure,target,0,1,1,1,0,30,30,60,,,,,,,870.7020574305207,871.7290363032371,871.7290363032371,871.7290363032371,871.7290363032371,874.7318583745509,874.7318583745509,874.7318583745509,874.7318583745509,None,,,,,,,,,,ST03_112822,2022-11-29_14h20.36.991,Hippopolis_Updating,2022.2.2,60.01777042595094,
Hippopolis,stimuli/subj_files/ST03_112822_cityA.csv,./stimuli/seattle.jpg,./stimuli/street_plate1.png,./stimuli/videos/hippopolis_part1.mp4,KIRAKÓ UTCA,stimuli/scenes/004a.jpg,scene,2,stimuli/objects/071a.jpg,stimuli/objects/071b.jpg,stimuli/scenes/014b.jpg,stimuli/objects/071a.jpg,stimuli/scenes/014a.jpg,lure,dist2,target,dist1,0,1,1,1,0,31,31,37,,,,,,,876.7117860224098,877.7297186497599,877.7297186497599,877.7297186497599,877.7297186497599,880.7342120707035,880.7342120707035,880.7342120707035,880.7342120707035,None,,,,,,,,,,ST03_112822,2022-11-29_14h20.36.991,Hippopolis_Updating,2022.2.2,60.01777042595094,
Hippopolis,stimuli/subj_files/ST03_112822_cityA.csv,./stimuli/seattle.jpg,./stimuli/street_plate1.png,./stimuli/videos/hippopolis_part1.mp4,PÁFRÁNY UTCA,stimuli/objects/116a.jpg,object,0,stimuli/objects/116a.jpg,stimuli/objects/116a.jpg,stimuli/objects/091b.jpg,stimuli/objects/091a.jpg,stimuli/objects/116b.jpg,target,dist2,dist1,lure,0,1,1,1,0,32,32,28,,,,,,,882.7235846705735,883.7435310669243,883.7435310669243,883.7435310669243,883.7435310669243,886.7502391636372,886.7502391636372,886.7502391636372,886.7502391636372,None,,,,,,,,,,ST03_112822,2022-11-29_14h20.36.991,Hippopolis_Updating,2022.2.2,60.01777042595094,
Hippopolis,stimuli/subj_files/ST03_112822_cityA.csv,./stimuli/seattle.jpg,./stimuli/street_plate1.png,./stimuli/videos/hippopolis_part1.mp4,KATONA UTCA,stimuli/objects/091a.jpg,object,0,stimuli/objects/091a.jpg,stimuli/objects/091a.jpg,stimuli/objects/091b.jpg,stimuli/objects/085a.jpg,stimuli/objects/085b.jpg,target,lure,dist1,dist2,0,1,1,1,0,33,33,77,,,,,,,888.7315249759704,889.7404751181602,889.7404751181602,889.7404751181602,889.7404751181602,892.7565544582903,892.7565544582903,892.7565544582903,892.7565544582903,None,,,,,,,,,,ST03_112822,2022-11-29_14h20.36.991,Hippopolis_Updating,2022.2.2,60.01777042595094,
Hippopolis,stimuli/subj_files/ST03_112822_cityA.csv,./stimuli/seattle.jpg,./stimuli/street_plate1.png,./stimuli/videos/hippopolis_part1.mp4,KÖNYVTÁR UTCA,stimuli/scenes/033a.jpg,scene,1,stimuli/scenes/097a.jpg,stimuli/scenes/097a.jpg,stimuli/scenes/097b.jpg,stimuli/scenes/094b.jpg,stimuli/scenes/094a.jpg,target,lure,dist2,dist1,0,1,1,1,0,34,34,63,,,,,,,894.7369657214731,895.757515469566,895.757515469566,895.757515469566,895.757515469566,898.7656694352627,898.7656694352627,898.7656694352627,898.7656694352627,None,,,,,,,,,,ST03_112822,2022-11-29_14h20.36.991,Hippopolis_Updating,2022.2.2,60.01777042595094,
Hippopolis,stimuli/subj_files/ST03_112822_cityA.csv,./stimuli/seattle.jpg,./stimuli/street_plate1.png,./stimuli/videos/hippopolis_part1.mp4,TOLLTARTÓ UTCA,stimuli/objects/041a.jpg,object,0,stimuli/objects/041a.jpg,stimuli/objects/100b.jpg,stimuli/objects/100a.jpg,stimuli/objects/041a.jpg,stimuli/objects/041b.jpg,dist2,dist1,target,lure,0,1,1,1,0,35,35,32,,,,,,,900.7398204486817,901.7641573213041,901.7641573213041,901.7641573213041,901.7641573213041,904.783236630261,904.783236630261,904.783236630261,904.783236630261,None,,,,,,,,,,ST03_112822,2022-11-29_14h20.36.991,Hippopolis_Updating,2022.2.2,60.01777042595094,
Hippopolis,stimuli/subj_files/ST03_112822_cityA.csv,./stimuli/seattle.jpg,./stimuli/street_plate1.png,./stimuli/videos/hippopolis_part1.mp4,EGÉR UTCA,stimuli/scenes/056a.jpg,scene,1,stimuli/scenes/003a.jpg,stimuli/scenes/105a.jpg,stimuli/scenes/003b.jpg,stimuli/scenes/105b.jpg,stimuli/scenes/003a.jpg,dist1,lure,dist2,target,0,1,1,1,0,36,36,43,,,,,,,906.7567065414041,907.781193939969,907.781193939969,907.781193939969,907.781193939969,910.771891117096,910.771891117096,910.771891117096,910.771891117096,None,,,,,,,,,,ST03_112822,2022-11-29_14h20.36.991,Hippopolis_Updating,2022.2.2,60.01777042595094,
Hippopolis,stimuli/subj_files/ST03_112822_cityA.csv,./stimuli/seattle.jpg,./stimuli/street_plate1.png,./stimuli/videos/hippopolis_part1.mp4,RIBIZLI UTCA,stimuli/objects/065a.jpg,object,1,stimuli/objects/023a.jpg,stimuli/objects/023a.jpg,stimuli/objects/023b.jpg,stimuli/scenes/069a.jpg,stimuli/scenes/069b.jpg,target,lure,dist1,dist2,0,1,1,1,0,37,37,4,,,,,,,912.7672816906124,913.7963383961469,913.7963383961469,913.7963383961469,913.7963383961469,916.7879119887948,916.7879119887948,916.7879119887948,916.7879119887948,None,,,,,,,,,,ST03_112822,2022-11-29_14h20.36.991,Hippopolis_Updating,2022.2.2,60.01777042595094,
Hippopolis,stimuli/subj_files/ST03_112822_cityA.csv,./stimuli/seattle.jpg,./stimuli/street_plate1.png,./stimuli/videos/hippopolis_part1.mp4,KÓKUSZ UTCA,stimuli/scenes/020a.jpg,scene,1,stimuli/scenes/074a.jpg,stimuli/scenes/100a.jpg,stimuli/scenes/100b.jpg,stimuli/scenes/074b.jpg,stimuli/scenes/074a.jpg,dist1,dist2,lure,target,0,1,1,1,0,38,38,44,,,,,,,918.7842206545174,919.8101691622287,919.8101691622287,919.8101691622287,919.8101691622287,922.8222321663052,922.8222321663052,922.8222321663052,922.8222321663052,None,,,,,,,,,,ST03_112822,2022-11-29_14h20.36.991,Hippopolis_Updating,2022.2.2,60.01777042595094,
Hippopolis,stimuli/subj_files/ST03_112822_cityA.csv,./stimuli/seattle.jpg,./stimuli/street_plate1.png,./stimuli/videos/hippopolis_part1.mp4,KORONG UTCA,stimuli/objects/103a.jpg,object,1,stimuli/objects/070a.jpg,stimuli/objects/070a.jpg,stimuli/scenes/035a.jpg,stimuli/scenes/035b.jpg,stimuli/objects/070b.jpg,target,dist1,dist2,lure,0,1,1,1,0,39,39,53,,,,,,,924.7849950604141,925.8139332719147,925.8139332719147,925.8139332719147,925.8139332719147,928.8197083491832,928.8197083491832,928.8197083491832,928.8197083491832,None,,,,,,,,,,ST03_112822,2022-11-29_14h20.36.991,Hippopolis_Updating,2022.2.2,60.01777042595094,
Hippopolis,stimuli/subj_files/ST03_112822_cityA.csv,./stimuli/seattle.jpg,./stimuli/street_plate1.png,./stimuli/videos/hippopolis_part1.mp4,KOCSI UTCA,stimuli/scenes/022a.jpg,scene,1,stimuli/scenes/071a.jpg,stimuli/objects/089b.jpg,stimuli/objects/089a.jpg,stimuli/scenes/071a.jpg,stimuli/scenes/071b.jpg,dist2,dist1,target,lure,0,1,1,1,0,40,40,20,,,,,,,930.7917557172477,931.80409302935,931.80409302935,931.80409302935,931.80409302935,934.8203567974269,934.8203567974269,934.8203567974269,934.8203567974269,None,,,,,,,,,,ST03_112822,2022-11-29_14h20.36.991,Hippopolis_Updating,2022.2.2,60.01777042595094,
Hippopolis,stimuli/subj_files/ST03_112822_cityA.csv,./stimuli/seattle.jpg,./stimuli/street_plate1.png,./stimuli/videos/hippopolis_part1.mp4,SAJTÓ UTCA,stimuli/scenes/090a.jpg,scene,0,stimuli/scenes/090a.jpg,stimuli/scenes/090a.jpg,stimuli/scenes/090b.jpg,stimuli/objects/009b.jpg,stimuli/objects/009a.jpg,target,lure,dist2,dist1,0,1,1,1,0,41,41,52,,,,,,,936.8007655721158,937.8266210891306,937.8266210891306,937.8266210891306,937.8266210891306,940.8208111785352,940.8208111785352,940.8208111785352,940.8208111785352,None,,,,,,,,,,ST03_112822,2022-11-29_14h20.36.991,Hippopolis_Updating,2022.2.2,60.01777042595094,
Hippopolis,stimuli/subj_files/ST03_112822_cityA.csv,./stimuli/seattle.jpg,./stimuli/street_plate1.png,./stimuli/videos/hippopolis_part1.mp4,DOMINÓ UTCA,stimuli/scenes/053a.jpg,scene,1,stimuli/scenes/105a.jpg,stimuli/scenes/097a.jpg,stimuli/scenes/097b.jpg,stimuli/scenes/105a.jpg,stimuli/scenes/105b.jpg,dist1,dist2,target,lure,0,1,1,1,0,42,42,42,,,,,,,942.8094162158668,943.8192138504237,943.8192138504237,943.8192138504237,943.8192138504237,946.8358324766159,946.8358324766159,946.8358324766159,946.8358324766159,None,,,,,,,,,,ST03_112822,2022-11-29_14h20.36.991,Hippopolis_Updating,2022.2.2,60.01777042595094,
Hippopolis,stimuli/subj_files/ST03_112822_cityA.csv,./stimuli/seattle.jpg,./stimuli/street_plate1.png,./stimuli/videos/hippopolis_part1.mp4,FÉSZEK UTCA,stimuli/scenes/107a.jpg,scene,2,stimuli/objects/020a.jpg,stimuli/objects/020a.jpg,stimuli/objects/020b.jpg,stimuli/scenes/047b.jpg,stimuli/scenes/047a.jpg,target,lure,dist2,dist1,0,1,1,1,0,43,43,22,,,,,,,948.8235946856439,949.8438237849623,949.8438237849623,949.8438237849623,949.8438237849623,952.842070331797,952.842070331797,952.842070331797,952.842070331797,None,,,,,,,,,,ST03_112822,2022-11-29_14h20.36.991,Hippopolis_Updating,2022.2.2,60.01777042595094,
Hippopolis,stimuli/subj_files/ST03_112822_cityA.csv,./stimuli/seattle.jpg,./stimuli/street_plate1.png,./stimuli/videos/hippopolis_part1.mp4,SÜTEMÉNY UTCA,stimuli/scenes/072a.jpg,scene,2,stimuli/objects/025a.jpg,stimuli/objects/025a.jpg,stimuli/objects/025b.jpg,stimuli/objects/031b.jpg,stimuli/objects/031a.jpg,target,lure,dist2,dist1,0,1,1,1,0,44,44,25,,,,,,,954.8248029462993,955.8438418246806,955.8438418246806,955.8438418246806,955.8438418246806,958.8563358839601,958.8563358839601,958.8563358839601,958.8563358839601,space,,960.8353046979755,960.8353046979755,5.071636773645878,,,,,,ST03_112822,2022-11-29_14h20.36.991,Hippopolis_Updating,2022.2.2,60.01777042595094,
Hippopolis,stimuli/subj_files/ST03_112822_cityA.csv,./stimuli/seattle.jpg,./stimuli/street_plate1.png,./stimuli/videos/hippopolis_part1.mp4,ÜVEG UTCA,stimuli/scenes/065a.jpg,scene,2,stimuli/objects/050a.jpg,stimuli/objects/050a.jpg,stimuli/objects/050b.jpg,stimuli/objects/015b.jpg,stimuli/objects/015a.jpg,target,lure,dist2,dist1,0,1,1,1,0,45,45,10,,,,,,,965.9370653685182,966.9633544273674,966.9633544273674,966.9633544273674,966.9633544273674,969.9812170788646,969.9812170788646,969.9812170788646,969.9812170788646,None,,,,,,,,,,ST03_112822,2022-11-29_14h20.36.991,Hippopolis_Updating,2022.2.2,60.01777042595094,
Hippopolis,stimuli/subj_files/ST03_112822_cityA.csv,./stimuli/seattle.jpg,./stimuli/street_plate1.png,./stimuli/videos/hippopolis_part1.mp4,BÚJÓCSKA UTCA,stimuli/scenes/029a.jpg,scene,2,stimuli/objects/093a.jpg,stimuli/objects/093a.jpg,stimuli/scenes/106b.jpg,stimuli/scenes/106a.jpg,stimuli/objects/093b.jpg,target,dist2,dist1,lure,0,1,1,1,0,46,46,65,,,,,,,971.9527708794922,972.9765274133533,972.9765274133533,972.9765274133533,972.9765274133533,975.9803935345262,975.9803935345262,975.9803935345262,975.9803935345262,None,,,,,,,,,,ST03_112822,2022-11-29_14h20.36.991,Hippopolis_Updating,2022.2.2,60.01777042595094,
Hippopolis,stimuli/subj_files/ST03_112822_cityA.csv,./stimuli/seattle.jpg,./stimuli/street_plate1.png,./stimuli/videos/hippopolis_part1.mp4,HEGEDŰ UTCA,stimuli/scenes/110a.jpg,scene,0,stimuli/scenes/110a.jpg,stimuli/scenes/110a.jpg,stimuli/objects/073b.jpg,stimuli/scenes/110b.jpg,stimuli/objects/073a.jpg,target,dist2,lure,dist1,0,1,1,1,0,47,47,30,,,,,,,977.9702777396888,978.9840136487037,978.9840136487037,978.9840136487037,978.9840136487037,981.9878259655088,981.9878259655088,981.9878259655088,981.9878259655088,None,,,,,,,,,,ST03_112822,2022-11-29_14h20.36.991,Hippopolis_Updating,2022.2.2,60.01777042595094,
Hippopolis,stimuli/subj_files/ST03_112822_cityA.csv,./stimuli/seattle.jpg,./stimuli/street_plate1.png,./stimuli/videos/hippopolis_part1.mp4,KARTON UTCA,stimuli/objects/066a.jpg,object,1,stimuli/objects/114a.jpg,stimuli/objects/048a.jpg,stimuli/objects/114a.jpg,stimuli/objects/048b.jpg,stimuli/objects/114b.jpg,dist1,target,dist2,lure,0,1,1,1,0,48,48,2,,,,,,,983.9740881901234,984.9961780421436,984.9961780421436,984.9961780421436,984.9961780421436,987.9973228555173,987.9973228555173,987.9973228555173,987.9973228555173,None,,,,,,,,,,ST03_112822,2022-11-29_14h20.36.991,Hippopolis_Updating,2022.2.2,60.01777042595094,
Hippopolis,stimuli/subj_files/ST03_112822_cityA.csv,./stimuli/seattle.jpg,./stimuli/street_plate1.png,./stimuli/videos/hippopolis_part1.mp4,CUKOR UTCA,stimuli/scenes/088a.jpg,scene,2,stimuli/objects/015a.jpg,stimuli/objects/015b.jpg,stimuli/objects/071a.jpg,stimuli/objects/015a.jpg,stimuli/objects/071b.jpg,lure,dist1,target,dist2,0,1,1,1,0,49,49,74,,,,,,,989.9797640573233,990.9894114751369,990.9894114751369,990.9894114751369,990.9894114751369,994.0079060923308,994.0079060923308,994.0079060923308,994.0079060923308,None,,,,,,,,,,ST03_112822,2022-11-29_14h20.36.991,Hippopolis_Updating,2022.2.2,60.01777042595094,
Hippopolis,stimuli/subj_files/ST03_112822_cityA.csv,./stimuli/seattle.jpg,./stimuli/street_plate1.png,./stimuli/videos/hippopolis_part1.mp4,SZILVA UTCA,stimuli/objects/011a.jpg,object,2,stimuli/scenes/039a.jpg,stimuli/objects/020a.jpg,stimuli/scenes/039a.jpg,stimuli/scenes/039b.jpg,stimuli/objects/020b.jpg,dist1,target,lure,dist2,0,1,1,1,0,50,50,9,,,,,,,995.9802809506655,997.0084292050451,997.0084292050451,997.0084292050451,997.0084292050451,999.9988296814263,999.9988296814263,999.9988296814263,999.9988296814263,None,,,,,,,,,,ST03_112822,2022-11-29_14h20.36.991,Hippopolis_Updating,2022.2.2,60.01777042595094,
Hippopolis,stimuli/subj_files/ST03_112822_cityA.csv,./stimuli/seattle.jpg,./stimuli/street_plate1.png,./stimuli/videos/hippopolis_part1.mp4,TERASZ UTCA,stimuli/objects/039a.jpg,object,1,stimuli/objects/098a.jpg,stimuli/objects/098b.jpg,stimuli/scenes/113a.jpg,stimuli/objects/098a.jpg,stimuli/scenes/113b.jpg,lure,dist1,target,dist2,0,1,1,1,0,51,51,33,,,,,,,1001.9833823051304,1003.0093202386051,1003.0093202386051,1003.0093202386051,1003.0093202386051,1006.0009249318391,1006.0009249318391,1006.0009249318391,1006.0009249318391,None,,,,,,,,,,ST03_112822,2022-11-29_14h20.36.991,Hippopolis_Updating,2022.2.2,60.01777042595094,
Hippopolis,stimuli/subj_files/ST03_112822_cityA.csv,./stimuli/seattle.jpg,./stimuli/street_plate1.png,./stimuli/videos/hippopolis_part1.mp4,TÜKÖR UTCA,stimuli/objects/069a.jpg,object,2,stimuli/scenes/026a.jpg,stimuli/scenes/026b.jpg,stimuli/scenes/060b.jpg,stimuli/scenes/060a.jpg,stimuli/scenes/026a.jpg,lure,dist2,dist1,target,0,1,1,1,0,52,52,34,,,,,,,1007.9872621111572,1009.0092782527208,1009.0092782527208,1009.0092782527208,1009.0092782527208,1012.0148474443704,1012.0148474443704,1012.0148474443704,1012.0148474443704,None,,,,,,,,,,ST03_112822,2022-11-29_14h20.36.991,Hippopolis_Updating,2022.2.2,60.01777042595094,
Hippopolis,stimuli/subj_files/ST03_112822_cityA.csv,./stimuli/seattle.jpg,./stimuli/street_plate1.png,./stimuli/videos/hippopolis_part1.mp4,FÓKA UTCA,stimuli/scenes/080a.jpg,scene,2,stimuli/objects/086a.jpg,stimuli/objects/086b.jpg,stimuli/objects/086a.jpg,stimuli/scenes/042a.jpg,stimuli/scenes/042b.jpg,lure,target,dist1,dist2,0,1,1,1,0,53,53,6,,,,,,,1014.0027940813452,1015.0297067072242,1015.0297067072242,1015.0297067072242,1015.0297067072242,1018.0301299877465,1018.0301299877465,1018.0301299877465,1018.0301299877465,None,,,,,,,,,,ST03_112822,2022-11-29_14h20.36.991,Hippopolis_Updating,2022.2.2,60.01777042595094,
Hippopolis,stimuli/subj_files/ST03_112822_cityA.csv,./stimuli/seattle.jpg,./stimuli/street_plate1.png,./stimuli/videos/hippopolis_part1.mp4,VIHAR UTCA,stimuli/objects/084a.jpg,object,0,stimuli/objects/084a.jpg,stimuli/objects/084a.jpg,stimuli/scenes/067a.jpg,stimuli/scenes/067b.jpg,stimuli/objects/084b.jpg,target,dist1,dist2,lure,0,1,1,1,0,54,54,38,,,,,,,1020.0083862859756,1021.0195088088512,1021.0195088088512,1021.0195088088512,1021.0195088088512,1024.0341550316662,1024.0341550316662,1024.0341550316662,1024.0341550316662,None,,,,,,,,,,ST03_112822,2022-11-29_14h20.36.991,Hippopolis_Updating,2022.2.2,60.01777042595094,
Hippopolis,stimuli/subj_files/ST03_112822_cityA.csv,./stimuli/seattle.jpg,./stimuli/street_plate1.png,./stimuli/videos/hippopolis_part1.mp4,CITROM UTCA,stimuli/scenes/041a.jpg,scene,1,stimuli/scenes/035a.jpg,stimuli/scenes/035b.jpg,stimuli/objects/052b.jpg,stimuli/objects/052a.jpg,stimuli/scenes/035a.jpg,lure,dist2,dist1,target,0,1,1,1,0,55,55,67,,,,,,,1026.0091180838645,1027.0246879979968,1027.0246879979968,1027.0246879979968,1027.0246879979968,1030.0259320233017,1030.0259320233017,1030.0259320233017,1030.0259320233017,None,,,,,,,,,,ST03_112822,2022-11-29_14h20.36.991,Hippopolis_Updating,2022.2.2,60.01777042595094,
Hippopolis,stimuli/subj_files/ST03_112822_cityA.csv,./stimuli/seattle.jpg,./stimuli/street_plate1.png,./stimuli/videos/hippopolis_part1.mp4,MUSTÁR UTCA,stimuli/scenes/102a.jpg,scene,1,stimuli/scenes/011a.jpg,stimuli/scenes/074b.jpg,stimuli/scenes/011a.jpg,stimuli/scenes/011b.jpg,stimuli/scenes/074a.jpg,dist2,target,lure,dist1,0,1,1,1,0,56,56,49,,,,,,,1032.0238675624132,1033.04499858059,1033.04499858059,1033.04499858059,1033.04499858059,1036.0527709424496,1036.0527709424496,1036.0527709424496,1036.0527709424496,None,,,,,,,,,,ST03_112822,2022-11-29_14h20.36.991,Hippopolis_Updating,2022.2.2,60.01777042595094,
Hippopolis,stimuli/subj_files/ST03_112822_cityA.csv,./stimuli/seattle.jpg,./stimuli/street_plate1.png,./stimuli/videos/hippopolis_part1.mp4,TRIATLON UTCA,stimuli/objects/006a.jpg,object,1,stimuli/objects/043a.jpg,stimuli/objects/043b.jpg,stimuli/objects/043a.jpg,stimuli/objects/075a.jpg,stimuli/objects/075b.jpg,lure,target,dist1,dist2,0,1,1,1,0,57,57,64,,,,,,,1038.0382603164762,1039.0631660185754,1039.0631660185754,1039.0631660185754,1039.0631660185754,1042.0705912970006,1042.0705912970006,1042.0705912970006,1042.0705912970006,None,,,,,,,,,,ST03_112822,2022-11-29_14h20.36.991,Hippopolis_Updating,2022.2.2,60.01777042595094,
Hippopolis,stimuli/subj_files/ST03_112822_cityA.csv,./stimuli/seattle.jpg,./stimuli/street_plate1.png,./stimuli/videos/hippopolis_part1.mp4,MARTINI UTCA,stimuli/scenes/077a.jpg,scene,0,stimuli/scenes/077a.jpg,stimuli/scenes/077a.jpg,stimuli/scenes/010b.jpg,stimuli/scenes/077b.jpg,stimuli/scenes/010a.jpg,target,dist2,lure,dist1,0,1,1,1,0,58,58,19,,,,,,,1044.0462528690696,1045.0556577034295,1045.0556577034295,1045.0556577034295,1045.0556577034295,1048.0798916313797,1048.0798916313797,1048.0798916313797,1048.0798916313797,None,,,,,,,,,,ST03_112822,2022-11-29_14h20.36.991,Hippopolis_Updating,2022.2.2,60.01777042595094,
Hippopolis,stimuli/subj_files/ST03_112822_cityA.csv,./stimuli/seattle.jpg,./stimuli/street_plate1.png,./stimuli/videos/hippopolis_part1.mp4,LÁNDZSA UTCA,stimuli/objects/054a.jpg,object,1,stimuli/objects/034a.jpg,stimuli/scenes/003b.jpg,stimuli/objects/034a.jpg,stimuli/objects/034b.jpg,stimuli/scenes/003a.jpg,dist2,target,lure,dist1,0,1,1,1,0,59,59,48,,,,,,,1050.0491458512843,1051.05830312334,1051.05830312334,1051.05830312334,1051.05830312334,1054.0770925749093,1054.0770925749093,1054.0770925749093,1054.0770925749093,None,,,,,,,,,,ST03_112822,2022-11-29_14h20.36.991,Hippopolis_Updating,2022.2.2,60.01777042595094,
Hippopolis,stimuli/subj_files/ST03_112822_cityA.csv,./stimuli/seattle.jpg,./stimuli/street_plate1.png,./stimuli/videos/hippopolis_part1.mp4,LIGET UTCA,stimuli/objects/113a.jpg,object,0,stimuli/objects/113a.jpg,stimuli/scenes/091b.jpg,stimuli/objects/113a.jpg,stimuli/objects/113b.jpg,stimuli/scenes/091a.jpg,dist2,target,lure,dist1,0,1,1,1,0,60,60,27,,,,,,,1056.061970822513,1057.0796151477844,1057.0796151477844,1057.0796151477844,1057.0796151477844,1060.0835319627076,1060.0835319627076,1060.0835319627076,1060.0835319627076,None,,,,,,,,,,ST03_112822,2022-11-29_14h20.36.991,Hippopolis_Updating,2022.2.2,60.01777042595094,
Hippopolis,stimuli/subj_files/ST03_112822_cityA.csv,./stimuli/seattle.jpg,./stimuli/street_plate1.png,./stimuli/videos/hippopolis_part1.mp4,ZONGORA UTCA,stimuli/scenes/015a.jpg,scene,1,stimuli/scenes/069a.jpg,stimuli/scenes/069a.jpg,stimuli/scenes/071b.jpg,stimuli/scenes/069b.jpg,stimuli/scenes/071a.jpg,target,dist2,lure,dist1,0,1,1,1,0,61,61,78,,,,,,,1062.0740671046078,1063.0907423347235,1063.0907423347235,1063.0907423347235,1063.0907423347235,1066.1000261865556,1066.1000261865556,1066.1000261865556,1066.1000261865556,None,1063.0907423347235,,,,,,,,,ST03_112822,2022-11-29_14h20.36.991,Hippopolis_Updating,2022.2.2,60.01777042595094,
Hippopolis,stimuli/subj_files/ST03_112822_cityA.csv,./stimuli/seattle.jpg,./stimuli/street_plate1.png,./stimuli/videos/hippopolis_part1.mp4,KESELYŰ UTCA,stimuli/objects/036a.jpg,object,2,stimuli/scenes/017a.jpg,stimuli/scenes/006b.jpg,stimuli/scenes/006a.jpg,stimuli/scenes/017a.jpg,stimuli/scenes/017b.jpg,dist2,dist1,target,lure,0,1,1,1,0,62,62,36,,,,,,,1068.0762497466058,1069.0887518934906,1069.0887518934906,1069.0887518934906,1069.0887518934906,1072.102871272713,1072.102871272713,1072.102871272713,1072.102871272713,None,,,,,,,,,,ST03_112822,2022-11-29_14h20.36.991,Hippopolis_Updating,2022.2.2,60.01777042595094,
Hippopolis,stimuli/subj_files/ST03_112822_cityA.csv,./stimuli/seattle.jpg,./stimuli/street_plate1.png,./stimuli/videos/hippopolis_part1.mp4,HARCSA UTCA,stimuli/objects/026a.jpg,object,1,stimuli/objects/089a.jpg,stimuli/objects/098a.jpg,stimuli/objects/098b.jpg,stimuli/objects/089a.jpg,stimuli/objects/089b.jpg,dist1,dist2,target,lure,0,1,1,1,0,63,63,18,,,,,,,1074.0879218168557,1075.1090876683593,1075.1090876683593,1075.1090876683593,1075.1090876683593,1078.1240632478148,1078.1240632478148,1078.1240632478148,1078.1240632478148,None,,,,,,,,,,ST03_112822,2022-11-29_14h20.36.991,Hippopolis_Updating,2022.2.2,60.01777042595094,
Hippopolis,stimuli/subj_files/ST03_112822_cityA.csv,./stimuli/seattle.jpg,./stimuli/street_plate1.png,./stimuli/videos/hippopolis_part1.mp4,KULLANCS UTCA,stimuli/objects/056a.jpg,object,2,stimuli/scenes/116a.jpg,stimuli/scenes/039a.jpg,stimuli/scenes/116a.jpg,stimuli/scenes/039b.jpg,stimuli/scenes/116b.jpg,dist1,target,dist2,lure,0,1,1,1,0,64,64,26,,,,,,,1080.0899284314364,1081.100406235084,1081.100406235084,1081.100406235084,1081.100406235084,1084.1157668419182,1084.1157668419182,1084.1157668419182,1084.1157668419182,None,,,,,,,,,,ST03_112822,2022-11-29_14h20.36.991,Hippopolis_Updating,2022.2.2,60.01777042595094,
Hippopolis,stimuli/subj_files/ST03_112822_cityA.csv,./stimuli/seattle.jpg,./stimuli/street_plate1.png,./stimuli/videos/hippopolis_part1.mp4,LEVÉL UTCA,stimuli/objects/005a.jpg,object,2,stimuli/scenes/052a.jpg,stimuli/scenes/052a.jpg,stimuli/scenes/026b.jpg,stimuli/scenes/052b.jpg,stimuli/scenes/026a.jpg,target,dist2,lure,dist1,0,1,1,1,0,65,65,21,,,,,,,1086.0927169136703,1087.10511331819,1087.10511331819,1087.10511331819,1087.10511331819,1090.1218411065638,1090.1218411065638,1090.1218411065638,1090.1218411065638,None,,,,,,,,,,ST03_112822,2022-11-29_14h20.36.991,Hippopolis_Updating,2022.2.2,60.01777042595094,
Hippopolis,stimuli/subj_files/ST03_112822_cityA.csv,./stimuli/seattle.jpg,./stimuli/street_plate1.png,./stimuli/videos/hippopolis_part1.mp4,TELEFON UTCA,stimuli/objects/072a.jpg,object,0,stimuli/objects/072a.jpg,stimuli/objects/084b.jpg,stimuli/objects/072a.jpg,stimuli/objects/084a.jpg,stimuli/objects/072b.jpg,dist2,target,dist1,lure,0,1,1,1,0,66,66,14,,,,,,,1092.0971338264644,1093.1278086975217,1093.1278086975217,1093.1278086975217,1093.1278086975217,1096.1182841267437,1096.1182841267437,1096.1182841267437,1096.1182841267437,None,,,,,,,,,,ST03_112822,2022-11-29_14h20.36.991,Hippopolis_Updating,2022.2.2,60.01777042595094,
Hippopolis,stimuli/subj_files/ST03_112822_cityA.csv,./stimuli/seattle.jpg,./stimuli/street_plate1.png,./stimuli/videos/hippopolis_part1.mp4,ÁRNYÉK UTCA,stimuli/scenes/009a.jpg,scene,1,stimuli/scenes/051a.jpg,stimuli/objects/037a.jpg,stimuli/scenes/051a.jpg,stimuli/scenes/051b.jpg,stimuli/objects/037b.jpg,dist1,target,lure,dist2,0,1,1,1,0,67,67,3,,,,,,,1098.104320872575,1099.128992388025,1099.128992388025,1099.128992388025,1099.128992388025,1102.1357035953552,1102.1357035953552,1102.1357035953552,1102.1357035953552,None,,,,,,,,,,ST03_112822,2022-11-29_14h20.36.991,Hippopolis_Updating,2022.2.2,60.01777042595094,
Hippopolis,stimuli/subj_files/ST03_112822_cityA.csv,./stimuli/seattle.jpg,./stimuli/street_plate1.png,./stimuli/videos/hippopolis_part1.mp4,TULIPÁN UTCA,stimuli/scenes/092a.jpg,scene,2,stimuli/objects/060a.jpg,stimuli/objects/060b.jpg,stimuli/objects/060a.jpg,stimuli/objects/093b.jpg,stimuli/objects/093a.jpg,lure,target,dist2,dist1,0,1,1,1,0,68,68,55,,,,,,,1104.1131976172328,1105.1300575844944,1105.1300575844944,1105.1300575844944,1105.1300575844944,1108.1396863423288,1108.1396863423288,1108.1396863423288,1108.1396863423288,None,,,,,,,,,,ST03_112822,2022-11-29_14h20.36.991,Hippopolis_Updating,2022.2.2,60.01777042595094,
Hippopolis,stimuli/subj_files/ST03_112822_cityA.csv,./stimuli/seattle.jpg,./stimuli/street_plate1.png,./stimuli/videos/hippopolis_part1.mp4,PAPAGÁJ UTCA,stimuli/objects/035a.jpg,object,2,stimuli/scenes/096a.jpg,stimuli/scenes/096a.jpg,stimuli/objects/087b.jpg,stimuli/scenes/096b.jpg,stimuli/objects/087a.jpg,target,dist2,lure,dist1,0,1,1,1,0,69,69,29,,,,,,,1110.114158315584,1111.1444621570408,1111.1444621570408,1111.1444621570408,1111.1444621570408,1114.1603685785085,1114.1603685785085,1114.1603685785085,1114.1603685785085,None,,,,,,,,,,ST03_112822,2022-11-29_14h20.36.991,Hippopolis_Updating,2022.2.2,60.01777042595094,
Hippopolis,stimuli/subj_files/ST03_112822_cityA.csv,./stimuli/seattle.jpg,./stimuli/street_plate1.png,./stimuli/videos/hippopolis_part1.mp4,TOJÁS UTCA,stimuli/scenes/027a.jpg,scene,0,stimuli/scenes/027a.jpg,stimuli/scenes/025b.jpg,stimuli/scenes/027a.jpg,stimuli/scenes/027b.jpg,stimuli/scenes/025a.jpg,dist2,target,lure,dist1,0,1,1,1,0,70,70,72,,,,,,,1116.1140043679625,1117.144070290029,1117.144070290029,1117.144070290029,1117.144070290029,1120.1419719289988,1120.1419719289988,1120.1419719289988,1120.1419719289988,None,,,,,,,,,,ST03_112822,2022-11-29_14h20.36.991,Hippopolis_Updating,2022.2.2,60.01777042595094,
Hippopolis,stimuli/subj_files/ST03_112822_cityA.csv,./stimuli/seattle.jpg,./stimuli/street_plate1.png,./stimuli/videos/hippopolis_part1.mp4,TÁSKA UTCA,stimuli/scenes/091a.jpg,scene,0,stimuli/scenes/091a.jpg,stimuli/scenes/091b.jpg,stimuli/scenes/091a.jpg,stimuli/objects/094b.jpg,stimuli/objects/094a.jpg,lure,target,dist2,dist1,0,1,1,1,0,71,71,76,,,,,,,1122.1236010920256,1123.1415881477296,1123.1415881477296,1123.1415881477296,1123.1415881477296,1126.1540016569197,1126.1540016569197,1126.1540016569197,1126.1540016569197,None,,,,,,,,,,ST03_112822,2022-11-29_14h20.36.991,Hippopolis_Updating,2022.2.2,60.01777042595094,
Hippopolis,stimuli/subj_files/ST03_112822_cityA.csv,./stimuli/seattle.jpg,./stimuli/street_plate1.png,./stimuli/videos/hippopolis_part1.mp4,TIGRIS UTCA,stimuli/objects/067a.jpg,object,2,stimuli/scenes/106a.jpg,stimuli/objects/064a.jpg,stimuli/scenes/106b.jpg,stimuli/objects/064b.jpg,stimuli/scenes/106a.jpg,dist1,lure,dist2,target,0,1,1,1,0,72,72,11,,,,,,,1128.1404756773263,1129.1528963390738,1129.1528963390738,1129.1528963390738,1129.1528963390738,1132.1592032387853,1132.1592032387853,1132.1592032387853,1132.1592032387853,None,,,,,,,,,,ST03_112822,2022-11-29_14h20.36.991,Hippopolis_Updating,2022.2.2,60.01777042595094,
Hippopolis,stimuli/subj_files/ST03_112822_cityA.csv,./stimuli/seattle.jpg,./stimuli/street_plate1.png,./stimuli/videos/hippopolis_part1.mp4,FÉNYKÉP UTCA,stimuli/objects/058a.jpg,object,1,stimuli/objects/048a.jpg,stimuli/objects/048a.jpg,stimuli/objects/034b.jpg,stimuli/objects/048b.jpg,stimuli/objects/034a.jpg,target,dist2,lure,dist1,0,1,1,1,0,73,73,47,,,,,,,1134.1404607482255,1135.1580861024559,1135.1580861024559,1135.1580861024559,1135.1580861024559,1138.2057005595416,1138.2057005595416,1138.2057005595416,1138.2057005595416,None,,,,,,,,,,ST03_112822,2022-11-29_14h20.36.991,Hippopolis_Updating,2022.2.2,60.01777042595094,
Hippopolis,stimuli/subj_files/ST03_112822_cityA.csv,./stimuli/seattle.jpg,./stimuli/street_plate1.png,./stimuli/videos/hippopolis_part1.mp4,RÓZSA UTCA,stimuli/scenes/037a.jpg,scene,2,stimuli/objects/051a.jpg,stimuli/objects/051a.jpg,stimuli/scenes/017b.jpg,stimuli/scenes/017a.jpg,stimuli/objects/051b.jpg,target,dist2,dist1,lure,0,1,1,1,0,74,74,40,,,,,,,1140.1455429047346,1141.169195562601,1141.169195562601,1141.169195562601,1141.169195562601,1144.1719989739358,1144.1719989739358,1144.1719989739358,1144.1719989739358,None,,,,,,,,,,ST03_112822,2022-11-29_14h20.36.991,Hippopolis_Updating,2022.2.2,60.01777042595094,
Hippopolis,stimuli/subj_files/ST03_112822_cityA.csv,./stimuli/seattle.jpg,./stimuli/street_plate1.png,./stimuli/videos/hippopolis_part1.mp4,PALACK UTCA,stimuli/scenes/082a.jpg,scene,0,stimuli/scenes/082a.jpg,stimuli/objects/041b.jpg,stimuli/objects/041a.jpg,stimuli/scenes/082a.jpg,stimuli/scenes/082b.jpg,dist2,dist1,target,lure,0,1,1,1,0,75,75,69,,,,,,,1146.1617892570794,1147.1710768397897,1147.1710768397897,1147.1710768397897,1147.1710768397897,1150.2006292901933,1150.2006292901933,1150.2006292901933,1150.2006292901933,None,,,,,,,,,,ST03_112822,2022-11-29_14h20.36.991,Hippopolis_Updating,2022.2.2,60.01777042595094,
Hippopolis,stimuli/subj_files/ST03_112822_cityA.csv,./stimuli/seattle.jpg,./stimuli/street_plate1.png,./stimuli/videos/hippopolis_part1.mp4,PÁRNA UTCA,stimuli/scenes/024a.jpg,scene,1,stimuli/scenes/094a.jpg,stimuli/scenes/094a.jpg,stimuli/scenes/094b.jpg,stimuli/objects/024a.jpg,stimuli/objects/024b.jpg,target,lure,dist1,dist2,0,1,1,1,0,76,76,58,,,,,,,1152.1730983816087,1153.185612656176,1153.185612656176,1153.185612656176,1153.185612656176,1156.2005145289004,1156.2005145289004,1156.2005145289004,1156.2005145289004,None,,,,,,,,,,ST03_112822,2022-11-29_14h20.36.991,Hippopolis_Updating,2022.2.2,60.01777042595094,
Hippopolis,stimuli/subj_files/ST03_112822_cityA.csv,./stimuli/seattle.jpg,./stimuli/street_plate1.png,./stimuli/videos/hippopolis_part1.mp4,BONBON UTCA,stimuli/scenes/010a.jpg,scene,0,stimuli/scenes/010a.jpg,stimuli/scenes/046a.jpg,stimuli/scenes/046b.jpg,stimuli/scenes/010a.jpg,stimuli/scenes/010b.jpg,dist1,dist2,target,lure,0,1,1,1,0,77,77,0,,,,,,,1158.188693486154,1159.2087988052517,1159.2087988052517,1159.2087988052517,1159.2087988052517,1162.2118942514062,1162.2118942514062,1162.2118942514062,1162.2118942514062,None,,,,,,,,,,ST03_112822,2022-11-29_14h20.36.991,Hippopolis_Updating,2022.2.2,60.01777042595094,
Hippopolis,stimuli/subj_files/ST03_112822_cityA.csv,./stimuli/seattle.jpg,./stimuli/street_plate1.png,./stimuli/videos/hippopolis_part1.mp4,VÁSÁR UTCA,stimuli/objects/004a.jpg,object,1,stimuli/objects/024a.jpg,stimuli/objects/043b.jpg,stimuli/objects/024a.jpg,stimuli/objects/024b.jpg,stimuli/objects/043a.jpg,dist2,target,lure,dist1,0,1,1,1,0,78,78,17,,,,,,,1164.190312584862,1165.200825534761,1165.200825534761,1165.200825534761,1165.200825534761,1168.2212275546044,1168.2212275546044,1168.2212275546044,1168.2212275546044,None,,,,,,,,,,ST03_112822,2022-11-29_14h20.36.991,Hippopolis_Updating,2022.2.2,60.01777042595094,
