CityName,StimuliFile,CityImage,StreetSign,VideoFile,Cue,Image,Category,Novelty,UpdateImage,TestImage1,TestImage2,TestImage3,TestImage4,TestImage1Type,TestImage2Type,TestImage3Type,TestImage4Type,CityBlock.thisRepN,CityBlock.thisTrialN,CityBlock.thisN,CityBlock.thisIndex,LearningTrials.thisRepN,LearningTrials.thisTrialN,LearningTrials.thisN,LearningTrials.thisIndex,learning_instructions_text.started,intro_key.started,intro_key.keys,intro_key.rt,cityname_text.started,city_image.started,fx_cross.started,plate.started,city_text.started,street_text.started,fx_cross_prediction.started,plate_updating.started,city_text_updating.started,street_text_updating.started,updating_image.started,short_break_key.keys,fx_cross.stopped,short_break_text.started,short_break_key.started,short_break_key.rt,break_text.started,break_key_resp.started,break_key_resp.keys,break_key_resp.rt,end_text.started,participant,date,expName,psychopyVersion,frameRate,
,,,,,,,,,,,,,,,,,,,,,,,,,,15.729276711121202,15.729276711121202,space,53.085963889956474,,,,,,,,,,,,,,,,,,,,,,ST04_112822,2022-11-29_16h02.57.952,Hippopolis_Updating,2022.2.2,59.80666928505368,
Hippopolis,stimuli/subj_files/ST04_112822_cityA.csv,./stimuli/seattle.jpg,./stimuli/street_plate1.png,./stimuli/videos/hippopolis_part1.mp4,ÁLLOMÁS UTCA,stimuli/objects/017a.jpg,object,2,stimuli/scenes/109a.jpg,stimuli/scenes/109b.jpg,stimuli/objects/059b.jpg,stimuli/scenes/109a.jpg,stimuli/objects/059a.jpg,lure,dist2,target,dist1,0,0,0,0,0,0,0,22,,,,,68.89234607107937,68.89234607107937,71.88253288716078,72.88309611938894,72.88309611938894,72.88309611938894,72.88309611938894,75.87837908603251,75.87837908603251,75.87837908603251,75.87837908603251,None,,,,,,,,,,ST04_112822,2022-11-29_16h02.57.952,Hippopolis_Updating,2022.2.2,59.80666928505368,
Hippopolis,stimuli/subj_files/ST04_112822_cityA.csv,./stimuli/seattle.jpg,./stimuli/street_plate1.png,./stimuli/videos/hippopolis_part1.mp4,BOLYGÓ UTCA,stimuli/scenes/062a.jpg,scene,2,stimuli/objects/043a.jpg,stimuli/objects/043a.jpg,stimuli/scenes/089b.jpg,stimuli/scenes/089a.jpg,stimuli/objects/043b.jpg,target,dist2,dist1,lure,0,0,0,0,0,1,1,55,,,,,,,77.8443434778601,78.86923052184284,78.86923052184284,78.86923052184284,78.86923052184284,81.8768629282713,81.8768629282713,81.8768629282713,81.8768629282713,None,78.86923052184284,,,,,,,,,ST04_112822,2022-11-29_16h02.57.952,Hippopolis_Updating,2022.2.2,59.80666928505368,
Hippopolis,stimuli/subj_files/ST04_112822_cityA.csv,./stimuli/seattle.jpg,./stimuli/street_plate1.png,./stimuli/videos/hippopolis_part1.mp4,KAKAS UTCA,stimuli/objects/110a.jpg,object,1,stimuli/objects/052a.jpg,stimuli/objects/052a.jpg,stimuli/objects/024b.jpg,stimuli/objects/052b.jpg,stimuli/objects/024a.jpg,target,dist2,lure,dist1,0,0,0,0,0,2,2,2,,,,,,,83.85120365768671,84.88285291194916,84.88285291194916,84.88285291194916,84.88285291194916,87.87198728136718,87.87198728136718,87.87198728136718,87.87198728136718,None,,,,,,,,,,ST04_112822,2022-11-29_16h02.57.952,Hippopolis_Updating,2022.2.2,59.80666928505368,
Hippopolis,stimuli/subj_files/ST04_112822_cityA.csv,./stimuli/seattle.jpg,./stimuli/street_plate1.png,./stimuli/videos/hippopolis_part1.mp4,TELEFON UTCA,stimuli/scenes/116a.jpg,scene,0,stimuli/scenes/116a.jpg,stimuli/scenes/116a.jpg,stimuli/objects/084a.jpg,stimuli/scenes/116b.jpg,stimuli/objects/084b.jpg,target,dist1,lure,dist2,0,0,0,0,0,3,3,0,,,,,,,89.8605192322284,90.88021495565772,90.88021495565772,90.88021495565772,90.88021495565772,93.8888043295592,93.8888043295592,93.8888043295592,93.8888043295592,None,90.88021495565772,,,,,,,,,ST04_112822,2022-11-29_16h02.57.952,Hippopolis_Updating,2022.2.2,59.80666928505368,
Hippopolis,stimuli/subj_files/ST04_112822_cityA.csv,./stimuli/seattle.jpg,./stimuli/street_plate1.png,./stimuli/videos/hippopolis_part1.mp4,LEGELŐ UTCA,stimuli/scenes/082a.jpg,scene,1,stimuli/scenes/080a.jpg,stimuli/scenes/080a.jpg,stimuli/scenes/080b.jpg,stimuli/objects/092a.jpg,stimuli/objects/092b.jpg,target,lure,dist1,dist2,0,0,0,0,0,4,4,6,,,,,,,95.87234120629728,96.90623499453068,96.90623499453068,96.90623499453068,96.90623499453068,99.89128833822906,99.89128833822906,99.89128833822906,99.89128833822906,None,,,,,,,,,,ST04_112822,2022-11-29_16h02.57.952,Hippopolis_Updating,2022.2.2,59.80666928505368,
Hippopolis,stimuli/subj_files/ST04_112822_cityA.csv,./stimuli/seattle.jpg,./stimuli/street_plate1.png,./stimuli/videos/hippopolis_part1.mp4,ZEBRA UTCA,stimuli/objects/033a.jpg,object,0,stimuli/objects/033a.jpg,stimuli/objects/033b.jpg,stimuli/objects/033a.jpg,stimuli/objects/095b.jpg,stimuli/objects/095a.jpg,lure,target,dist2,dist1,0,0,0,0,0,5,5,70,,,,,,,101.87209737859666,102.90531099401414,102.90531099401414,102.90531099401414,102.90531099401414,105.90682963840663,105.90682963840663,105.90682963840663,105.90682963840663,None,,,,,,,,,,ST04_112822,2022-11-29_16h02.57.952,Hippopolis_Updating,2022.2.2,59.80666928505368,
Hippopolis,stimuli/subj_files/ST04_112822_cityA.csv,./stimuli/seattle.jpg,./stimuli/street_plate1.png,./stimuli/videos/hippopolis_part1.mp4,PAPUCS UTCA,stimuli/scenes/053a.jpg,scene,2,stimuli/objects/054a.jpg,stimuli/objects/061a.jpg,stimuli/objects/054a.jpg,stimuli/objects/054b.jpg,stimuli/objects/061b.jpg,dist1,target,lure,dist2,0,0,0,0,0,6,6,11,,,,,,,107.87933822907507,108.89980618096888,108.89980618096888,108.89980618096888,108.89980618096888,111.91057757660747,111.91057757660747,111.91057757660747,111.91057757660747,None,108.89980618096888,,,,,,,,,ST04_112822,2022-11-29_16h02.57.952,Hippopolis_Updating,2022.2.2,59.80666928505368,
Hippopolis,stimuli/subj_files/ST04_112822_cityA.csv,./stimuli/seattle.jpg,./stimuli/street_plate1.png,./stimuli/videos/hippopolis_part1.mp4,HORGONY UTCA,stimuli/objects/050a.jpg,object,0,stimuli/objects/050a.jpg,stimuli/objects/050a.jpg,stimuli/scenes/012a.jpg,stimuli/objects/050b.jpg,stimuli/scenes/012b.jpg,target,dist1,lure,dist2,0,0,0,0,0,7,7,67,,,,,,,113.89181642793119,114.92230935953557,114.92230935953557,114.92230935953557,114.92230935953557,117.91826005652547,117.91826005652547,117.91826005652547,117.91826005652547,None,,,,,,,,,,ST04_112822,2022-11-29_16h02.57.952,Hippopolis_Updating,2022.2.2,59.80666928505368,
Hippopolis,stimuli/subj_files/ST04_112822_cityA.csv,./stimuli/seattle.jpg,./stimuli/street_plate1.png,./stimuli/videos/hippopolis_part1.mp4,KÍGYÓ UTCA,stimuli/scenes/052a.jpg,scene,0,stimuli/scenes/052a.jpg,stimuli/scenes/093b.jpg,stimuli/scenes/093a.jpg,stimuli/scenes/052b.jpg,stimuli/scenes/052a.jpg,dist2,dist1,lure,target,0,0,0,0,0,8,8,44,,,,,,,119.89299296401441,120.9205618146807,120.9205618146807,120.9205618146807,120.9205618146807,123.91755251772702,123.91755251772702,123.91755251772702,123.91755251772702,None,,,,,,,,,,ST04_112822,2022-11-29_16h02.57.952,Hippopolis_Updating,2022.2.2,59.80666928505368,
Hippopolis,stimuli/subj_files/ST04_112822_cityA.csv,./stimuli/seattle.jpg,./stimuli/street_plate1.png,./stimuli/videos/hippopolis_part1.mp4,TRIATLON UTCA,stimuli/scenes/039a.jpg,scene,2,stimuli/objects/107a.jpg,stimuli/objects/107b.jpg,stimuli/scenes/058a.jpg,stimuli/scenes/058b.jpg,stimuli/objects/107a.jpg,lure,dist1,dist2,target,0,0,0,0,0,9,9,52,,,,,,,125.90878431499004,126.93329814821482,126.93329814821482,126.93329814821482,126.93329814821482,129.92499707639217,129.92499707639217,129.92499707639217,129.92499707639217,None,,,,,,,,,,ST04_112822,2022-11-29_16h02.57.952,Hippopolis_Updating,2022.2.2,59.80666928505368,
Hippopolis,stimuli/subj_files/ST04_112822_cityA.csv,./stimuli/seattle.jpg,./stimuli/street_plate1.png,./stimuli/videos/hippopolis_part1.mp4,SALÁTA UTCA,stimuli/objects/034a.jpg,object,1,stimuli/objects/109a.jpg,stimuli/objects/109a.jpg,stimuli/objects/109b.jpg,stimuli/scenes/112a.jpg,stimuli/scenes/112b.jpg,target,lure,dist1,dist2,0,0,0,0,0,10,10,45,,,,,,,131.92067315615714,132.94785076007247,132.94785076007247,132.94785076007247,132.94785076007247,135.9446828495711,135.9446828495711,135.9446828495711,135.9446828495711,None,,,,,,,,,,ST04_112822,2022-11-29_16h02.57.952,Hippopolis_Updating,2022.2.2,59.80666928505368,
Hippopolis,stimuli/subj_files/ST04_112822_cityA.csv,./stimuli/seattle.jpg,./stimuli/street_plate1.png,./stimuli/videos/hippopolis_part1.mp4,ASZTAL UTCA,stimuli/objects/103a.jpg,object,2,stimuli/scenes/067a.jpg,stimuli/scenes/067b.jpg,stimuli/scenes/021b.jpg,stimuli/scenes/067a.jpg,stimuli/scenes/021a.jpg,lure,dist2,target,dist1,0,0,0,0,0,11,11,36,,,,,,,137.92844302766025,138.95943263731897,138.95943263731897,138.95943263731897,138.95943263731897,141.96502359956503,141.96502359956503,141.96502359956503,141.96502359956503,None,,,,,,,,,,ST04_112822,2022-11-29_16h02.57.952,Hippopolis_Updating,2022.2.2,59.80666928505368,
Hippopolis,stimuli/subj_files/ST04_112822_cityA.csv,./stimuli/seattle.jpg,./stimuli/street_plate1.png,./stimuli/videos/hippopolis_part1.mp4,HARMONIKA UTCA,stimuli/scenes/016a.jpg,scene,1,stimuli/scenes/097a.jpg,stimuli/objects/080a.jpg,stimuli/objects/080b.jpg,stimuli/scenes/097b.jpg,stimuli/scenes/097a.jpg,dist1,dist2,lure,target,0,0,0,0,0,12,12,62,,,,,,,143.93566832877696,144.9646329768002,144.9646329768002,144.9646329768002,144.9646329768002,147.96668686158955,147.96668686158955,147.96668686158955,147.96668686158955,None,,,,,,,,,,ST04_112822,2022-11-29_16h02.57.952,Hippopolis_Updating,2022.2.2,59.80666928505368,
Hippopolis,stimuli/subj_files/ST04_112822_cityA.csv,./stimuli/seattle.jpg,./stimuli/street_plate1.png,./stimuli/videos/hippopolis_part1.mp4,KERET UTCA,stimuli/scenes/093a.jpg,scene,0,stimuli/scenes/093a.jpg,stimuli/scenes/098a.jpg,stimuli/scenes/093b.jpg,stimuli/scenes/098b.jpg,stimuli/scenes/093a.jpg,dist1,lure,dist2,target,0,0,0,0,0,13,13,40,,,,,,,149.9366955831647,150.9630023688078,150.9630023688078,150.9630023688078,150.9630023688078,153.9756248742342,153.9756248742342,153.9756248742342,153.9756248742342,None,,,,,,,,,,ST04_112822,2022-11-29_16h02.57.952,Hippopolis_Updating,2022.2.2,59.80666928505368,
Hippopolis,stimuli/subj_files/ST04_112822_cityA.csv,./stimuli/seattle.jpg,./stimuli/street_plate1.png,./stimuli/videos/hippopolis_part1.mp4,CITROM UTCA,stimuli/objects/095a.jpg,object,0,stimuli/objects/095a.jpg,stimuli/objects/044b.jpg,stimuli/objects/095a.jpg,stimuli/objects/095b.jpg,stimuli/objects/044a.jpg,dist2,target,lure,dist1,0,0,0,0,0,14,14,71,,,,,,,155.95061964914203,156.98375240527093,156.98375240527093,156.98375240527093,156.98375240527093,159.97480786032975,159.97480786032975,159.97480786032975,159.97480786032975,None,,,,,,,,,,ST04_112822,2022-11-29_16h02.57.952,Hippopolis_Updating,2022.2.2,59.80666928505368,
Hippopolis,stimuli/subj_files/ST04_112822_cityA.csv,./stimuli/seattle.jpg,./stimuli/street_plate1.png,./stimuli/videos/hippopolis_part1.mp4,RÓZSA UTCA,stimuli/objects/021a.jpg,object,0,stimuli/objects/021a.jpg,stimuli/objects/021a.jpg,stimuli/objects/021b.jpg,stimuli/objects/114a.jpg,stimuli/objects/114b.jpg,target,lure,dist1,dist2,0,0,0,0,0,15,15,8,,,,,,,161.958703327924,162.97894175723195,162.97894175723195,162.97894175723195,162.97894175723195,165.99480992555618,165.99480992555618,165.99480992555618,165.99480992555618,None,162.97894175723195,,,,,,,,,ST04_112822,2022-11-29_16h02.57.952,Hippopolis_Updating,2022.2.2,59.80666928505368,
Hippopolis,stimuli/subj_files/ST04_112822_cityA.csv,./stimuli/seattle.jpg,./stimuli/street_plate1.png,./stimuli/videos/hippopolis_part1.mp4,FOGAS UTCA,stimuli/objects/081a.jpg,object,1,stimuli/objects/119a.jpg,stimuli/scenes/040b.jpg,stimuli/objects/119a.jpg,stimuli/objects/119b.jpg,stimuli/scenes/040a.jpg,dist2,target,lure,dist1,0,0,0,0,0,16,16,48,,,,,,,167.97464271634817,168.99714962765574,168.99714962765574,168.99714962765574,168.99714962765574,172.02133379504085,172.02133379504085,172.02133379504085,172.02133379504085,None,,,,,,,,,,ST04_112822,2022-11-29_16h02.57.952,Hippopolis_Updating,2022.2.2,59.80666928505368,
Hippopolis,stimuli/subj_files/ST04_112822_cityA.csv,./stimuli/seattle.jpg,./stimuli/street_plate1.png,./stimuli/videos/hippopolis_part1.mp4,VÁSÁR UTCA,stimuli/scenes/118a.jpg,scene,0,stimuli/scenes/118a.jpg,stimuli/objects/033a.jpg,stimuli/scenes/118b.jpg,stimuli/objects/033b.jpg,stimuli/scenes/118a.jpg,dist1,lure,dist2,target,0,0,0,0,0,17,17,64,,,,,,,173.97921171225607,175.00670467689633,175.00670467689633,175.00670467689633,175.00670467689633,178.01134520210326,178.01134520210326,178.01134520210326,178.01134520210326,None,,,,,,,,,,ST04_112822,2022-11-29_16h02.57.952,Hippopolis_Updating,2022.2.2,59.80666928505368,
Hippopolis,stimuli/subj_files/ST04_112822_cityA.csv,./stimuli/seattle.jpg,./stimuli/street_plate1.png,./stimuli/videos/hippopolis_part1.mp4,TELEP UTCA,stimuli/objects/074a.jpg,object,1,stimuli/objects/036a.jpg,stimuli/scenes/044b.jpg,stimuli/objects/036a.jpg,stimuli/objects/036b.jpg,stimuli/scenes/044a.jpg,dist2,target,lure,dist1,0,0,0,0,0,18,18,9,,,,,,,179.99459813162684,181.0163651574403,181.0163651574403,181.0163651574403,181.0163651574403,184.0215825997293,184.0215825997293,184.0215825997293,184.0215825997293,None,,,,,,,,,,ST04_112822,2022-11-29_16h02.57.952,Hippopolis_Updating,2022.2.2,59.80666928505368,
Hippopolis,stimuli/subj_files/ST04_112822_cityA.csv,./stimuli/seattle.jpg,./stimuli/street_plate1.png,./stimuli/videos/hippopolis_part1.mp4,TIGRIS UTCA,stimuli/objects/041a.jpg,object,2,stimuli/scenes/086a.jpg,stimuli/scenes/086b.jpg,stimuli/scenes/024a.jpg,stimuli/scenes/024b.jpg,stimuli/scenes/086a.jpg,lure,dist1,dist2,target,0,0,0,0,0,19,19,57,,,,,,,186.00858968682587,187.03327177464962,187.03327177464962,187.03327177464962,187.03327177464962,190.03969405777752,190.03969405777752,190.03969405777752,190.03969405777752,None,,,,,,,,,,ST04_112822,2022-11-29_16h02.57.952,Hippopolis_Updating,2022.2.2,59.80666928505368,
Hippopolis,stimuli/subj_files/ST04_112822_cityA.csv,./stimuli/seattle.jpg,./stimuli/street_plate1.png,./stimuli/videos/hippopolis_part1.mp4,CSAVAR UTCA,stimuli/scenes/106a.jpg,scene,2,stimuli/objects/056a.jpg,stimuli/objects/056a.jpg,stimuli/objects/056b.jpg,stimuli/objects/107b.jpg,stimuli/objects/107a.jpg,target,lure,dist2,dist1,0,0,0,0,0,20,20,26,,,,,,,192.00890598073602,193.03313244506717,193.03313244506717,193.03313244506717,193.03313244506717,196.04933090135455,196.04933090135455,196.04933090135455,196.04933090135455,None,,,,,,,,,,ST04_112822,2022-11-29_16h02.57.952,Hippopolis_Updating,2022.2.2,59.80666928505368,
Hippopolis,stimuli/subj_files/ST04_112822_cityA.csv,./stimuli/seattle.jpg,./stimuli/street_plate1.png,./stimuli/videos/hippopolis_part1.mp4,MOCSÁR UTCA,stimuli/objects/031a.jpg,object,1,stimuli/objects/092a.jpg,stimuli/scenes/070b.jpg,stimuli/scenes/070a.jpg,stimuli/objects/092a.jpg,stimuli/objects/092b.jpg,dist2,dist1,target,lure,0,0,0,0,0,21,21,31,,,,,,,198.0208424050361,199.0502993762493,199.0502993762493,199.0502993762493,199.0502993762493,202.04333096556365,202.04333096556365,202.04333096556365,202.04333096556365,None,,,,,,,,,,ST04_112822,2022-11-29_16h02.57.952,Hippopolis_Updating,2022.2.2,59.80666928505368,
Hippopolis,stimuli/subj_files/ST04_112822_cityA.csv,./stimuli/seattle.jpg,./stimuli/street_plate1.png,./stimuli/videos/hippopolis_part1.mp4,FOLYÓ UTCA,stimuli/objects/044a.jpg,object,0,stimuli/objects/044a.jpg,stimuli/objects/044a.jpg,stimuli/objects/044b.jpg,stimuli/objects/014b.jpg,stimuli/objects/014a.jpg,target,lure,dist2,dist1,0,0,0,0,0,22,22,33,,,,,,,204.02480773627758,205.05120844766498,205.05120844766498,205.05120844766498,205.05120844766498,208.0592097081244,208.0592097081244,208.0592097081244,208.0592097081244,None,,,,,,,,,,ST04_112822,2022-11-29_16h02.57.952,Hippopolis_Updating,2022.2.2,59.80666928505368,
Hippopolis,stimuli/subj_files/ST04_112822_cityA.csv,./stimuli/seattle.jpg,./stimuli/street_plate1.png,./stimuli/videos/hippopolis_part1.mp4,BETON UTCA,stimuli/scenes/041a.jpg,scene,2,stimuli/objects/079a.jpg,stimuli/scenes/067b.jpg,stimuli/scenes/067a.jpg,stimuli/objects/079b.jpg,stimuli/objects/079a.jpg,dist2,dist1,lure,target,0,0,0,0,0,23,23,47,,,,,,,210.0261926483363,211.05622902326286,211.05622902326286,211.05622902326286,211.05622902326286,214.06626364402473,214.06626364402473,214.06626364402473,214.06626364402473,None,,,,,,,,,,ST04_112822,2022-11-29_16h02.57.952,Hippopolis_Updating,2022.2.2,59.80666928505368,
Hippopolis,stimuli/subj_files/ST04_112822_cityA.csv,./stimuli/seattle.jpg,./stimuli/street_plate1.png,./stimuli/videos/hippopolis_part1.mp4,MARTINI UTCA,stimuli/objects/026a.jpg,object,2,stimuli/scenes/058a.jpg,stimuli/objects/088a.jpg,stimuli/objects/088b.jpg,stimuli/scenes/058b.jpg,stimuli/scenes/058a.jpg,dist1,dist2,lure,target,0,0,0,0,0,24,24,13,,,,,,,216.04149198532104,217.06760968081653,217.06760968081653,217.06760968081653,217.06760968081653,220.06784044764936,220.06784044764936,220.06784044764936,220.06784044764936,None,,,,,,,,,,ST04_112822,2022-11-29_16h02.57.952,Hippopolis_Updating,2022.2.2,59.80666928505368,
Hippopolis,stimuli/subj_files/ST04_112822_cityA.csv,./stimuli/seattle.jpg,./stimuli/street_plate1.png,./stimuli/videos/hippopolis_part1.mp4,KUTYA UTCA,stimuli/objects/065a.jpg,object,2,stimuli/scenes/024a.jpg,stimuli/scenes/109b.jpg,stimuli/scenes/024b.jpg,stimuli/scenes/024a.jpg,stimuli/scenes/109a.jpg,dist2,lure,target,dist1,0,0,0,0,0,25,25,10,,,,,,,222.0581501107663,223.0807891972363,223.0807891972363,223.0807891972363,223.0807891972363,226.09149061702192,226.09149061702192,226.09149061702192,226.09149061702192,None,,,,,,,,,,ST04_112822,2022-11-29_16h02.57.952,Hippopolis_Updating,2022.2.2,59.80666928505368,
Hippopolis,stimuli/subj_files/ST04_112822_cityA.csv,./stimuli/seattle.jpg,./stimuli/street_plate1.png,./stimuli/videos/hippopolis_part1.mp4,SZIKLA UTCA,stimuli/objects/102a.jpg,object,1,stimuli/objects/008a.jpg,stimuli/objects/008b.jpg,stimuli/scenes/079a.jpg,stimuli/objects/008a.jpg,stimuli/scenes/079b.jpg,lure,dist1,target,dist2,0,0,0,0,0,26,26,19,,,,,,,228.0582082681358,229.07956663146615,229.07956663146615,229.07956663146615,229.07956663146615,232.0890576131642,232.0890576131642,232.0890576131642,232.0890576131642,None,,,,,,,,,,ST04_112822,2022-11-29_16h02.57.952,Hippopolis_Updating,2022.2.2,59.80666928505368,
Hippopolis,stimuli/subj_files/ST04_112822_cityA.csv,./stimuli/seattle.jpg,./stimuli/street_plate1.png,./stimuli/videos/hippopolis_part1.mp4,LÁNDZSA UTCA,stimuli/scenes/087a.jpg,scene,0,stimuli/scenes/087a.jpg,stimuli/objects/082b.jpg,stimuli/objects/082a.jpg,stimuli/scenes/087b.jpg,stimuli/scenes/087a.jpg,dist2,dist1,lure,target,0,0,0,0,0,27,27,50,,,,,,,234.06864408776164,235.102171510458,235.102171510458,235.102171510458,235.102171510458,238.09081946499646,238.09081946499646,238.09081946499646,238.09081946499646,None,,,,,,,,,,ST04_112822,2022-11-29_16h02.57.952,Hippopolis_Updating,2022.2.2,59.80666928505368,
Hippopolis,stimuli/subj_files/ST04_112822_cityA.csv,./stimuli/seattle.jpg,./stimuli/street_plate1.png,./stimuli/videos/hippopolis_part1.mp4,ZÁSZLÓ UTCA,stimuli/scenes/048a.jpg,scene,2,stimuli/objects/059a.jpg,stimuli/objects/059b.jpg,stimuli/objects/091a.jpg,stimuli/objects/059a.jpg,stimuli/objects/091b.jpg,lure,dist1,target,dist2,0,0,0,0,0,28,28,27,,,,,,,240.07595615833998,241.09661631286144,241.09661631286144,241.09661631286144,241.09661631286144,244.1155842822045,244.1155842822045,244.1155842822045,244.1155842822045,None,,,,,,,,,,ST04_112822,2022-11-29_16h02.57.952,Hippopolis_Updating,2022.2.2,59.80666928505368,
Hippopolis,stimuli/subj_files/ST04_112822_cityA.csv,./stimuli/seattle.jpg,./stimuli/street_plate1.png,./stimuli/videos/hippopolis_part1.mp4,PÁRNA UTCA,stimuli/objects/058a.jpg,object,2,stimuli/scenes/081a.jpg,stimuli/objects/120a.jpg,stimuli/objects/120b.jpg,stimuli/scenes/081a.jpg,stimuli/scenes/081b.jpg,dist1,dist2,target,lure,0,0,0,0,0,29,29,28,,,,,,,246.07775844074786,247.10680208355188,247.10680208355188,247.10680208355188,247.10680208355188,250.10739548318088,250.10739548318088,250.10739548318088,250.10739548318088,None,,,,,,,,,,ST04_112822,2022-11-29_16h02.57.952,Hippopolis_Updating,2022.2.2,59.80666928505368,
Hippopolis,stimuli/subj_files/ST04_112822_cityA.csv,./stimuli/seattle.jpg,./stimuli/street_plate1.png,./stimuli/videos/hippopolis_part1.mp4,SIVATAG UTCA,stimuli/scenes/051a.jpg,scene,1,stimuli/scenes/079a.jpg,stimuli/objects/045a.jpg,stimuli/objects/045b.jpg,stimuli/scenes/079a.jpg,stimuli/scenes/079b.jpg,dist1,dist2,target,lure,0,0,0,0,0,30,30,46,,,,,,,252.09411426633596,253.12521055154502,253.12521055154502,253.12521055154502,253.12521055154502,256.13463653437793,256.13463653437793,256.13463653437793,256.13463653437793,None,,,,,,,,,,ST04_112822,2022-11-29_16h02.57.952,Hippopolis_Updating,2022.2.2,59.80666928505368,
Hippopolis,stimuli/subj_files/ST04_112822_cityA.csv,./stimuli/seattle.jpg,./stimuli/street_plate1.png,./stimuli/videos/hippopolis_part1.mp4,KÓKUSZ UTCA,stimuli/objects/085a.jpg,object,2,stimuli/scenes/089a.jpg,stimuli/objects/043a.jpg,stimuli/objects/043b.jpg,stimuli/scenes/089a.jpg,stimuli/scenes/089b.jpg,dist1,dist2,target,lure,0,0,0,0,0,31,31,32,,,,,,,258.1076993364841,259.13175630383193,259.13175630383193,259.13175630383193,259.13175630383193,262.13490306586027,262.13490306586027,262.13490306586027,262.13490306586027,None,,,,,,,,,,ST04_112822,2022-11-29_16h02.57.952,Hippopolis_Updating,2022.2.2,59.80666928505368,
Hippopolis,stimuli/subj_files/ST04_112822_cityA.csv,./stimuli/seattle.jpg,./stimuli/street_plate1.png,./stimuli/videos/hippopolis_part1.mp4,TÜKÖR UTCA,stimuli/scenes/050a.jpg,scene,1,stimuli/scenes/070a.jpg,stimuli/objects/075b.jpg,stimuli/scenes/070b.jpg,stimuli/scenes/070a.jpg,stimuli/objects/075a.jpg,dist2,lure,target,dist1,0,0,0,0,0,32,32,1,,,,,,,264.11670421622694,265.1368717364967,265.1368717364967,265.1368717364967,265.1368717364967,268.1382575817406,268.1382575817406,268.1382575817406,268.1382575817406,None,265.1368717364967,,,,,,,,,ST04_112822,2022-11-29_16h02.57.952,Hippopolis_Updating,2022.2.2,59.80666928505368,
Hippopolis,stimuli/subj_files/ST04_112822_cityA.csv,./stimuli/seattle.jpg,./stimuli/street_plate1.png,./stimuli/videos/hippopolis_part1.mp4,CUKOR UTCA,stimuli/scenes/073a.jpg,scene,2,stimuli/objects/091a.jpg,stimuli/objects/079a.jpg,stimuli/objects/091a.jpg,stimuli/objects/091b.jpg,stimuli/objects/079b.jpg,dist1,target,lure,dist2,0,0,0,0,0,33,33,66,,,,,,,270.124182054773,271.1495635975152,271.1495635975152,271.1495635975152,271.1495635975152,274.1634814441204,274.1634814441204,274.1634814441204,274.1634814441204,None,,,,,,,,,,ST04_112822,2022-11-29_16h02.57.952,Hippopolis_Updating,2022.2.2,59.80666928505368,
Hippopolis,stimuli/subj_files/ST04_112822_cityA.csv,./stimuli/seattle.jpg,./stimuli/street_plate1.png,./stimuli/videos/hippopolis_part1.mp4,TALICSKA UTCA,stimuli/objects/015a.jpg,object,2,stimuli/scenes/074a.jpg,stimuli/scenes/074a.jpg,stimuli/scenes/074b.jpg,stimuli/objects/104b.jpg,stimuli/objects/104a.jpg,target,lure,dist2,dist1,0,0,0,0,0,34,34,15,,,,,,,276.1343180630356,277.16250892728567,277.16250892728567,277.16250892728567,277.16250892728567,280.1561594195664,280.1561594195664,280.1561594195664,280.1561594195664,None,,,,,,,,,,ST04_112822,2022-11-29_16h02.57.952,Hippopolis_Updating,2022.2.2,59.80666928505368,
Hippopolis,stimuli/subj_files/ST04_112822_cityA.csv,./stimuli/seattle.jpg,./stimuli/street_plate1.png,./stimuli/videos/hippopolis_part1.mp4,ZSEMLE UTCA,stimuli/objects/057a.jpg,object,2,stimuli/scenes/031a.jpg,stimuli/objects/056a.jpg,stimuli/scenes/031b.jpg,stimuli/scenes/031a.jpg,stimuli/objects/056b.jpg,dist1,lure,target,dist2,0,0,0,0,0,35,35,24,,,,,,,282.1436006706208,283.17696947976947,283.17696947976947,283.17696947976947,283.17696947976947,286.1702131778002,286.1702131778002,286.1702131778002,286.1702131778002,None,,,,,,,,,,ST04_112822,2022-11-29_16h02.57.952,Hippopolis_Updating,2022.2.2,59.80666928505368,
Hippopolis,stimuli/subj_files/ST04_112822_cityA.csv,./stimuli/seattle.jpg,./stimuli/street_plate1.png,./stimuli/videos/hippopolis_part1.mp4,LABDA UTCA,stimuli/scenes/063a.jpg,scene,2,stimuli/objects/088a.jpg,stimuli/objects/039a.jpg,stimuli/objects/088b.jpg,stimuli/objects/039b.jpg,stimuli/objects/088a.jpg,dist1,lure,dist2,target,0,0,0,0,0,36,36,65,,,,,,,288.14389674924314,289.17447334341705,289.17447334341705,289.17447334341705,289.17447334341705,292.16998676396906,292.16998676396906,292.16998676396906,292.16998676396906,None,,,,,,,,,,ST04_112822,2022-11-29_16h02.57.952,Hippopolis_Updating,2022.2.2,59.80666928505368,
Hippopolis,stimuli/subj_files/ST04_112822_cityA.csv,./stimuli/seattle.jpg,./stimuli/street_plate1.png,./stimuli/videos/hippopolis_part1.mp4,KATONA UTCA,stimuli/scenes/101a.jpg,scene,2,stimuli/objects/120a.jpg,stimuli/objects/120b.jpg,stimuli/objects/120a.jpg,stimuli/objects/054b.jpg,stimuli/objects/054a.jpg,lure,target,dist2,dist1,0,0,0,0,0,37,37,53,,,,,,,294.1453783828765,295.1745946351439,295.1745946351439,295.1745946351439,295.1745946351439,298.1743722651154,298.1743722651154,298.1743722651154,298.1743722651154,None,,,,,,,,,,ST04_112822,2022-11-29_16h02.57.952,Hippopolis_Updating,2022.2.2,59.80666928505368,
Hippopolis,stimuli/subj_files/ST04_112822_cityA.csv,./stimuli/seattle.jpg,./stimuli/street_plate1.png,./stimuli/videos/hippopolis_part1.mp4,ORVOS UTCA,stimuli/scenes/037a.jpg,scene,0,stimuli/scenes/037a.jpg,stimuli/objects/097a.jpg,stimuli/scenes/037b.jpg,stimuli/scenes/037a.jpg,stimuli/objects/097b.jpg,dist1,lure,target,dist2,0,0,0,0,0,38,38,74,,,,,,,300.15672887302935,301.1779684331268,301.1779684331268,301.1779684331268,301.1779684331268,304.18728431873024,304.18728431873024,304.18728431873024,304.18728431873024,None,,,,,,,,,,ST04_112822,2022-11-29_16h02.57.952,Hippopolis_Updating,2022.2.2,59.80666928505368,
Hippopolis,stimuli/subj_files/ST04_112822_cityA.csv,./stimuli/seattle.jpg,./stimuli/street_plate1.png,./stimuli/videos/hippopolis_part1.mp4,TOLMÁCS UTCA,stimuli/objects/022a.jpg,object,2,stimuli/scenes/114a.jpg,stimuli/scenes/018b.jpg,stimuli/scenes/018a.jpg,stimuli/scenes/114b.jpg,stimuli/scenes/114a.jpg,dist2,dist1,lure,target,0,0,0,0,0,39,39,34,,,,,,,306.17267821356654,307.19498825632036,307.19498825632036,307.19498825632036,307.19498825632036,310.1991756465286,310.1991756465286,310.1991756465286,310.1991756465286,None,,,,,,,,,,ST04_112822,2022-11-29_16h02.57.952,Hippopolis_Updating,2022.2.2,59.80666928505368,
Hippopolis,stimuli/subj_files/ST04_112822_cityA.csv,./stimuli/seattle.jpg,./stimuli/street_plate1.png,./stimuli/videos/hippopolis_part1.mp4,VIHAR UTCA,stimuli/scenes/098a.jpg,scene,0,stimuli/scenes/098a.jpg,stimuli/scenes/098b.jpg,stimuli/objects/021a.jpg,stimuli/objects/021b.jpg,stimuli/scenes/098a.jpg,lure,dist1,dist2,target,0,0,0,0,0,40,40,61,,,,,,,312.1735645812005,313.19987167976797,313.19987167976797,313.19987167976797,313.19987167976797,316.19134699366987,316.19134699366987,316.19134699366987,316.19134699366987,None,,,,,,,,,,ST04_112822,2022-11-29_16h02.57.952,Hippopolis_Updating,2022.2.2,59.80666928505368,
Hippopolis,stimuli/subj_files/ST04_112822_cityA.csv,./stimuli/seattle.jpg,./stimuli/street_plate1.png,./stimuli/videos/hippopolis_part1.mp4,BOHÓC UTCA,stimuli/scenes/113a.jpg,scene,2,stimuli/objects/013a.jpg,stimuli/scenes/100b.jpg,stimuli/objects/013b.jpg,stimuli/objects/013a.jpg,stimuli/scenes/100a.jpg,dist2,lure,target,dist1,0,0,0,0,0,41,41,23,,,,,,,318.1744070984423,319.2006918042898,319.2006918042898,319.2006918042898,319.2006918042898,322.2102381438017,322.2102381438017,322.2102381438017,322.2102381438017,None,,,,,,,,,,ST04_112822,2022-11-29_16h02.57.952,Hippopolis_Updating,2022.2.2,59.80666928505368,
Hippopolis,stimuli/subj_files/ST04_112822_cityA.csv,./stimuli/seattle.jpg,./stimuli/street_plate1.png,./stimuli/videos/hippopolis_part1.mp4,LIGET UTCA,stimuli/objects/029a.jpg,object,2,stimuli/scenes/021a.jpg,stimuli/scenes/021b.jpg,stimuli/scenes/021a.jpg,stimuli/scenes/086b.jpg,stimuli/scenes/086a.jpg,lure,target,dist2,dist1,0,0,0,0,0,42,42,38,,,,,,,324.19019813649356,325.2177980877459,325.2177980877459,325.2177980877459,325.2177980877459,328.22165239043534,328.22165239043534,328.22165239043534,328.22165239043534,None,,,,,,,,,,ST04_112822,2022-11-29_16h02.57.952,Hippopolis_Updating,2022.2.2,59.80666928505368,
Hippopolis,stimuli/subj_files/ST04_112822_cityA.csv,./stimuli/seattle.jpg,./stimuli/street_plate1.png,./stimuli/videos/hippopolis_part1.mp4,SZALVÉTA UTCA,stimuli/objects/055a.jpg,object,0,stimuli/objects/055a.jpg,stimuli/scenes/088b.jpg,stimuli/scenes/088a.jpg,stimuli/objects/055a.jpg,stimuli/objects/055b.jpg,dist2,dist1,target,lure,0,0,0,0,0,43,43,49,,,,,,,330.2068755440414,331.2437061648816,331.2437061648816,331.2437061648816,331.2437061648816,334.22576389461756,334.22576389461756,334.22576389461756,334.22576389461756,None,,,,,,,,,,ST04_112822,2022-11-29_16h02.57.952,Hippopolis_Updating,2022.2.2,59.80666928505368,
Hippopolis,stimuli/subj_files/ST04_112822_cityA.csv,./stimuli/seattle.jpg,./stimuli/street_plate1.png,./stimuli/videos/hippopolis_part1.mp4,KRÉTA UTCA,stimuli/scenes/071a.jpg,scene,0,stimuli/scenes/071a.jpg,stimuli/scenes/118a.jpg,stimuli/scenes/071a.jpg,stimuli/scenes/071b.jpg,stimuli/scenes/118b.jpg,dist1,target,lure,dist2,0,0,0,0,0,44,44,51,,,,,,,336.22380642034113,337.25142223387957,337.25142223387957,337.25142223387957,337.25142223387957,340.25464923493564,340.25464923493564,340.25464923493564,340.25464923493564,space,,342.2363940924406,342.2363940924406,6.848059238865972,,,,,,ST04_112822,2022-11-29_16h02.57.952,Hippopolis_Updating,2022.2.2,59.80666928505368,
Hippopolis,stimuli/subj_files/ST04_112822_cityA.csv,./stimuli/seattle.jpg,./stimuli/street_plate1.png,./stimuli/videos/hippopolis_part1.mp4,MÁRVÁNY UTCA,stimuli/scenes/117a.jpg,scene,1,stimuli/scenes/026a.jpg,stimuli/scenes/026a.jpg,stimuli/scenes/028a.jpg,stimuli/scenes/026b.jpg,stimuli/scenes/028b.jpg,target,dist1,lure,dist2,0,0,0,0,0,45,45,69,,,,,,,349.1191795170307,350.1471134889871,350.1471134889871,350.1471134889871,350.1471134889871,353.16084317676723,353.16084317676723,353.16084317676723,353.16084317676723,None,,,,,,,,,,ST04_112822,2022-11-29_16h02.57.952,Hippopolis_Updating,2022.2.2,59.80666928505368,
Hippopolis,stimuli/subj_files/ST04_112822_cityA.csv,./stimuli/seattle.jpg,./stimuli/street_plate1.png,./stimuli/videos/hippopolis_part1.mp4,SZOBOR UTCA,stimuli/scenes/003a.jpg,scene,1,stimuli/scenes/010a.jpg,stimuli/scenes/010b.jpg,stimuli/objects/119a.jpg,stimuli/objects/119b.jpg,stimuli/scenes/010a.jpg,lure,dist1,dist2,target,0,0,0,0,0,46,46,41,,,,,,,355.12357185967267,356.14741329848766,356.14741329848766,356.14741329848766,356.14741329848766,359.15740189142525,359.15740189142525,359.15740189142525,359.15740189142525,None,,,,,,,,,,ST04_112822,2022-11-29_16h02.57.952,Hippopolis_Updating,2022.2.2,59.80666928505368,
Hippopolis,stimuli/subj_files/ST04_112822_cityA.csv,./stimuli/seattle.jpg,./stimuli/street_plate1.png,./stimuli/videos/hippopolis_part1.mp4,SZÖCSKE UTCA,stimuli/objects/116a.jpg,object,0,stimuli/objects/116a.jpg,stimuli/objects/116b.jpg,stimuli/objects/116a.jpg,stimuli/scenes/071a.jpg,stimuli/scenes/071b.jpg,lure,target,dist1,dist2,0,0,0,0,0,47,47,58,,,,,,,361.1317373327911,362.1488324198872,362.1488324198872,362.1488324198872,362.1488324198872,365.15836290083826,365.15836290083826,365.15836290083826,365.15836290083826,None,362.1488324198872,,,,,,,,,ST04_112822,2022-11-29_16h02.57.952,Hippopolis_Updating,2022.2.2,59.80666928505368,
Hippopolis,stimuli/subj_files/ST04_112822_cityA.csv,./stimuli/seattle.jpg,./stimuli/street_plate1.png,./stimuli/videos/hippopolis_part1.mp4,RIBIZLI UTCA,stimuli/objects/086a.jpg,object,1,stimuli/objects/076a.jpg,stimuli/objects/036a.jpg,stimuli/objects/076a.jpg,stimuli/objects/036b.jpg,stimuli/objects/076b.jpg,dist1,target,dist2,lure,0,0,0,0,0,48,48,35,,,,,,,367.14053912460804,368.17294412478805,368.17294412478805,368.17294412478805,368.17294412478805,371.1719442382455,371.1719442382455,371.1719442382455,371.1719442382455,None,,,,,,,,,,ST04_112822,2022-11-29_16h02.57.952,Hippopolis_Updating,2022.2.2,59.80666928505368,
Hippopolis,stimuli/subj_files/ST04_112822_cityA.csv,./stimuli/seattle.jpg,./stimuli/street_plate1.png,./stimuli/videos/hippopolis_part1.mp4,SZAXOFON UTCA,stimuli/scenes/011a.jpg,scene,2,stimuli/objects/039a.jpg,stimuli/objects/039a.jpg,stimuli/objects/039b.jpg,stimuli/scenes/023b.jpg,stimuli/scenes/023a.jpg,target,lure,dist2,dist1,0,0,0,0,0,49,49,29,,,,,,,373.15459350310266,374.17192215658724,374.17192215658724,374.17192215658724,374.17192215658724,377.1967892944813,377.1967892944813,377.1967892944813,377.1967892944813,None,,,,,,,,,,ST04_112822,2022-11-29_16h02.57.952,Hippopolis_Updating,2022.2.2,59.80666928505368,
Hippopolis,stimuli/subj_files/ST04_112822_cityA.csv,./stimuli/seattle.jpg,./stimuli/street_plate1.png,./stimuli/videos/hippopolis_part1.mp4,KORONA UTCA,stimuli/scenes/025a.jpg,scene,2,stimuli/objects/104a.jpg,stimuli/scenes/074a.jpg,stimuli/objects/104a.jpg,stimuli/objects/104b.jpg,stimuli/scenes/074b.jpg,dist1,target,lure,dist2,0,0,0,0,0,50,50,17,,,,,,,379.1562785357237,380.1826192215085,380.1826192215085,380.1826192215085,380.1826192215085,383.19015615060925,383.19015615060925,383.19015615060925,383.19015615060925,None,,,,,,,,,,ST04_112822,2022-11-29_16h02.57.952,Hippopolis_Updating,2022.2.2,59.80666928505368,
Hippopolis,stimuli/subj_files/ST04_112822_cityA.csv,./stimuli/seattle.jpg,./stimuli/street_plate1.png,./stimuli/videos/hippopolis_part1.mp4,OROSZLÁN UTCA,stimuli/objects/084a.jpg,object,0,stimuli/objects/084a.jpg,stimuli/objects/055b.jpg,stimuli/objects/084a.jpg,stimuli/objects/084b.jpg,stimuli/objects/055a.jpg,dist2,target,lure,dist1,0,0,0,0,0,51,51,30,,,,,,,385.1738762110472,386.19317571260035,386.19317571260035,386.19317571260035,386.19317571260035,389.20645133033395,389.20645133033395,389.20645133033395,389.20645133033395,None,,,,,,,,,,ST04_112822,2022-11-29_16h02.57.952,Hippopolis_Updating,2022.2.2,59.80666928505368,
Hippopolis,stimuli/subj_files/ST04_112822_cityA.csv,./stimuli/seattle.jpg,./stimuli/street_plate1.png,./stimuli/videos/hippopolis_part1.mp4,BAGOLY UTCA,stimuli/scenes/108a.jpg,scene,0,stimuli/scenes/108a.jpg,stimuli/scenes/006b.jpg,stimuli/scenes/108b.jpg,stimuli/scenes/108a.jpg,stimuli/scenes/006a.jpg,dist2,lure,target,dist1,0,0,0,0,0,52,52,78,,,,,,,391.18184077367187,392.210480729118,392.210480729118,392.210480729118,392.210480729118,395.2093648388982,395.2093648388982,395.2093648388982,395.2093648388982,None,,,,,,,,,,ST04_112822,2022-11-29_16h02.57.952,Hippopolis_Updating,2022.2.2,59.80666928505368,
Hippopolis,stimuli/subj_files/ST04_112822_cityA.csv,./stimuli/seattle.jpg,./stimuli/street_plate1.png,./stimuli/videos/hippopolis_part1.mp4,PULÓVER UTCA,stimuli/objects/093a.jpg,object,1,stimuli/objects/106a.jpg,stimuli/objects/106b.jpg,stimuli/objects/106a.jpg,stimuli/objects/076b.jpg,stimuli/objects/076a.jpg,lure,target,dist2,dist1,0,0,0,0,0,53,53,42,,,,,,,397.1814725417644,398.21036814525723,398.21036814525723,398.21036814525723,398.21036814525723,401.2302417643368,401.2302417643368,401.2302417643368,401.2302417643368,None,,,,,,,,,,ST04_112822,2022-11-29_16h02.57.952,Hippopolis_Updating,2022.2.2,59.80666928505368,
Hippopolis,stimuli/subj_files/ST04_112822_cityA.csv,./stimuli/seattle.jpg,./stimuli/street_plate1.png,./stimuli/videos/hippopolis_part1.mp4,HÁRFA UTCA,stimuli/objects/007a.jpg,object,1,stimuli/objects/094a.jpg,stimuli/objects/094b.jpg,stimuli/objects/094a.jpg,stimuli/scenes/069b.jpg,stimuli/scenes/069a.jpg,lure,target,dist2,dist1,0,0,0,0,0,54,54,59,,,,,,,403.19654950872064,404.22504142671824,404.22504142671824,404.22504142671824,404.22504142671824,407.22125927731395,407.22125927731395,407.22125927731395,407.22125927731395,None,,,,,,,,,,ST04_112822,2022-11-29_16h02.57.952,Hippopolis_Updating,2022.2.2,59.80666928505368,
Hippopolis,stimuli/subj_files/ST04_112822_cityA.csv,./stimuli/seattle.jpg,./stimuli/street_plate1.png,./stimuli/videos/hippopolis_part1.mp4,SIRÁLY UTCA,stimuli/scenes/054a.jpg,scene,1,stimuli/scenes/111a.jpg,stimuli/scenes/111b.jpg,stimuli/objects/109a.jpg,stimuli/objects/109b.jpg,stimuli/scenes/111a.jpg,lure,dist1,dist2,target,0,0,0,0,0,55,55,12,,,,,,,409.20905321091413,410.23774323798716,410.23774323798716,410.23774323798716,410.23774323798716,413.24235857464373,413.24235857464373,413.24235857464373,413.24235857464373,None,,,,,,,,,,ST04_112822,2022-11-29_16h02.57.952,Hippopolis_Updating,2022.2.2,59.80666928505368,
Hippopolis,stimuli/subj_files/ST04_112822_cityA.csv,./stimuli/seattle.jpg,./stimuli/street_plate1.png,./stimuli/videos/hippopolis_part1.mp4,LÉTRA UTCA,stimuli/scenes/034a.jpg,scene,1,stimuli/scenes/040a.jpg,stimuli/scenes/040a.jpg,stimuli/scenes/080a.jpg,stimuli/scenes/040b.jpg,stimuli/scenes/080b.jpg,target,dist1,lure,dist2,0,0,0,0,0,56,56,18,,,,,,,415.22436592169106,416.25095137022436,416.25095137022436,416.25095137022436,416.25095137022436,419.2549978736788,419.2549978736788,419.2549978736788,419.2549978736788,None,,,,,,,,,,ST04_112822,2022-11-29_16h02.57.952,Hippopolis_Updating,2022.2.2,59.80666928505368,
Hippopolis,stimuli/subj_files/ST04_112822_cityA.csv,./stimuli/seattle.jpg,./stimuli/street_plate1.png,./stimuli/videos/hippopolis_part1.mp4,KULLANCS UTCA,stimuli/objects/097a.jpg,object,0,stimuli/objects/097a.jpg,stimuli/objects/097a.jpg,stimuli/objects/050a.jpg,stimuli/objects/097b.jpg,stimuli/objects/050b.jpg,target,dist1,lure,dist2,0,0,0,0,0,57,57,76,,,,,,,421.2327581178397,422.2602336667478,422.2602336667478,422.2602336667478,422.2602336667478,425.25726977549493,425.25726977549493,425.25726977549493,425.25726977549493,None,,,,,,,,,,ST04_112822,2022-11-29_16h02.57.952,Hippopolis_Updating,2022.2.2,59.80666928505368,
Hippopolis,stimuli/subj_files/ST04_112822_cityA.csv,./stimuli/seattle.jpg,./stimuli/street_plate1.png,./stimuli/videos/hippopolis_part1.mp4,KÖTÉL UTCA,stimuli/objects/078a.jpg,object,2,stimuli/scenes/018a.jpg,stimuli/scenes/018b.jpg,stimuli/scenes/018a.jpg,stimuli/objects/013b.jpg,stimuli/objects/013a.jpg,lure,target,dist2,dist1,0,0,0,0,0,58,58,37,,,,,,,427.2465229500085,428.28001771494746,428.28001771494746,428.28001771494746,428.28001771494746,431.2708946540952,431.2708946540952,431.2708946540952,431.2708946540952,None,,,,,,,,,,ST04_112822,2022-11-29_16h02.57.952,Hippopolis_Updating,2022.2.2,59.80666928505368,
Hippopolis,stimuli/subj_files/ST04_112822_cityA.csv,./stimuli/seattle.jpg,./stimuli/street_plate1.png,./stimuli/videos/hippopolis_part1.mp4,KANÁL UTCA,stimuli/objects/072a.jpg,object,2,stimuli/scenes/100a.jpg,stimuli/objects/019a.jpg,stimuli/scenes/100b.jpg,stimuli/scenes/100a.jpg,stimuli/objects/019b.jpg,dist1,lure,target,dist2,0,0,0,0,0,59,59,5,,,,,,,433.2604053411633,434.2922800760716,434.2922800760716,434.2922800760716,434.2922800760716,437.28770175017416,437.28770175017416,437.28770175017416,437.28770175017416,None,,,,,,,,,,ST04_112822,2022-11-29_16h02.57.952,Hippopolis_Updating,2022.2.2,59.80666928505368,
Hippopolis,stimuli/subj_files/ST04_112822_cityA.csv,./stimuli/seattle.jpg,./stimuli/street_plate1.png,./stimuli/videos/hippopolis_part1.mp4,LÉPCSŐ UTCA,stimuli/objects/018a.jpg,object,1,stimuli/objects/075a.jpg,stimuli/scenes/045a.jpg,stimuli/objects/075a.jpg,stimuli/objects/075b.jpg,stimuli/scenes/045b.jpg,dist1,target,lure,dist2,0,0,0,0,0,60,60,14,,,,,,,439.2721881289035,440.29739613085985,440.29739613085985,440.29739613085985,440.29739613085985,443.30473432689905,443.30473432689905,443.30473432689905,443.30473432689905,None,,,,,,,,,,ST04_112822,2022-11-29_16h02.57.952,Hippopolis_Updating,2022.2.2,59.80666928505368,
Hippopolis,stimuli/subj_files/ST04_112822_cityA.csv,./stimuli/seattle.jpg,./stimuli/street_plate1.png,./stimuli/videos/hippopolis_part1.mp4,FEJSZE UTCA,stimuli/scenes/036a.jpg,scene,1,stimuli/scenes/044a.jpg,stimuli/objects/008b.jpg,stimuli/scenes/044a.jpg,stimuli/objects/008a.jpg,stimuli/scenes/044b.jpg,dist2,target,dist1,lure,0,0,0,0,0,61,61,43,,,,,,,445.2749399151653,446.3044967185706,446.3044967185706,446.3044967185706,446.3044967185706,449.3114806767553,449.3114806767553,449.3114806767553,449.3114806767553,None,,,,,,,,,,ST04_112822,2022-11-29_16h02.57.952,Hippopolis_Updating,2022.2.2,59.80666928505368,
Hippopolis,stimuli/subj_files/ST04_112822_cityA.csv,./stimuli/seattle.jpg,./stimuli/street_plate1.png,./stimuli/videos/hippopolis_part1.mp4,PETÁRDA UTCA,stimuli/scenes/015a.jpg,scene,1,stimuli/scenes/077a.jpg,stimuli/scenes/077b.jpg,stimuli/scenes/097b.jpg,stimuli/scenes/077a.jpg,stimuli/scenes/097a.jpg,lure,dist2,target,dist1,0,0,0,0,0,62,62,54,,,,,,,451.2885927837342,452.30866016075015,452.30866016075015,452.30866016075015,452.30866016075015,455.31516828015447,455.31516828015447,455.31516828015447,455.31516828015447,None,,,,,,,,,,ST04_112822,2022-11-29_16h02.57.952,Hippopolis_Updating,2022.2.2,59.80666928505368,
Hippopolis,stimuli/subj_files/ST04_112822_cityA.csv,./stimuli/seattle.jpg,./stimuli/street_plate1.png,./stimuli/videos/hippopolis_part1.mp4,KÖTÉNY UTCA,stimuli/objects/114a.jpg,object,0,stimuli/objects/114a.jpg,stimuli/scenes/116b.jpg,stimuli/objects/114b.jpg,stimuli/objects/114a.jpg,stimuli/scenes/116a.jpg,dist2,lure,target,dist1,0,0,0,0,0,63,63,3,,,,,,,457.3052409552038,458.32970907352865,458.32970907352865,458.32970907352865,458.32970907352865,461.33635559119284,461.33635559119284,461.33635559119284,461.33635559119284,None,,,,,,,,,,ST04_112822,2022-11-29_16h02.57.952,Hippopolis_Updating,2022.2.2,59.80666928505368,
Hippopolis,stimuli/subj_files/ST04_112822_cityA.csv,./stimuli/seattle.jpg,./stimuli/street_plate1.png,./stimuli/videos/hippopolis_part1.mp4,KESELYŰ UTCA,stimuli/scenes/046a.jpg,scene,2,stimuli/objects/061a.jpg,stimuli/scenes/081b.jpg,stimuli/objects/061b.jpg,stimuli/scenes/081a.jpg,stimuli/objects/061a.jpg,dist2,lure,dist1,target,0,0,0,0,0,64,64,75,,,,,,,463.3203891441226,464.34959482215345,464.34959482215345,464.34959482215345,464.34959482215345,467.3569868206978,467.3569868206978,467.3569868206978,467.3569868206978,None,,,,,,,,,,ST04_112822,2022-11-29_16h02.57.952,Hippopolis_Updating,2022.2.2,59.80666928505368,
Hippopolis,stimuli/subj_files/ST04_112822_cityA.csv,./stimuli/seattle.jpg,./stimuli/street_plate1.png,./stimuli/videos/hippopolis_part1.mp4,DOMINÓ UTCA,stimuli/objects/062a.jpg,object,1,stimuli/objects/045a.jpg,stimuli/scenes/010b.jpg,stimuli/scenes/010a.jpg,stimuli/objects/045a.jpg,stimuli/objects/045b.jpg,dist2,dist1,target,lure,0,0,0,0,0,65,65,68,,,,,,,469.3316258061677,470.3580790758133,470.3580790758133,470.3580790758133,470.3580790758133,473.3498744163662,473.3498744163662,473.3498744163662,473.3498744163662,None,,,,,,,,,,ST04_112822,2022-11-29_16h02.57.952,Hippopolis_Updating,2022.2.2,59.80666928505368,
Hippopolis,stimuli/subj_files/ST04_112822_cityA.csv,./stimuli/seattle.jpg,./stimuli/street_plate1.png,./stimuli/videos/hippopolis_part1.mp4,LAKAT UTCA,stimuli/objects/014a.jpg,object,0,stimuli/objects/014a.jpg,stimuli/scenes/087a.jpg,stimuli/objects/014b.jpg,stimuli/objects/014a.jpg,stimuli/scenes/087b.jpg,dist1,lure,target,dist2,0,0,0,0,0,66,66,21,,,,,,,475.3383612707257,476.36407465673983,476.36407465673983,476.36407465673983,476.36407465673983,479.3744218405336,479.3744218405336,479.3744218405336,479.3744218405336,None,,,,,,,,,,ST04_112822,2022-11-29_16h02.57.952,Hippopolis_Updating,2022.2.2,59.80666928505368,
Hippopolis,stimuli/subj_files/ST04_112822_cityA.csv,./stimuli/seattle.jpg,./stimuli/street_plate1.png,./stimuli/videos/hippopolis_part1.mp4,SUGÁR UTCA,stimuli/objects/042a.jpg,object,1,stimuli/objects/080a.jpg,stimuli/objects/094b.jpg,stimuli/objects/094a.jpg,stimuli/objects/080a.jpg,stimuli/objects/080b.jpg,dist2,dist1,target,lure,0,0,0,0,0,67,67,60,,,,,,,481.3507290612906,482.3773222863674,482.3773222863674,482.3773222863674,482.3773222863674,485.3809731900692,485.3809731900692,485.3809731900692,485.3809731900692,None,,,,,,,,,,ST04_112822,2022-11-29_16h02.57.952,Hippopolis_Updating,2022.2.2,59.80666928505368,
Hippopolis,stimuli/subj_files/ST04_112822_cityA.csv,./stimuli/seattle.jpg,./stimuli/street_plate1.png,./stimuli/videos/hippopolis_part1.mp4,FÜGE UTCA,stimuli/scenes/006a.jpg,scene,0,stimuli/scenes/006a.jpg,stimuli/scenes/006b.jpg,stimuli/scenes/108a.jpg,stimuli/scenes/108b.jpg,stimuli/scenes/006a.jpg,lure,dist1,dist2,target,0,0,0,0,0,68,68,7,,,,,,,487.35517178848386,488.3784297797829,488.3784297797829,488.3784297797829,488.3784297797829,491.38717372342944,491.38717372342944,491.38717372342944,491.38717372342944,None,,,,,,,,,,ST04_112822,2022-11-29_16h02.57.952,Hippopolis_Updating,2022.2.2,59.80666928505368,
Hippopolis,stimuli/subj_files/ST04_112822_cityA.csv,./stimuli/seattle.jpg,./stimuli/street_plate1.png,./stimuli/videos/hippopolis_part1.mp4,ÁLOM UTCA,stimuli/scenes/055a.jpg,scene,1,stimuli/scenes/028a.jpg,stimuli/objects/106a.jpg,stimuli/objects/106b.jpg,stimuli/scenes/028b.jpg,stimuli/scenes/028a.jpg,dist1,dist2,lure,target,0,0,0,0,0,69,69,4,,,,,,,493.3572760578245,494.37871745973825,494.37871745973825,494.37871745973825,494.37871745973825,497.38783803395927,497.38783803395927,497.38783803395927,497.38783803395927,None,,,,,,,,,,ST04_112822,2022-11-29_16h02.57.952,Hippopolis_Updating,2022.2.2,59.80666928505368,
Hippopolis,stimuli/subj_files/ST04_112822_cityA.csv,./stimuli/seattle.jpg,./stimuli/street_plate1.png,./stimuli/videos/hippopolis_part1.mp4,ÁRNYÉK UTCA,stimuli/scenes/029a.jpg,scene,1,stimuli/scenes/069a.jpg,stimuli/objects/052a.jpg,stimuli/scenes/069b.jpg,stimuli/objects/052b.jpg,stimuli/scenes/069a.jpg,dist1,lure,dist2,target,0,0,0,0,0,70,70,56,,,,,,,499.3769248202443,500.39290215075016,500.39290215075016,500.39290215075016,500.39290215075016,503.3849764633924,503.3849764633924,503.3849764633924,503.3849764633924,None,,,,,,,,,,ST04_112822,2022-11-29_16h02.57.952,Hippopolis_Updating,2022.2.2,59.80666928505368,
Hippopolis,stimuli/subj_files/ST04_112822_cityA.csv,./stimuli/seattle.jpg,./stimuli/street_plate1.png,./stimuli/videos/hippopolis_part1.mp4,REPÜLŐ UTCA,stimuli/scenes/075a.jpg,scene,2,stimuli/objects/019a.jpg,stimuli/objects/019b.jpg,stimuli/scenes/031a.jpg,stimuli/objects/019a.jpg,stimuli/scenes/031b.jpg,lure,dist1,target,dist2,0,0,0,0,0,71,71,73,,,,,,,505.3715633805841,506.39569685421884,506.39569685421884,506.39569685421884,506.39569685421884,509.41149380244315,509.41149380244315,509.41149380244315,509.41149380244315,None,,,,,,,,,,ST04_112822,2022-11-29_16h02.57.952,Hippopolis_Updating,2022.2.2,59.80666928505368,
Hippopolis,stimuli/subj_files/ST04_112822_cityA.csv,./stimuli/seattle.jpg,./stimuli/street_plate1.png,./stimuli/videos/hippopolis_part1.mp4,SÜTEMÉNY UTCA,stimuli/objects/101a.jpg,object,1,stimuli/objects/047a.jpg,stimuli/objects/047b.jpg,stimuli/objects/047a.jpg,stimuli/scenes/077a.jpg,stimuli/scenes/077b.jpg,lure,target,dist1,dist2,0,0,0,0,0,72,72,77,,,,,,,511.38929292187095,512.416271481663,512.416271481663,512.416271481663,512.416271481663,515.4061995390803,515.4061995390803,515.4061995390803,515.4061995390803,None,,,,,,,,,,ST04_112822,2022-11-29_16h02.57.952,Hippopolis_Updating,2022.2.2,59.80666928505368,
Hippopolis,stimuli/subj_files/ST04_112822_cityA.csv,./stimuli/seattle.jpg,./stimuli/street_plate1.png,./stimuli/videos/hippopolis_part1.mp4,PIZSAMA UTCA,stimuli/scenes/012a.jpg,scene,0,stimuli/scenes/012a.jpg,stimuli/scenes/052b.jpg,stimuli/scenes/012b.jpg,stimuli/scenes/052a.jpg,stimuli/scenes/012a.jpg,dist2,lure,dist1,target,0,0,0,0,0,73,73,20,,,,,,,517.397826936096,518.4296083692461,518.4296083692461,518.4296083692461,518.4296083692461,521.4202504977584,521.4202504977584,521.4202504977584,521.4202504977584,None,,,,,,,,,,ST04_112822,2022-11-29_16h02.57.952,Hippopolis_Updating,2022.2.2,59.80666928505368,
Hippopolis,stimuli/subj_files/ST04_112822_cityA.csv,./stimuli/seattle.jpg,./stimuli/street_plate1.png,./stimuli/videos/hippopolis_part1.mp4,BÚJÓCSKA UTCA,stimuli/scenes/088a.jpg,scene,0,stimuli/scenes/088a.jpg,stimuli/scenes/088b.jpg,stimuli/scenes/037b.jpg,stimuli/scenes/037a.jpg,stimuli/scenes/088a.jpg,lure,dist2,dist1,target,0,0,0,0,0,74,74,79,,,,,,,523.4077054336667,524.4429853763431,524.4429853763431,524.4429853763431,524.4429853763431,527.4350606221706,527.4350606221706,527.4350606221706,527.4350606221706,None,,,,,,,,,,ST04_112822,2022-11-29_16h02.57.952,Hippopolis_Updating,2022.2.2,59.80666928505368,
Hippopolis,stimuli/subj_files/ST04_112822_cityA.csv,./stimuli/seattle.jpg,./stimuli/street_plate1.png,./stimuli/videos/hippopolis_part1.mp4,TENISZ UTCA,stimuli/scenes/090a.jpg,scene,1,stimuli/scenes/112a.jpg,stimuli/objects/047b.jpg,stimuli/scenes/112a.jpg,stimuli/objects/047a.jpg,stimuli/scenes/112b.jpg,dist2,target,dist1,lure,0,0,0,0,0,75,75,72,,,,,,,529.4172778986394,530.4417083840817,530.4417083840817,530.4417083840817,530.4417083840817,533.439016001299,533.439016001299,533.439016001299,533.439016001299,None,,,,,,,,,,ST04_112822,2022-11-29_16h02.57.952,Hippopolis_Updating,2022.2.2,59.80666928505368,
Hippopolis,stimuli/subj_files/ST04_112822_cityA.csv,./stimuli/seattle.jpg,./stimuli/street_plate1.png,./stimuli/videos/hippopolis_part1.mp4,MUNKA UTCA,stimuli/objects/025a.jpg,object,2,stimuli/scenes/023a.jpg,stimuli/scenes/114b.jpg,stimuli/scenes/114a.jpg,stimuli/scenes/023a.jpg,stimuli/scenes/023b.jpg,dist2,dist1,target,lure,0,0,0,0,0,76,76,16,,,,,,,535.421117272228,536.4510821159929,536.4510821159929,536.4510821159929,536.4510821159929,539.443115375936,539.443115375936,539.443115375936,539.443115375936,None,,,,,,,,,,ST04_112822,2022-11-29_16h02.57.952,Hippopolis_Updating,2022.2.2,59.80666928505368,
Hippopolis,stimuli/subj_files/ST04_112822_cityA.csv,./stimuli/seattle.jpg,./stimuli/street_plate1.png,./stimuli/videos/hippopolis_part1.mp4,FIÓK UTCA,stimuli/scenes/104a.jpg,scene,1,stimuli/scenes/045a.jpg,stimuli/scenes/045a.jpg,stimuli/scenes/026a.jpg,stimuli/scenes/045b.jpg,stimuli/scenes/026b.jpg,target,dist1,lure,dist2,0,0,0,0,0,77,77,63,,,,,,,541.4323545563966,542.448776004836,542.448776004836,542.448776004836,542.448776004836,545.449480433017,545.449480433017,545.449480433017,545.449480433017,None,,,,,,,,,,ST04_112822,2022-11-29_16h02.57.952,Hippopolis_Updating,2022.2.2,59.80666928505368,
Hippopolis,stimuli/subj_files/ST04_112822_cityA.csv,./stimuli/seattle.jpg,./stimuli/street_plate1.png,./stimuli/videos/hippopolis_part1.mp4,KÖNYVTÁR UTCA,stimuli/objects/082a.jpg,object,0,stimuli/objects/082a.jpg,stimuli/objects/116b.jpg,stimuli/objects/116a.jpg,stimuli/objects/082a.jpg,stimuli/objects/082b.jpg,dist2,dist1,target,lure,0,0,0,0,0,78,78,39,,,,,,,547.4392138011754,548.4581727515906,548.4581727515906,548.4581727515906,548.4581727515906,551.4703959245235,551.4703959245235,551.4703959245235,551.4703959245235,None,,,,,,,,,,ST04_112822,2022-11-29_16h02.57.952,Hippopolis_Updating,2022.2.2,59.80666928505368,
Hippopolis,stimuli/subj_files/ST04_112822_cityA.csv,./stimuli/seattle.jpg,./stimuli/street_plate1.png,./stimuli/videos/hippopolis_part1.mp4,KOSÁR UTCA,stimuli/objects/111a.jpg,object,1,stimuli/objects/024a.jpg,stimuli/objects/024a.jpg,stimuli/objects/024b.jpg,stimuli/scenes/111a.jpg,stimuli/scenes/111b.jpg,target,lure,dist1,dist2,0,0,0,0,0,79,79,25,,,,,,,553.4538096431643,554.4747049175203,554.4747049175203,554.4747049175203,554.4747049175203,557.4984054714441,557.4984054714441,557.4984054714441,557.4984054714441,None,,,,,,,,,,ST04_112822,2022-11-29_16h02.57.952,Hippopolis_Updating,2022.2.2,59.80666928505368,
Camponello,stimuli/subj_files/ST04_112822_cityB.csv,./stimuli/arnedillo.png,./stimuli/street_plate2.png,./stimuli/videos/camponello_part1.mp4,KESZTYŰ UTCA,stimuli/scenes/049a.jpg,scene,0,stimuli/scenes/049a.jpg,stimuli/scenes/110b.jpg,stimuli/scenes/049b.jpg,stimuli/scenes/049a.jpg,stimuli/scenes/110a.jpg,dist2,lure,target,dist1,0,1,1,1,0,0,0,2,,,,,571.8174305409193,571.8174305409193,574.7708106823266,575.795031549409,575.795031549409,575.795031549409,575.795031549409,578.773236842826,578.773236842826,578.773236842826,578.773236842826,None,,,,,559.468173161149,559.468173161149,space,12.253146931529045,,ST04_112822,2022-11-29_16h02.57.952,Hippopolis_Updating,2022.2.2,59.80666928505368,
Camponello,stimuli/subj_files/ST04_112822_cityB.csv,./stimuli/arnedillo.png,./stimuli/street_plate2.png,./stimuli/videos/camponello_part1.mp4,ECSET UTCA,stimuli/scenes/032a.jpg,scene,1,stimuli/scenes/027a.jpg,stimuli/scenes/027a.jpg,stimuli/objects/089b.jpg,stimuli/objects/089a.jpg,stimuli/scenes/027b.jpg,target,dist2,dist1,lure,0,1,1,1,0,1,1,60,,,,,,,580.7542191129178,581.7828982565552,581.7828982565552,581.7828982565552,581.7828982565552,584.7834263462573,584.7834263462573,584.7834263462573,584.7834263462573,None,,,,,,,,,,ST04_112822,2022-11-29_16h02.57.952,Hippopolis_Updating,2022.2.2,59.80666928505368,
Camponello,stimuli/subj_files/ST04_112822_cityB.csv,./stimuli/arnedillo.png,./stimuli/street_plate2.png,./stimuli/videos/camponello_part1.mp4,MÁLNA UTCA,stimuli/scenes/038a.jpg,scene,0,stimuli/scenes/038a.jpg,stimuli/objects/005a.jpg,stimuli/scenes/038a.jpg,stimuli/scenes/038b.jpg,stimuli/objects/005b.jpg,dist1,target,lure,dist2,0,1,1,1,0,2,2,66,,,,,,,586.7693756986409,587.7810154240578,587.7810154240578,587.7810154240578,587.7810154240578,590.7824043780565,590.7824043780565,590.7824043780565,590.7824043780565,None,,,,,,,,,,ST04_112822,2022-11-29_16h02.57.952,Hippopolis_Updating,2022.2.2,59.80666928505368,
Camponello,stimuli/subj_files/ST04_112822_cityB.csv,./stimuli/arnedillo.png,./stimuli/street_plate2.png,./stimuli/videos/camponello_part1.mp4,KOKTÉL UTCA,stimuli/objects/115a.jpg,object,0,stimuli/objects/115a.jpg,stimuli/objects/115b.jpg,stimuli/scenes/085a.jpg,stimuli/scenes/085b.jpg,stimuli/objects/115a.jpg,lure,dist1,dist2,target,0,1,1,1,0,3,3,24,,,,,,,592.7812178898603,593.8073436710984,593.8073436710984,593.8073436710984,593.8073436710984,596.8065972551703,596.8065972551703,596.8065972551703,596.8065972551703,None,,,,,,,,,,ST04_112822,2022-11-29_16h02.57.952,Hippopolis_Updating,2022.2.2,59.80666928505368,
Camponello,stimuli/subj_files/ST04_112822_cityB.csv,./stimuli/arnedillo.png,./stimuli/street_plate2.png,./stimuli/videos/camponello_part1.mp4,MOSODA UTCA,stimuli/scenes/013a.jpg,scene,2,stimuli/objects/009a.jpg,stimuli/scenes/033a.jpg,stimuli/objects/009a.jpg,stimuli/scenes/033b.jpg,stimuli/objects/009b.jpg,dist1,target,dist2,lure,0,1,1,1,0,4,4,38,,,,,,,598.7898103743792,599.8128534592688,599.8128534592688,599.8128534592688,599.8128534592688,602.8180301617831,602.8180301617831,602.8180301617831,602.8180301617831,None,599.8128534592688,,,,,,,,,ST04_112822,2022-11-29_16h02.57.952,Hippopolis_Updating,2022.2.2,59.80666928505368,
Camponello,stimuli/subj_files/ST04_112822_cityB.csv,./stimuli/arnedillo.png,./stimuli/street_plate2.png,./stimuli/videos/camponello_part1.mp4,SZŐNYEG UTCA,stimuli/objects/077a.jpg,object,2,stimuli/scenes/005a.jpg,stimuli/objects/117b.jpg,stimuli/objects/117a.jpg,stimuli/scenes/005b.jpg,stimuli/scenes/005a.jpg,dist2,dist1,lure,target,0,1,1,1,0,5,5,37,,,,,,,604.8007789477706,605.8082832209766,605.8082832209766,605.8082832209766,605.8082832209766,608.829928021878,608.829928021878,608.829928021878,608.829928021878,None,,,,,,,,,,ST04_112822,2022-11-29_16h02.57.952,Hippopolis_Updating,2022.2.2,59.80666928505368,
Camponello,stimuli/subj_files/ST04_112822_cityB.csv,./stimuli/arnedillo.png,./stimuli/street_plate2.png,./stimuli/videos/camponello_part1.mp4,TOLLTARTÓ UTCA,stimuli/objects/002a.jpg,object,0,stimuli/objects/002a.jpg,stimuli/scenes/017a.jpg,stimuli/objects/002a.jpg,stimuli/scenes/017b.jpg,stimuli/objects/002b.jpg,dist1,target,dist2,lure,0,1,1,1,0,6,6,8,,,,,,,610.8032791279256,611.8277245406061,611.8277245406061,611.8277245406061,611.8277245406061,614.8357578366995,614.8357578366995,614.8357578366995,614.8357578366995,None,,,,,,,,,,ST04_112822,2022-11-29_16h02.57.952,Hippopolis_Updating,2022.2.2,59.80666928505368,
Camponello,stimuli/subj_files/ST04_112822_cityB.csv,./stimuli/arnedillo.png,./stimuli/street_plate2.png,./stimuli/videos/camponello_part1.mp4,OLDAL UTCA,stimuli/objects/083a.jpg,object,2,stimuli/scenes/084a.jpg,stimuli/scenes/084a.jpg,stimuli/scenes/084b.jpg,stimuli/scenes/107b.jpg,stimuli/scenes/107a.jpg,target,lure,dist2,dist1,0,1,1,1,0,7,7,57,,,,,,,616.8210599850863,617.844578910619,617.844578910619,617.844578910619,617.844578910619,620.839841350913,620.839841350913,620.839841350913,620.839841350913,None,,,,,,,,,,ST04_112822,2022-11-29_16h02.57.952,Hippopolis_Updating,2022.2.2,59.80666928505368,
Camponello,stimuli/subj_files/ST04_112822_cityB.csv,./stimuli/arnedillo.png,./stimuli/street_plate2.png,./stimuli/videos/camponello_part1.mp4,HEGESZTŐ UTCA,stimuli/objects/016a.jpg,object,2,stimuli/scenes/060a.jpg,stimuli/scenes/084a.jpg,stimuli/scenes/060b.jpg,stimuli/scenes/060a.jpg,stimuli/scenes/084b.jpg,dist1,lure,target,dist2,0,1,1,1,0,8,8,32,,,,,,,622.836934061721,623.8629217557609,623.8629217557609,623.8629217557609,623.8629217557609,626.8646210953593,626.8646210953593,626.8646210953593,626.8646210953593,None,,,,,,,,,,ST04_112822,2022-11-29_16h02.57.952,Hippopolis_Updating,2022.2.2,59.80666928505368,
Camponello,stimuli/subj_files/ST04_112822_cityB.csv,./stimuli/arnedillo.png,./stimuli/street_plate2.png,./stimuli/videos/camponello_part1.mp4,KOCKA UTCA,stimuli/objects/053a.jpg,object,0,stimuli/objects/053a.jpg,stimuli/objects/053b.jpg,stimuli/scenes/092a.jpg,stimuli/objects/053a.jpg,stimuli/scenes/092b.jpg,lure,dist1,target,dist2,0,1,1,1,0,9,9,47,,,,,,,628.841461693868,629.8700870331377,629.8700870331377,629.8700870331377,629.8700870331377,632.8714112974703,632.8714112974703,632.8714112974703,632.8714112974703,None,,,,,,,,,,ST04_112822,2022-11-29_16h02.57.952,Hippopolis_Updating,2022.2.2,59.80666928505368,
Camponello,stimuli/subj_files/ST04_112822_cityB.csv,./stimuli/arnedillo.png,./stimuli/street_plate2.png,./stimuli/videos/camponello_part1.mp4,MOTOR UTCA,stimuli/objects/073a.jpg,object,0,stimuli/objects/073a.jpg,stimuli/objects/028a.jpg,stimuli/objects/073b.jpg,stimuli/objects/073a.jpg,stimuli/objects/028b.jpg,dist1,lure,target,dist2,0,1,1,1,0,10,10,7,,,,,,,634.8552361670882,635.884812252596,635.884812252596,635.884812252596,635.884812252596,638.8870023600757,638.8870023600757,638.8870023600757,638.8870023600757,None,,,,,,,,,,ST04_112822,2022-11-29_16h02.57.952,Hippopolis_Updating,2022.2.2,59.80666928505368,
Camponello,stimuli/subj_files/ST04_112822_cityB.csv,./stimuli/arnedillo.png,./stimuli/street_plate2.png,./stimuli/videos/camponello_part1.mp4,LEMEZ UTCA,stimuli/objects/099a.jpg,object,0,stimuli/objects/099a.jpg,stimuli/objects/064a.jpg,stimuli/objects/099a.jpg,stimuli/objects/099b.jpg,stimuli/objects/064b.jpg,dist1,target,lure,dist2,0,1,1,1,0,11,11,13,,,,,,,640.8556983228773,641.8808173760772,641.8808173760772,641.8808173760772,641.8808173760772,644.9003834091127,644.9003834091127,644.9003834091127,644.9003834091127,None,,,,,,,,,,ST04_112822,2022-11-29_16h02.57.952,Hippopolis_Updating,2022.2.2,59.80666928505368,
Camponello,stimuli/subj_files/ST04_112822_cityB.csv,./stimuli/arnedillo.png,./stimuli/street_plate2.png,./stimuli/videos/camponello_part1.mp4,HORDÓ UTCA,stimuli/scenes/120a.jpg,scene,0,stimuli/scenes/120a.jpg,stimuli/objects/118b.jpg,stimuli/objects/118a.jpg,stimuli/scenes/120b.jpg,stimuli/scenes/120a.jpg,dist2,dist1,lure,target,0,1,1,1,0,12,12,54,,,,,,,646.8697467911988,647.8901547193527,647.8901547193527,647.8901547193527,647.8901547193527,650.8978931810707,650.8978931810707,650.8978931810707,650.8978931810707,None,,,,,,,,,,ST04_112822,2022-11-29_16h02.57.952,Hippopolis_Updating,2022.2.2,59.80666928505368,
Camponello,stimuli/subj_files/ST04_112822_cityB.csv,./stimuli/arnedillo.png,./stimuli/street_plate2.png,./stimuli/videos/camponello_part1.mp4,TISZTÁS UTCA,stimuli/scenes/057a.jpg,scene,0,stimuli/scenes/057a.jpg,stimuli/scenes/057a.jpg,stimuli/objects/012b.jpg,stimuli/objects/012a.jpg,stimuli/scenes/057b.jpg,target,dist2,dist1,lure,0,1,1,1,0,13,13,78,,,,,,,652.8722438625991,653.8954057525843,653.8954057525843,653.8954057525843,653.8954057525843,656.8996845781803,656.8996845781803,656.8996845781803,656.8996845781803,None,,,,,,,,,,ST04_112822,2022-11-29_16h02.57.952,Hippopolis_Updating,2022.2.2,59.80666928505368,
Camponello,stimuli/subj_files/ST04_112822_cityB.csv,./stimuli/arnedillo.png,./stimuli/street_plate2.png,./stimuli/videos/camponello_part1.mp4,NARANCS UTCA,stimuli/objects/098a.jpg,object,2,stimuli/scenes/107a.jpg,stimuli/objects/069b.jpg,stimuli/objects/069a.jpg,stimuli/scenes/107a.jpg,stimuli/scenes/107b.jpg,dist2,dist1,target,lure,0,1,1,1,0,14,14,45,,,,,,,658.8837843760848,659.9179736208171,659.9179736208171,659.9179736208171,659.9179736208171,662.89813452214,662.89813452214,662.89813452214,662.89813452214,None,,,,,,,,,,ST04_112822,2022-11-29_16h02.57.952,Hippopolis_Updating,2022.2.2,59.80666928505368,
Camponello,stimuli/subj_files/ST04_112822_cityB.csv,./stimuli/arnedillo.png,./stimuli/street_plate2.png,./stimuli/videos/camponello_part1.mp4,VITORLA UTCA,stimuli/scenes/068a.jpg,scene,2,stimuli/objects/020a.jpg,stimuli/objects/020b.jpg,stimuli/scenes/007a.jpg,stimuli/objects/020a.jpg,stimuli/scenes/007b.jpg,lure,dist1,target,dist2,0,1,1,1,0,15,15,11,,,,,,,664.8894244767725,665.9105349685997,665.9105349685997,665.9105349685997,665.9105349685997,668.9223249107599,668.9223249107599,668.9223249107599,668.9223249107599,None,,,,,,,,,,ST04_112822,2022-11-29_16h02.57.952,Hippopolis_Updating,2022.2.2,59.80666928505368,
Camponello,stimuli/subj_files/ST04_112822_cityB.csv,./stimuli/arnedillo.png,./stimuli/street_plate2.png,./stimuli/videos/camponello_part1.mp4,AKÁC UTCA,stimuli/scenes/008a.jpg,scene,2,stimuli/objects/046a.jpg,stimuli/objects/046a.jpg,stimuli/objects/009a.jpg,stimuli/objects/046b.jpg,stimuli/objects/009b.jpg,target,dist1,lure,dist2,0,1,1,1,0,16,16,44,,,,,,,670.8940286152065,671.922625342384,671.922625342384,671.922625342384,671.922625342384,674.9220534022897,674.9220534022897,674.9220534022897,674.9220534022897,None,,,,,,,,,,ST04_112822,2022-11-29_16h02.57.952,Hippopolis_Updating,2022.2.2,59.80666928505368,
Camponello,stimuli/subj_files/ST04_112822_cityB.csv,./stimuli/arnedillo.png,./stimuli/street_plate2.png,./stimuli/videos/camponello_part1.mp4,POLIP UTCA,stimuli/objects/028a.jpg,object,0,stimuli/objects/028a.jpg,stimuli/objects/038a.jpg,stimuli/objects/028a.jpg,stimuli/objects/028b.jpg,stimuli/objects/038b.jpg,dist1,target,lure,dist2,0,1,1,1,0,17,17,49,,,,,,,676.9030611738563,677.9253811705858,677.9253811705858,677.9253811705858,677.9253811705858,680.9545977320522,680.9545977320522,680.9545977320522,680.9545977320522,None,,,,,,,,,,ST04_112822,2022-11-29_16h02.57.952,Hippopolis_Updating,2022.2.2,59.80666928505368,
Camponello,stimuli/subj_files/ST04_112822_cityB.csv,./stimuli/arnedillo.png,./stimuli/street_plate2.png,./stimuli/videos/camponello_part1.mp4,PADLÓ UTCA,stimuli/scenes/119a.jpg,scene,0,stimuli/scenes/119a.jpg,stimuli/scenes/119b.jpg,stimuli/scenes/115b.jpg,stimuli/scenes/115a.jpg,stimuli/scenes/119a.jpg,lure,dist2,dist1,target,0,1,1,1,0,18,18,43,,,,,,,682.9202371239662,683.9449891895056,683.9449891895056,683.9449891895056,683.9449891895056,686.9516780041158,686.9516780041158,686.9516780041158,686.9516780041158,None,,,,,,,,,,ST04_112822,2022-11-29_16h02.57.952,Hippopolis_Updating,2022.2.2,59.80666928505368,
Camponello,stimuli/subj_files/ST04_112822_cityB.csv,./stimuli/arnedillo.png,./stimuli/street_plate2.png,./stimuli/videos/camponello_part1.mp4,KOCSI UTCA,stimuli/scenes/061a.jpg,scene,0,stimuli/scenes/061a.jpg,stimuli/scenes/061b.jpg,stimuli/scenes/061a.jpg,stimuli/scenes/103a.jpg,stimuli/scenes/103b.jpg,lure,target,dist1,dist2,0,1,1,1,0,19,19,33,,,,,,,688.9350799042732,689.9674671776593,689.9674671776593,689.9674671776593,689.9674671776593,692.9493498113006,692.9493498113006,692.9493498113006,692.9493498113006,None,,,,,,,,,,ST04_112822,2022-11-29_16h02.57.952,Hippopolis_Updating,2022.2.2,59.80666928505368,
Camponello,stimuli/subj_files/ST04_112822_cityB.csv,./stimuli/arnedillo.png,./stimuli/street_plate2.png,./stimuli/videos/camponello_part1.mp4,KECSKE UTCA,stimuli/objects/118a.jpg,object,0,stimuli/objects/118a.jpg,stimuli/objects/032a.jpg,stimuli/objects/032b.jpg,stimuli/objects/118b.jpg,stimuli/objects/118a.jpg,dist1,dist2,lure,target,0,1,1,1,0,20,20,40,,,,,,,694.9357519894838,695.9604356344789,695.9604356344789,695.9604356344789,695.9604356344789,698.9796048235148,698.9796048235148,698.9796048235148,698.9796048235148,None,,,,,,,,,,ST04_112822,2022-11-29_16h02.57.952,Hippopolis_Updating,2022.2.2,59.80666928505368,
Camponello,stimuli/subj_files/ST04_112822_cityB.csv,./stimuli/arnedillo.png,./stimuli/street_plate2.png,./stimuli/videos/camponello_part1.mp4,TERÍTŐ UTCA,stimuli/objects/006a.jpg,object,0,stimuli/objects/006a.jpg,stimuli/objects/006b.jpg,stimuli/objects/006a.jpg,stimuli/scenes/035b.jpg,stimuli/scenes/035a.jpg,lure,target,dist2,dist1,0,1,1,1,0,21,21,12,,,,,,,700.943774709478,701.9727278500795,701.9727278500795,701.9727278500795,701.9727278500795,704.9796076230705,704.9796076230705,704.9796076230705,704.9796076230705,None,,,,,,,,,,ST04_112822,2022-11-29_16h02.57.952,Hippopolis_Updating,2022.2.2,59.80666928505368,
Camponello,stimuli/subj_files/ST04_112822_cityB.csv,./stimuli/arnedillo.png,./stimuli/street_plate2.png,./stimuli/videos/camponello_part1.mp4,ÜVEG UTCA,stimuli/scenes/072a.jpg,scene,1,stimuli/scenes/102a.jpg,stimuli/scenes/042a.jpg,stimuli/scenes/102b.jpg,stimuli/scenes/042b.jpg,stimuli/scenes/102a.jpg,dist1,lure,dist2,target,0,1,1,1,0,22,22,15,,,,,,,706.9524984396994,707.9739050101489,707.9739050101489,707.9739050101489,707.9739050101489,710.9773235917091,710.9773235917091,710.9773235917091,710.9773235917091,None,,,,,,,,,,ST04_112822,2022-11-29_16h02.57.952,Hippopolis_Updating,2022.2.2,59.80666928505368,
Camponello,stimuli/subj_files/ST04_112822_cityB.csv,./stimuli/arnedillo.png,./stimuli/street_plate2.png,./stimuli/videos/camponello_part1.mp4,VASALÓ UTCA,stimuli/objects/004a.jpg,object,1,stimuli/objects/100a.jpg,stimuli/objects/108a.jpg,stimuli/objects/100b.jpg,stimuli/objects/108b.jpg,stimuli/objects/100a.jpg,dist1,lure,dist2,target,0,1,1,1,0,23,23,4,,,,,,,712.9604577142745,713.9888025261462,713.9888025261462,713.9888025261462,713.9888025261462,717.0038182269782,717.0038182269782,717.0038182269782,717.0038182269782,None,,,,,,,,,,ST04_112822,2022-11-29_16h02.57.952,Hippopolis_Updating,2022.2.2,59.80666928505368,
Camponello,stimuli/subj_files/ST04_112822_cityB.csv,./stimuli/arnedillo.png,./stimuli/street_plate2.png,./stimuli/videos/camponello_part1.mp4,SZAPPAN UTCA,stimuli/scenes/096a.jpg,scene,2,stimuli/objects/003a.jpg,stimuli/scenes/060b.jpg,stimuli/scenes/060a.jpg,stimuli/objects/003a.jpg,stimuli/objects/003b.jpg,dist2,dist1,target,lure,0,1,1,1,0,24,24,50,,,,,,,718.9686518013477,720.0002214368433,720.0002214368433,720.0002214368433,720.0002214368433,723.0000566039234,723.0000566039234,723.0000566039234,723.0000566039234,None,,,,,,,,,,ST04_112822,2022-11-29_16h02.57.952,Hippopolis_Updating,2022.2.2,59.80666928505368,
Camponello,stimuli/subj_files/ST04_112822_cityB.csv,./stimuli/arnedillo.png,./stimuli/street_plate2.png,./stimuli/videos/camponello_part1.mp4,BANÁN UTCA,stimuli/objects/071a.jpg,object,0,stimuli/objects/071a.jpg,stimuli/objects/071a.jpg,stimuli/objects/071b.jpg,stimuli/objects/087b.jpg,stimuli/objects/087a.jpg,target,lure,dist2,dist1,0,1,1,1,0,25,25,3,,,,,,,724.9701713770628,725.9902735874057,725.9902735874057,725.9902735874057,725.9902735874057,728.9881979301572,728.9881979301572,728.9881979301572,728.9881979301572,None,,,,,,,,,,ST04_112822,2022-11-29_16h02.57.952,Hippopolis_Updating,2022.2.2,59.80666928505368,
Camponello,stimuli/subj_files/ST04_112822_cityB.csv,./stimuli/arnedillo.png,./stimuli/street_plate2.png,./stimuli/videos/camponello_part1.mp4,HAJÓ UTCA,stimuli/objects/087a.jpg,object,0,stimuli/objects/087a.jpg,stimuli/objects/071a.jpg,stimuli/objects/071b.jpg,stimuli/objects/087a.jpg,stimuli/objects/087b.jpg,dist1,dist2,target,lure,0,1,1,1,0,26,26,73,,,,,,,730.9847625531256,732.0050995722413,732.0050995722413,732.0050995722413,732.0050995722413,735.0269748289138,735.0269748289138,735.0269748289138,735.0269748289138,None,,,,,,,,,,ST04_112822,2022-11-29_16h02.57.952,Hippopolis_Updating,2022.2.2,59.80666928505368,
Camponello,stimuli/subj_files/ST04_112822_cityB.csv,./stimuli/arnedillo.png,./stimuli/street_plate2.png,./stimuli/videos/camponello_part1.mp4,MANDARIN UTCA,stimuli/objects/027a.jpg,object,0,stimuli/objects/027a.jpg,stimuli/objects/037a.jpg,stimuli/objects/027b.jpg,stimuli/objects/037b.jpg,stimuli/objects/027a.jpg,dist1,lure,dist2,target,0,1,1,1,0,27,27,22,,,,,,,736.9854442793876,738.0074109714478,738.0074109714478,738.0074109714478,738.0074109714478,741.0185456220061,741.0185456220061,741.0185456220061,741.0185456220061,None,,,,,,,,,,ST04_112822,2022-11-29_16h02.57.952,Hippopolis_Updating,2022.2.2,59.80666928505368,
Camponello,stimuli/subj_files/ST04_112822_cityB.csv,./stimuli/arnedillo.png,./stimuli/street_plate2.png,./stimuli/videos/camponello_part1.mp4,FÜZET UTCA,stimuli/objects/066a.jpg,object,2,stimuli/scenes/033a.jpg,stimuli/scenes/033b.jpg,stimuli/scenes/033a.jpg,stimuli/scenes/005a.jpg,stimuli/scenes/005b.jpg,lure,target,dist1,dist2,0,1,1,1,0,28,28,41,,,,,,,742.995322464034,744.0236706975847,744.0236706975847,744.0236706975847,744.0236706975847,747.0252779778093,747.0252779778093,747.0252779778093,747.0252779778093,None,,,,,,,,,,ST04_112822,2022-11-29_16h02.57.952,Hippopolis_Updating,2022.2.2,59.80666928505368,
Camponello,stimuli/subj_files/ST04_112822_cityB.csv,./stimuli/arnedillo.png,./stimuli/street_plate2.png,./stimuli/videos/camponello_part1.mp4,FÓKA UTCA,stimuli/scenes/014a.jpg,scene,0,stimuli/scenes/014a.jpg,stimuli/scenes/014a.jpg,stimuli/scenes/014b.jpg,stimuli/objects/063a.jpg,stimuli/objects/063b.jpg,target,lure,dist1,dist2,0,1,1,1,0,29,29,64,,,,,,,748.9990396127105,750.021752409637,750.021752409637,750.021752409637,750.021752409637,753.0226474869996,753.0226474869996,753.0226474869996,753.0226474869996,None,,,,,,,,,,ST04_112822,2022-11-29_16h02.57.952,Hippopolis_Updating,2022.2.2,59.80666928505368,
Camponello,stimuli/subj_files/ST04_112822_cityB.csv,./stimuli/arnedillo.png,./stimuli/street_plate2.png,./stimuli/videos/camponello_part1.mp4,KÖMÉNYMAG UTCA,stimuli/scenes/105a.jpg,scene,0,stimuli/scenes/105a.jpg,stimuli/scenes/038a.jpg,stimuli/scenes/038b.jpg,stimuli/scenes/105b.jpg,stimuli/scenes/105a.jpg,dist1,dist2,lure,target,0,1,1,1,0,30,30,17,,,,,,,755.0092368908226,756.0380525663495,756.0380525663495,756.0380525663495,756.0380525663495,759.0362244695425,759.0362244695425,759.0362244695425,759.0362244695425,None,,,,,,,,,,ST04_112822,2022-11-29_16h02.57.952,Hippopolis_Updating,2022.2.2,59.80666928505368,
Camponello,stimuli/subj_files/ST04_112822_cityB.csv,./stimuli/arnedillo.png,./stimuli/street_plate2.png,./stimuli/videos/camponello_part1.mp4,KERÉK UTCA,stimuli/objects/068a.jpg,object,0,stimuli/objects/068a.jpg,stimuli/objects/068a.jpg,stimuli/objects/040b.jpg,stimuli/objects/040a.jpg,stimuli/objects/068b.jpg,target,dist2,dist1,lure,0,1,1,1,0,31,31,72,,,,,,,761.0226359795779,762.0545060485601,762.0545060485601,762.0545060485601,762.0545060485601,765.0605775155127,765.0605775155127,765.0605775155127,765.0605775155127,None,,,,,,,,,,ST04_112822,2022-11-29_16h02.57.952,Hippopolis_Updating,2022.2.2,59.80666928505368,
Camponello,stimuli/subj_files/ST04_112822_cityB.csv,./stimuli/arnedillo.png,./stimuli/street_plate2.png,./stimuli/videos/camponello_part1.mp4,KIRAKÓ UTCA,stimuli/scenes/004a.jpg,scene,0,stimuli/scenes/004a.jpg,stimuli/objects/051a.jpg,stimuli/objects/051b.jpg,stimuli/scenes/004b.jpg,stimuli/scenes/004a.jpg,dist1,dist2,lure,target,0,1,1,1,0,32,32,20,,,,,,,767.0346716158092,768.0608359612525,768.0608359612525,768.0608359612525,768.0608359612525,771.0564143825322,771.0564143825322,771.0564143825322,771.0564143825322,None,,,,,,,,,,ST04_112822,2022-11-29_16h02.57.952,Hippopolis_Updating,2022.2.2,59.80666928505368,
Camponello,stimuli/subj_files/ST04_112822_cityB.csv,./stimuli/arnedillo.png,./stimuli/street_plate2.png,./stimuli/videos/camponello_part1.mp4,SZILVA UTCA,stimuli/scenes/009a.jpg,scene,0,stimuli/scenes/009a.jpg,stimuli/scenes/009a.jpg,stimuli/objects/096b.jpg,stimuli/objects/096a.jpg,stimuli/scenes/009b.jpg,target,dist2,dist1,lure,0,1,1,1,0,33,33,28,,,,,,,773.0453335363418,774.0752053894103,774.0752053894103,774.0752053894103,774.0752053894103,777.0677188429981,777.0677188429981,777.0677188429981,777.0677188429981,None,,,,,,,,,,ST04_112822,2022-11-29_16h02.57.952,Hippopolis_Updating,2022.2.2,59.80666928505368,
Camponello,stimuli/subj_files/ST04_112822_cityB.csv,./stimuli/arnedillo.png,./stimuli/street_plate2.png,./stimuli/videos/camponello_part1.mp4,SÜTŐ UTCA,stimuli/objects/070a.jpg,object,1,stimuli/objects/011a.jpg,stimuli/objects/011a.jpg,stimuli/scenes/001a.jpg,stimuli/scenes/001b.jpg,stimuli/objects/011b.jpg,target,dist1,dist2,lure,0,1,1,1,0,34,34,39,,,,,,,779.0593499727547,780.0864778161049,780.0864778161049,780.0864778161049,780.0864778161049,783.084443833679,783.084443833679,783.084443833679,783.084443833679,None,,,,,,,,,,ST04_112822,2022-11-29_16h02.57.952,Hippopolis_Updating,2022.2.2,59.80666928505368,
Camponello,stimuli/subj_files/ST04_112822_cityB.csv,./stimuli/arnedillo.png,./stimuli/street_plate2.png,./stimuli/videos/camponello_part1.mp4,PÁLMAFA UTCA,stimuli/scenes/043a.jpg,scene,1,stimuli/scenes/001a.jpg,stimuli/scenes/001a.jpg,stimuli/objects/001b.jpg,stimuli/objects/001a.jpg,stimuli/scenes/001b.jpg,target,dist2,dist1,lure,0,1,1,1,0,35,35,68,,,,,,,785.0764438174665,786.104942265898,786.104942265898,786.104942265898,786.104942265898,789.0947863515466,789.0947863515466,789.0947863515466,789.0947863515466,None,,,,,,,,,,ST04_112822,2022-11-29_16h02.57.952,Hippopolis_Updating,2022.2.2,59.80666928505368,
Camponello,stimuli/subj_files/ST04_112822_cityB.csv,./stimuli/arnedillo.png,./stimuli/street_plate2.png,./stimuli/videos/camponello_part1.mp4,PAPAGÁJ UTCA,stimuli/scenes/035a.jpg,scene,0,stimuli/scenes/035a.jpg,stimuli/scenes/035b.jpg,stimuli/scenes/035a.jpg,stimuli/scenes/004b.jpg,stimuli/scenes/004a.jpg,lure,target,dist2,dist1,0,1,1,1,0,36,36,10,,,,,,,791.0843943841755,792.1051098983735,792.1051098983735,792.1051098983735,792.1051098983735,795.1150440648198,795.1150440648198,795.1150440648198,795.1150440648198,None,,,,,,,,,,ST04_112822,2022-11-29_16h02.57.952,Hippopolis_Updating,2022.2.2,59.80666928505368,
Camponello,stimuli/subj_files/ST04_112822_cityB.csv,./stimuli/arnedillo.png,./stimuli/street_plate2.png,./stimuli/videos/camponello_part1.mp4,SZOMSZÉD UTCA,stimuli/objects/113a.jpg,object,0,stimuli/objects/113a.jpg,stimuli/objects/113a.jpg,stimuli/scenes/049b.jpg,stimuli/scenes/049a.jpg,stimuli/objects/113b.jpg,target,dist2,dist1,lure,0,1,1,1,0,37,37,0,,,,,,,797.0968533009291,798.1218411084265,798.1218411084265,798.1218411084265,798.1218411084265,801.1344956476241,801.1344956476241,801.1344956476241,801.1344956476241,None,,,,,,,,,,ST04_112822,2022-11-29_16h02.57.952,Hippopolis_Updating,2022.2.2,59.80666928505368,
Camponello,stimuli/subj_files/ST04_112822_cityB.csv,./stimuli/arnedillo.png,./stimuli/street_plate2.png,./stimuli/videos/camponello_part1.mp4,TULIPÁN UTCA,stimuli/scenes/078a.jpg,scene,0,stimuli/scenes/078a.jpg,stimuli/scenes/002b.jpg,stimuli/scenes/002a.jpg,stimuli/scenes/078a.jpg,stimuli/scenes/078b.jpg,dist2,dist1,target,lure,0,1,1,1,0,38,38,61,,,,,,,803.1043236739933,804.1352672539651,804.1352672539651,804.1352672539651,804.1352672539651,807.1335819102824,807.1335819102824,807.1335819102824,807.1335819102824,None,,,,,,,,,,ST04_112822,2022-11-29_16h02.57.952,Hippopolis_Updating,2022.2.2,59.80666928505368,
Camponello,stimuli/subj_files/ST04_112822_cityB.csv,./stimuli/arnedillo.png,./stimuli/street_plate2.png,./stimuli/videos/camponello_part1.mp4,HARCSA UTCA,stimuli/scenes/076a.jpg,scene,0,stimuli/scenes/076a.jpg,stimuli/scenes/076b.jpg,stimuli/scenes/061a.jpg,stimuli/scenes/061b.jpg,stimuli/scenes/076a.jpg,lure,dist1,dist2,target,0,1,1,1,0,39,39,76,,,,,,,809.1207998599857,810.1445685233921,810.1445685233921,810.1445685233921,810.1445685233921,813.1510545611382,813.1510545611382,813.1510545611382,813.1510545611382,None,,,,,,,,,,ST04_112822,2022-11-29_16h02.57.952,Hippopolis_Updating,2022.2.2,59.80666928505368,
Camponello,stimuli/subj_files/ST04_112822_cityB.csv,./stimuli/arnedillo.png,./stimuli/street_plate2.png,./stimuli/videos/camponello_part1.mp4,BÖGRE UTCA,stimuli/objects/064a.jpg,object,0,stimuli/objects/064a.jpg,stimuli/scenes/083a.jpg,stimuli/objects/064b.jpg,stimuli/objects/064a.jpg,stimuli/scenes/083b.jpg,dist1,lure,target,dist2,0,1,1,1,0,40,40,25,,,,,,,815.1284279134125,816.1556129828095,816.1556129828095,816.1556129828095,816.1556129828095,819.1465878877789,819.1465878877789,819.1465878877789,819.1465878877789,None,,,,,,,,,,ST04_112822,2022-11-29_16h02.57.952,Hippopolis_Updating,2022.2.2,59.80666928505368,
Camponello,stimuli/subj_files/ST04_112822_cityB.csv,./stimuli/arnedillo.png,./stimuli/street_plate2.png,./stimuli/videos/camponello_part1.mp4,TÁSKA UTCA,stimuli/scenes/091a.jpg,scene,0,stimuli/scenes/091a.jpg,stimuli/scenes/059a.jpg,stimuli/scenes/059b.jpg,stimuli/scenes/091b.jpg,stimuli/scenes/091a.jpg,dist1,dist2,lure,target,0,1,1,1,0,41,41,58,,,,,,,821.1374722905457,822.167071390897,822.167071390897,822.167071390897,822.167071390897,825.1697376482189,825.1697376482189,825.1697376482189,825.1697376482189,None,,,,,,,,,,ST04_112822,2022-11-29_16h02.57.952,Hippopolis_Updating,2022.2.2,59.80666928505368,
Camponello,stimuli/subj_files/ST04_112822_cityB.csv,./stimuli/arnedillo.png,./stimuli/street_plate2.png,./stimuli/videos/camponello_part1.mp4,ZONGORA UTCA,stimuli/scenes/017a.jpg,scene,0,stimuli/scenes/017a.jpg,stimuli/scenes/017b.jpg,stimuli/scenes/017a.jpg,stimuli/objects/035b.jpg,stimuli/objects/035a.jpg,lure,target,dist2,dist1,0,1,1,1,0,42,42,5,,,,,,,827.1526354067028,828.1814557462931,828.1814557462931,828.1814557462931,828.1814557462931,831.1882614996284,831.1882614996284,831.1882614996284,831.1882614996284,None,,,,,,,,,,ST04_112822,2022-11-29_16h02.57.952,Hippopolis_Updating,2022.2.2,59.80666928505368,
Camponello,stimuli/subj_files/ST04_112822_cityB.csv,./stimuli/arnedillo.png,./stimuli/street_plate2.png,./stimuli/videos/camponello_part1.mp4,BONBON UTCA,stimuli/objects/112a.jpg,object,0,stimuli/objects/112a.jpg,stimuli/scenes/009a.jpg,stimuli/objects/112a.jpg,stimuli/objects/112b.jpg,stimuli/scenes/009b.jpg,dist1,target,lure,dist2,0,1,1,1,0,43,43,19,,,,,,,833.1670200750232,834.1873990800232,834.1873990800232,834.1873990800232,834.1873990800232,837.187093982473,837.187093982473,837.187093982473,837.187093982473,None,,,,,,,,,,ST04_112822,2022-11-29_16h02.57.952,Hippopolis_Updating,2022.2.2,59.80666928505368,
Camponello,stimuli/subj_files/ST04_112822_cityB.csv,./stimuli/arnedillo.png,./stimuli/street_plate2.png,./stimuli/videos/camponello_part1.mp4,TOBOZ UTCA,stimuli/objects/032a.jpg,object,0,stimuli/objects/032a.jpg,stimuli/objects/032b.jpg,stimuli/objects/113a.jpg,stimuli/objects/113b.jpg,stimuli/objects/032a.jpg,lure,dist1,dist2,target,0,1,1,1,0,44,44,70,,,,,,,839.1694160681218,840.187699822709,840.187699822709,840.187699822709,840.187699822709,843.2008681446314,843.2008681446314,843.2008681446314,843.2008681446314,space,,845.1852316763252,845.1852316763252,10.612918192520738,,,,,,ST04_112822,2022-11-29_16h02.57.952,Hippopolis_Updating,2022.2.2,59.80666928505368,
Camponello,stimuli/subj_files/ST04_112822_cityB.csv,./stimuli/arnedillo.png,./stimuli/street_plate2.png,./stimuli/videos/camponello_part1.mp4,FÉSŰ UTCA,stimuli/objects/063a.jpg,object,0,stimuli/objects/063a.jpg,stimuli/objects/115a.jpg,stimuli/objects/063b.jpg,stimuli/objects/063a.jpg,stimuli/objects/115b.jpg,dist1,lure,target,dist2,0,1,1,1,0,45,45,51,,,,,,,855.8162953667343,856.8432282097638,856.8432282097638,856.8432282097638,856.8432282097638,859.8508643489331,859.8508643489331,859.8508643489331,859.8508643489331,None,,,,,,,,,,ST04_112822,2022-11-29_16h02.57.952,Hippopolis_Updating,2022.2.2,59.80666928505368,
Camponello,stimuli/subj_files/ST04_112822_cityB.csv,./stimuli/arnedillo.png,./stimuli/street_plate2.png,./stimuli/videos/camponello_part1.mp4,GYŰRŰ UTCA,stimuli/scenes/095a.jpg,scene,2,stimuli/objects/117a.jpg,stimuli/objects/020b.jpg,stimuli/objects/117a.jpg,stimuli/objects/117b.jpg,stimuli/objects/020a.jpg,dist2,target,lure,dist1,0,1,1,1,0,46,46,35,,,,,,,861.8201132826507,862.840045992285,862.840045992285,862.840045992285,862.840045992285,865.8536752257496,865.8536752257496,865.8536752257496,865.8536752257496,None,862.840045992285,,,,,,,,,ST04_112822,2022-11-29_16h02.57.952,Hippopolis_Updating,2022.2.2,59.80666928505368,
Camponello,stimuli/subj_files/ST04_112822_cityB.csv,./stimuli/arnedillo.png,./stimuli/street_plate2.png,./stimuli/videos/camponello_part1.mp4,HEGEDŰ UTCA,stimuli/scenes/056a.jpg,scene,1,stimuli/scenes/064a.jpg,stimuli/scenes/064a.jpg,stimuli/scenes/064b.jpg,stimuli/scenes/027a.jpg,stimuli/scenes/027b.jpg,target,lure,dist1,dist2,0,1,1,1,0,47,47,62,,,,,,,867.8362862356007,868.8592344652861,868.8592344652861,868.8592344652861,868.8592344652861,871.8650683220476,871.8650683220476,871.8650683220476,871.8650683220476,None,,,,,,,,,,ST04_112822,2022-11-29_16h02.57.952,Hippopolis_Updating,2022.2.2,59.80666928505368,
Camponello,stimuli/subj_files/ST04_112822_cityB.csv,./stimuli/arnedillo.png,./stimuli/street_plate2.png,./stimuli/videos/camponello_part1.mp4,FÉNYKÉP UTCA,stimuli/objects/012a.jpg,object,0,stimuli/objects/012a.jpg,stimuli/objects/099b.jpg,stimuli/objects/012a.jpg,stimuli/objects/099a.jpg,stimuli/objects/012b.jpg,dist2,target,dist1,lure,0,1,1,1,0,48,48,21,,,,,,,873.8445835765451,874.8703392595053,874.8703392595053,874.8703392595053,874.8703392595053,877.8708937838674,877.8708937838674,877.8708937838674,877.8708937838674,None,,,,,,,,,,ST04_112822,2022-11-29_16h02.57.952,Hippopolis_Updating,2022.2.2,59.80666928505368,
Camponello,stimuli/subj_files/ST04_112822_cityB.csv,./stimuli/arnedillo.png,./stimuli/street_plate2.png,./stimuli/videos/camponello_part1.mp4,MUSTÁR UTCA,stimuli/scenes/094a.jpg,scene,1,stimuli/scenes/047a.jpg,stimuli/scenes/102b.jpg,stimuli/scenes/102a.jpg,stimuli/scenes/047a.jpg,stimuli/scenes/047b.jpg,dist2,dist1,target,lure,0,1,1,1,0,49,49,27,,,,,,,879.8610106222332,880.8866761140525,880.8866761140525,880.8866761140525,880.8866761140525,883.879186457023,883.879186457023,883.879186457023,883.879186457023,None,,,,,,,,,,ST04_112822,2022-11-29_16h02.57.952,Hippopolis_Updating,2022.2.2,59.80666928505368,
Camponello,stimuli/subj_files/ST04_112822_cityB.csv,./stimuli/arnedillo.png,./stimuli/street_plate2.png,./stimuli/videos/camponello_part1.mp4,MAJOM UTCA,stimuli/objects/040a.jpg,object,0,stimuli/objects/040a.jpg,stimuli/objects/068a.jpg,stimuli/objects/040a.jpg,stimuli/objects/068b.jpg,stimuli/objects/040b.jpg,dist1,target,dist2,lure,0,1,1,1,0,50,50,26,,,,,,,885.8718936685473,886.8995918985456,886.8995918985456,886.8995918985456,886.8995918985456,889.8984365090728,889.8984365090728,889.8984365090728,889.8984365090728,None,,,,,,,,,,ST04_112822,2022-11-29_16h02.57.952,Hippopolis_Updating,2022.2.2,59.80666928505368,
Camponello,stimuli/subj_files/ST04_112822_cityB.csv,./stimuli/arnedillo.png,./stimuli/street_plate2.png,./stimuli/videos/camponello_part1.mp4,PÁFRÁNY UTCA,stimuli/scenes/083a.jpg,scene,0,stimuli/scenes/083a.jpg,stimuli/scenes/019b.jpg,stimuli/scenes/083a.jpg,stimuli/scenes/083b.jpg,stimuli/scenes/019a.jpg,dist2,target,lure,dist1,0,1,1,1,0,51,51,29,,,,,,,891.8815709445626,892.9069571513683,892.9069571513683,892.9069571513683,892.9069571513683,895.9008835069835,895.9008835069835,895.9008835069835,895.9008835069835,None,,,,,,,,,,ST04_112822,2022-11-29_16h02.57.952,Hippopolis_Updating,2022.2.2,59.80666928505368,
Camponello,stimuli/subj_files/ST04_112822_cityB.csv,./stimuli/arnedillo.png,./stimuli/street_plate2.png,./stimuli/videos/camponello_part1.mp4,PALACK UTCA,stimuli/objects/096a.jpg,object,0,stimuli/objects/096a.jpg,stimuli/scenes/078b.jpg,stimuli/scenes/078a.jpg,stimuli/objects/096b.jpg,stimuli/objects/096a.jpg,dist2,dist1,lure,target,0,1,1,1,0,52,52,59,,,,,,,897.8844499308616,898.9164220094681,898.9164220094681,898.9164220094681,898.9164220094681,901.9189007300884,901.9189007300884,901.9189007300884,901.9189007300884,None,,,,,,,,,,ST04_112822,2022-11-29_16h02.57.952,Hippopolis_Updating,2022.2.2,59.80666928505368,
Camponello,stimuli/subj_files/ST04_112822_cityB.csv,./stimuli/arnedillo.png,./stimuli/street_plate2.png,./stimuli/videos/camponello_part1.mp4,KAKAÓ UTCA,stimuli/objects/038a.jpg,object,0,stimuli/objects/038a.jpg,stimuli/objects/038b.jpg,stimuli/objects/002b.jpg,stimuli/objects/002a.jpg,stimuli/objects/038a.jpg,lure,dist2,dist1,target,0,1,1,1,0,53,53,9,,,,,,,903.8917085081339,904.9154106155038,904.9154106155038,904.9154106155038,904.9154106155038,907.9398392345756,907.9398392345756,907.9398392345756,907.9398392345756,None,,,,,,,,,,ST04_112822,2022-11-29_16h02.57.952,Hippopolis_Updating,2022.2.2,59.80666928505368,
Camponello,stimuli/subj_files/ST04_112822_cityB.csv,./stimuli/arnedillo.png,./stimuli/street_plate2.png,./stimuli/videos/camponello_part1.mp4,VÖDÖR UTCA,stimuli/objects/030a.jpg,object,1,stimuli/objects/023a.jpg,stimuli/objects/100a.jpg,stimuli/objects/023a.jpg,stimuli/objects/100b.jpg,stimuli/objects/023b.jpg,dist1,target,dist2,lure,0,1,1,1,0,54,54,14,,,,,,,909.8974381797016,910.9214233029634,910.9214233029634,910.9214233029634,910.9214233029634,913.9200259502977,913.9200259502977,913.9200259502977,913.9200259502977,None,,,,,,,,,,ST04_112822,2022-11-29_16h02.57.952,Hippopolis_Updating,2022.2.2,59.80666928505368,
Camponello,stimuli/subj_files/ST04_112822_cityB.csv,./stimuli/arnedillo.png,./stimuli/street_plate2.png,./stimuli/videos/camponello_part1.mp4,SAJTÓ UTCA,stimuli/scenes/103a.jpg,scene,0,stimuli/scenes/103a.jpg,stimuli/scenes/105b.jpg,stimuli/scenes/103a.jpg,stimuli/scenes/103b.jpg,stimuli/scenes/105a.jpg,dist2,target,lure,dist1,0,1,1,1,0,55,55,75,,,,,,,915.9111426752061,916.9451689515263,916.9451689515263,916.9451689515263,916.9451689515263,919.932137472555,919.932137472555,919.932137472555,919.932137472555,None,,,,,,,,,,ST04_112822,2022-11-29_16h02.57.952,Hippopolis_Updating,2022.2.2,59.80666928505368,
Camponello,stimuli/subj_files/ST04_112822_cityB.csv,./stimuli/arnedillo.png,./stimuli/street_plate2.png,./stimuli/videos/camponello_part1.mp4,SZŐLŐ UTCA,stimuli/objects/060a.jpg,object,1,stimuli/objects/108a.jpg,stimuli/objects/108a.jpg,stimuli/objects/108b.jpg,stimuli/scenes/064a.jpg,stimuli/scenes/064b.jpg,target,lure,dist1,dist2,0,1,1,1,0,56,56,56,,,,,,,921.9118881579489,922.9414035975933,922.9414035975933,922.9414035975933,922.9414035975933,925.9439849499613,925.9439849499613,925.9439849499613,925.9439849499613,None,,,,,,,,,,ST04_112822,2022-11-29_16h02.57.952,Hippopolis_Updating,2022.2.2,59.80666928505368,
Camponello,stimuli/subj_files/ST04_112822_cityB.csv,./stimuli/arnedillo.png,./stimuli/street_plate2.png,./stimuli/videos/camponello_part1.mp4,TORONY UTCA,stimuli/scenes/022a.jpg,scene,0,stimuli/scenes/022a.jpg,stimuli/objects/073a.jpg,stimuli/scenes/022a.jpg,stimuli/objects/073b.jpg,stimuli/scenes/022b.jpg,dist1,target,dist2,lure,0,1,1,1,0,57,57,31,,,,,,,927.9163287077099,928.9445562697947,928.9445562697947,928.9445562697947,928.9445562697947,931.9448772277683,931.9448772277683,931.9448772277683,931.9448772277683,None,,,,,,,,,,ST04_112822,2022-11-29_16h02.57.952,Hippopolis_Updating,2022.2.2,59.80666928505368,
Camponello,stimuli/subj_files/ST04_112822_cityB.csv,./stimuli/arnedillo.png,./stimuli/street_plate2.png,./stimuli/videos/camponello_part1.mp4,PÉKSÉG UTCA,stimuli/objects/035a.jpg,object,0,stimuli/objects/035a.jpg,stimuli/objects/027b.jpg,stimuli/objects/027a.jpg,stimuli/objects/035b.jpg,stimuli/objects/035a.jpg,dist2,dist1,lure,target,0,1,1,1,0,58,58,36,,,,,,,933.9289110936224,934.9559910409153,934.9559910409153,934.9559910409153,934.9559910409153,937.9515619985759,937.9515619985759,937.9515619985759,937.9515619985759,None,,,,,,,,,,ST04_112822,2022-11-29_16h02.57.952,Hippopolis_Updating,2022.2.2,59.80666928505368,
Camponello,stimuli/subj_files/ST04_112822_cityB.csv,./stimuli/arnedillo.png,./stimuli/street_plate2.png,./stimuli/videos/camponello_part1.mp4,TERASZ UTCA,stimuli/objects/067a.jpg,object,0,stimuli/objects/067a.jpg,stimuli/scenes/057a.jpg,stimuli/scenes/057b.jpg,stimuli/objects/067a.jpg,stimuli/objects/067b.jpg,dist1,dist2,target,lure,0,1,1,1,0,59,59,30,,,,,,,939.9324357286096,940.9562075026333,940.9562075026333,940.9562075026333,940.9562075026333,943.9511754177511,943.9511754177511,943.9511754177511,943.9511754177511,None,,,,,,,,,,ST04_112822,2022-11-29_16h02.57.952,Hippopolis_Updating,2022.2.2,59.80666928505368,
Camponello,stimuli/subj_files/ST04_112822_cityB.csv,./stimuli/arnedillo.png,./stimuli/street_plate2.png,./stimuli/videos/camponello_part1.mp4,AJÁNDÉK UTCA,stimuli/scenes/020a.jpg,scene,2,stimuli/objects/069a.jpg,stimuli/objects/003b.jpg,stimuli/objects/069b.jpg,stimuli/objects/003a.jpg,stimuli/objects/069a.jpg,dist2,lure,dist1,target,0,1,1,1,0,60,60,42,,,,,,,945.9400448109955,946.9687370155007,946.9687370155007,946.9687370155007,946.9687370155007,949.9759797323495,949.9759797323495,949.9759797323495,949.9759797323495,None,,,,,,,,,,ST04_112822,2022-11-29_16h02.57.952,Hippopolis_Updating,2022.2.2,59.80666928505368,
Camponello,stimuli/subj_files/ST04_112822_cityB.csv,./stimuli/arnedillo.png,./stimuli/street_plate2.png,./stimuli/videos/camponello_part1.mp4,TÁNYÉR UTCA,stimuli/objects/010a.jpg,object,1,stimuli/objects/001a.jpg,stimuli/objects/023b.jpg,stimuli/objects/001a.jpg,stimuli/objects/023a.jpg,stimuli/objects/001b.jpg,dist2,target,dist1,lure,0,1,1,1,0,61,61,53,,,,,,,951.9491224642843,952.9710269570351,952.9710269570351,952.9710269570351,952.9710269570351,955.985095018521,955.985095018521,955.985095018521,955.985095018521,None,,,,,,,,,,ST04_112822,2022-11-29_16h02.57.952,Hippopolis_Updating,2022.2.2,59.80666928505368,
Camponello,stimuli/subj_files/ST04_112822_cityB.csv,./stimuli/arnedillo.png,./stimuli/street_plate2.png,./stimuli/videos/camponello_part1.mp4,TOJÁS UTCA,stimuli/scenes/019a.jpg,scene,0,stimuli/scenes/019a.jpg,stimuli/objects/112b.jpg,stimuli/objects/112a.jpg,stimuli/scenes/019b.jpg,stimuli/scenes/019a.jpg,dist2,dist1,lure,target,0,1,1,1,0,62,62,69,,,,,,,957.9660346824676,958.9923116117716,958.9923116117716,958.9923116117716,958.9923116117716,962.0115445572883,962.0115445572883,962.0115445572883,962.0115445572883,None,,,,,,,,,,ST04_112822,2022-11-29_16h02.57.952,Hippopolis_Updating,2022.2.2,59.80666928505368,
Camponello,stimuli/subj_files/ST04_112822_cityB.csv,./stimuli/arnedillo.png,./stimuli/street_plate2.png,./stimuli/videos/camponello_part1.mp4,CSILLAG UTCA,stimuli/objects/048a.jpg,object,0,stimuli/objects/048a.jpg,stimuli/scenes/066b.jpg,stimuli/objects/048b.jpg,stimuli/objects/048a.jpg,stimuli/scenes/066a.jpg,dist2,lure,target,dist1,0,1,1,1,0,63,63,52,,,,,,,963.9794144872576,965.0025216396898,965.0025216396898,965.0025216396898,965.0025216396898,967.9987034145743,967.9987034145743,967.9987034145743,967.9987034145743,None,,,,,,,,,,ST04_112822,2022-11-29_16h02.57.952,Hippopolis_Updating,2022.2.2,59.80666928505368,
Camponello,stimuli/subj_files/ST04_112822_cityB.csv,./stimuli/arnedillo.png,./stimuli/street_plate2.png,./stimuli/videos/camponello_part1.mp4,RÁDIÓ UTCA,stimuli/scenes/092a.jpg,scene,0,stimuli/scenes/092a.jpg,stimuli/scenes/092b.jpg,stimuli/scenes/091a.jpg,stimuli/scenes/091b.jpg,stimuli/scenes/092a.jpg,lure,dist1,dist2,target,0,1,1,1,0,64,64,48,,,,,,,969.9932975023985,971.0199296008795,971.0199296008795,971.0199296008795,971.0199296008795,974.0164998229593,974.0164998229593,974.0164998229593,974.0164998229593,None,,,,,,,,,,ST04_112822,2022-11-29_16h02.57.952,Hippopolis_Updating,2022.2.2,59.80666928505368,
Camponello,stimuli/subj_files/ST04_112822_cityB.csv,./stimuli/arnedillo.png,./stimuli/street_plate2.png,./stimuli/videos/camponello_part1.mp4,MENTA UTCA,stimuli/objects/051a.jpg,object,0,stimuli/objects/051a.jpg,stimuli/objects/051b.jpg,stimuli/scenes/120a.jpg,stimuli/scenes/120b.jpg,stimuli/objects/051a.jpg,lure,dist1,dist2,target,0,1,1,1,0,65,65,79,,,,,,,976.0037526041269,977.0345801785588,977.0345801785588,977.0345801785588,977.0345801785588,980.0404868125916,980.0404868125916,980.0404868125916,980.0404868125916,None,,,,,,,,,,ST04_112822,2022-11-29_16h02.57.952,Hippopolis_Updating,2022.2.2,59.80666928505368,
Camponello,stimuli/subj_files/ST04_112822_cityB.csv,./stimuli/arnedillo.png,./stimuli/street_plate2.png,./stimuli/videos/camponello_part1.mp4,MOGYORÓ UTCA,stimuli/scenes/066a.jpg,scene,0,stimuli/scenes/066a.jpg,stimuli/scenes/066a.jpg,stimuli/scenes/022a.jpg,stimuli/scenes/066b.jpg,stimuli/scenes/022b.jpg,target,dist1,lure,dist2,0,1,1,1,0,66,66,55,,,,,,,982.0094521064311,983.0362642798573,983.0362642798573,983.0362642798573,983.0362642798573,986.0395273584872,986.0395273584872,986.0395273584872,986.0395273584872,None,,,,,,,,,,ST04_112822,2022-11-29_16h02.57.952,Hippopolis_Updating,2022.2.2,59.80666928505368,
Camponello,stimuli/subj_files/ST04_112822_cityB.csv,./stimuli/arnedillo.png,./stimuli/street_plate2.png,./stimuli/videos/camponello_part1.mp4,KARTON UTCA,stimuli/scenes/085a.jpg,scene,0,stimuli/scenes/085a.jpg,stimuli/scenes/085a.jpg,stimuli/objects/067b.jpg,stimuli/objects/067a.jpg,stimuli/scenes/085b.jpg,target,dist2,dist1,lure,0,1,1,1,0,67,67,67,,,,,,,988.0190849080682,989.0388953927904,989.0388953927904,989.0388953927904,989.0388953927904,992.038500726223,992.038500726223,992.038500726223,992.038500726223,None,989.0388953927904,,,,,,,,,ST04_112822,2022-11-29_16h02.57.952,Hippopolis_Updating,2022.2.2,59.80666928505368,
Camponello,stimuli/subj_files/ST04_112822_cityB.csv,./stimuli/arnedillo.png,./stimuli/street_plate2.png,./stimuli/videos/camponello_part1.mp4,KÁRTYA UTCA,stimuli/scenes/110a.jpg,scene,0,stimuli/scenes/110a.jpg,stimuli/objects/105b.jpg,stimuli/scenes/110a.jpg,stimuli/scenes/110b.jpg,stimuli/objects/105a.jpg,dist2,target,lure,dist1,0,1,1,1,0,68,68,23,,,,,,,994.0265241805464,995.052346419543,995.052346419543,995.052346419543,995.052346419543,998.0703667514026,998.0703667514026,998.0703667514026,998.0703667514026,None,,,,,,,,,,ST04_112822,2022-11-29_16h02.57.952,Hippopolis_Updating,2022.2.2,59.80666928505368,
Camponello,stimuli/subj_files/ST04_112822_cityB.csv,./stimuli/arnedillo.png,./stimuli/street_plate2.png,./stimuli/videos/camponello_part1.mp4,PAPRIKA UTCA,stimuli/scenes/099a.jpg,scene,0,stimuli/scenes/099a.jpg,stimuli/scenes/065b.jpg,stimuli/scenes/099b.jpg,stimuli/scenes/065a.jpg,stimuli/scenes/099a.jpg,dist2,lure,dist1,target,0,1,1,1,0,69,69,77,,,,,,,1000.031859183684,1001.05327632837,1001.05327632837,1001.05327632837,1001.05327632837,1004.0646507646888,1004.0646507646888,1004.0646507646888,1004.0646507646888,None,,,,,,,,,,ST04_112822,2022-11-29_16h02.57.952,Hippopolis_Updating,2022.2.2,59.80666928505368,
Camponello,stimuli/subj_files/ST04_112822_cityB.csv,./stimuli/arnedillo.png,./stimuli/street_plate2.png,./stimuli/videos/camponello_part1.mp4,HERNYÓ UTCA,stimuli/objects/049a.jpg,object,2,stimuli/scenes/007a.jpg,stimuli/scenes/007a.jpg,stimuli/objects/046b.jpg,stimuli/objects/046a.jpg,stimuli/scenes/007b.jpg,target,dist2,dist1,lure,0,1,1,1,0,70,70,46,,,,,,,1006.0350239854306,1007.0586673133075,1007.0586673133075,1007.0586673133075,1007.0586673133075,1010.0666213016957,1010.0666213016957,1010.0666213016957,1010.0666213016957,None,,,,,,,,,,ST04_112822,2022-11-29_16h02.57.952,Hippopolis_Updating,2022.2.2,59.80666928505368,
Camponello,stimuli/subj_files/ST04_112822_cityB.csv,./stimuli/arnedillo.png,./stimuli/street_plate2.png,./stimuli/videos/camponello_part1.mp4,FÉSZEK UTCA,stimuli/scenes/059a.jpg,scene,0,stimuli/scenes/059a.jpg,stimuli/scenes/059a.jpg,stimuli/scenes/099a.jpg,stimuli/scenes/059b.jpg,stimuli/scenes/099b.jpg,target,dist1,lure,dist2,0,1,1,1,0,71,71,65,,,,,,,1012.0357536058873,1013.0685902833939,1013.0685902833939,1013.0685902833939,1013.0685902833939,1016.0614228304476,1016.0614228304476,1016.0614228304476,1016.0614228304476,None,,,,,,,,,,ST04_112822,2022-11-29_16h02.57.952,Hippopolis_Updating,2022.2.2,59.80666928505368,
Camponello,stimuli/subj_files/ST04_112822_cityB.csv,./stimuli/arnedillo.png,./stimuli/street_plate2.png,./stimuli/videos/camponello_part1.mp4,HENTES UTCA,stimuli/scenes/115a.jpg,scene,0,stimuli/scenes/115a.jpg,stimuli/scenes/115a.jpg,stimuli/objects/053a.jpg,stimuli/objects/053b.jpg,stimuli/scenes/115b.jpg,target,dist1,dist2,lure,0,1,1,1,0,72,72,74,,,,,,,1018.0462712198496,1019.0541959740222,1019.0541959740222,1019.0541959740222,1019.0541959740222,1022.0659262035042,1022.0659262035042,1022.0659262035042,1022.0659262035042,None,,,,,,,,,,ST04_112822,2022-11-29_16h02.57.952,Hippopolis_Updating,2022.2.2,59.80666928505368,
Camponello,stimuli/subj_files/ST04_112822_cityB.csv,./stimuli/arnedillo.png,./stimuli/street_plate2.png,./stimuli/videos/camponello_part1.mp4,LEVÉL UTCA,stimuli/objects/005a.jpg,object,0,stimuli/objects/005a.jpg,stimuli/objects/006b.jpg,stimuli/objects/006a.jpg,stimuli/objects/005a.jpg,stimuli/objects/005b.jpg,dist2,dist1,target,lure,0,1,1,1,0,73,73,34,,,,,,,1024.0600394736975,1025.0868591107428,1025.0868591107428,1025.0868591107428,1025.0868591107428,1028.0847794096917,1028.0847794096917,1028.0847794096917,1028.0847794096917,None,,,,,,,,,,ST04_112822,2022-11-29_16h02.57.952,Hippopolis_Updating,2022.2.2,59.80666928505368,
Camponello,stimuli/subj_files/ST04_112822_cityB.csv,./stimuli/arnedillo.png,./stimuli/street_plate2.png,./stimuli/videos/camponello_part1.mp4,TÉRKÉP UTCA,stimuli/objects/090a.jpg,object,1,stimuli/objects/089a.jpg,stimuli/objects/011a.jpg,stimuli/objects/011b.jpg,stimuli/objects/089b.jpg,stimuli/objects/089a.jpg,dist1,dist2,lure,target,0,1,1,1,0,74,74,71,,,,,,,1030.0733527243137,1031.1015547830611,1031.1015547830611,1031.1015547830611,1031.1015547830611,1034.1006407365203,1034.1006407365203,1034.1006407365203,1034.1006407365203,None,,,,,,,,,,ST04_112822,2022-11-29_16h02.57.952,Hippopolis_Updating,2022.2.2,59.80666928505368,
Camponello,stimuli/subj_files/ST04_112822_cityB.csv,./stimuli/arnedillo.png,./stimuli/street_plate2.png,./stimuli/videos/camponello_part1.mp4,LOVAGLÁS UTCA,stimuli/objects/037a.jpg,object,0,stimuli/objects/037a.jpg,stimuli/objects/037b.jpg,stimuli/objects/037a.jpg,stimuli/scenes/076a.jpg,stimuli/scenes/076b.jpg,lure,target,dist1,dist2,0,1,1,1,0,75,75,16,,,,,,,1036.07921923697,1037.1019989009947,1037.1019989009947,1037.1019989009947,1037.1019989009947,1040.1075991932303,1040.1075991932303,1040.1075991932303,1040.1075991932303,None,,,,,,,,,,ST04_112822,2022-11-29_16h02.57.952,Hippopolis_Updating,2022.2.2,59.80666928505368,
Camponello,stimuli/subj_files/ST04_112822_cityB.csv,./stimuli/arnedillo.png,./stimuli/street_plate2.png,./stimuli/videos/camponello_part1.mp4,KORONG UTCA,stimuli/scenes/065a.jpg,scene,0,stimuli/scenes/065a.jpg,stimuli/scenes/119a.jpg,stimuli/scenes/065b.jpg,stimuli/scenes/119b.jpg,stimuli/scenes/065a.jpg,dist1,lure,dist2,target,0,1,1,1,0,76,76,6,,,,,,,1042.0943923071027,1043.1281993240118,1043.1281993240118,1043.1281993240118,1043.1281993240118,1046.122626710683,1046.122626710683,1046.122626710683,1046.122626710683,None,,,,,,,,,,ST04_112822,2022-11-29_16h02.57.952,Hippopolis_Updating,2022.2.2,59.80666928505368,
Camponello,stimuli/subj_files/ST04_112822_cityB.csv,./stimuli/arnedillo.png,./stimuli/street_plate2.png,./stimuli/videos/camponello_part1.mp4,EGÉR UTCA,stimuli/objects/105a.jpg,object,0,stimuli/objects/105a.jpg,stimuli/objects/105a.jpg,stimuli/objects/048b.jpg,stimuli/objects/048a.jpg,stimuli/objects/105b.jpg,target,dist2,dist1,lure,0,1,1,1,0,77,77,18,,,,,,,1048.1077559404075,1049.1368011385202,1049.1368011385202,1049.1368011385202,1049.1368011385202,1052.1395389270037,1052.1395389270037,1052.1395389270037,1052.1395389270037,None,,,,,,,,,,ST04_112822,2022-11-29_16h02.57.952,Hippopolis_Updating,2022.2.2,59.80666928505368,
Camponello,stimuli/subj_files/ST04_112822_cityB.csv,./stimuli/arnedillo.png,./stimuli/street_plate2.png,./stimuli/videos/camponello_part1.mp4,POGÁCSA UTCA,stimuli/scenes/030a.jpg,scene,1,stimuli/scenes/042a.jpg,stimuli/scenes/042b.jpg,stimuli/scenes/047b.jpg,stimuli/scenes/042a.jpg,stimuli/scenes/047a.jpg,lure,dist2,target,dist1,0,1,1,1,0,78,78,63,,,,,,,1054.125236677006,1055.1489994302392,1055.1489994302392,1055.1489994302392,1055.1489994302392,1058.146094320342,1058.146094320342,1058.146094320342,1058.146094320342,None,,,,,,,,,,ST04_112822,2022-11-29_16h02.57.952,Hippopolis_Updating,2022.2.2,59.80666928505368,
