CityName,StimuliFile,CityImage,StreetSign,VideoFile,Cue,Image,Category,Novelty,UpdateImage,TestImage1,TestImage2,TestImage3,TestImage4,TestImage1Type,TestImage2Type,TestImage3Type,TestImage4Type,CityBlock.thisRepN,CityBlock.thisTrialN,CityBlock.thisN,CityBlock.thisIndex,LearningTrials.thisRepN,LearningTrials.thisTrialN,LearningTrials.thisN,LearningTrials.thisIndex,trials.thisRepN,trials.thisTrialN,trials.thisN,trials.thisIndex,learning_instructions_text.started,intro_key.started,intro_key.keys,intro_key.rt,cityname_text_intro.started,city_image_2.started,load_video.started,movie.started,end_vid_key.started,end_vid_key.keys,cityname_text.started,city_image.started,text_countdown.started,fx_cross.started,plate.started,city_text.started,street_text.started,learning_image.started,short_break_key.keys,fx_cross.stopped,short_break_text.started,short_break_key.started,short_break_key.rt,test_text.started,key_resp.started,key_resp.keys,key_resp.rt,plate_test.started,city_text_test.started,street_text_test.started,test_question.started,test_key_resp.started,button_image.started,test_key_resp.keys,test_key_resp.rt,verbal_test_key_resp.keys,plate_verbal.started,street_text_verbal.started,city_text_verbal.started,question_verbal.started,verbal_test_key_resp.started,verbal_test_key_resp.rt,n_remembered,break_text.started,break_key_resp.started,break_key_resp.keys,break_key_resp.rt,end_text.started,end_text.stopped,participant,date,expName,psychopyVersion,frameRate,
,,,,,,,,,,,,,,,,,,,,,,,,,,,,,,19.05583155527711,19.05583155527711,space,68.87412017397583,,,,,,,,,,,,,,,,,,,,,,,,,,,,,,,,,,,,,,,,,,,,,,ST04_112822,2022-11-29_15h12.25.396,Hippopolis_Learning,2022.2.2,59.46511613765451,
Hippopolis,stimuli/subj_files/ST04_112822_cityA.csv,./stimuli/seattle.jpg,./stimuli/street_plate1.png,./stimuli/videos/hippopolis_part1.mp4,KÍGYÓ UTCA,stimuli/scenes/052a.jpg,scene,0,stimuli/scenes/052a.jpg,stimuli/scenes/093b.jpg,stimuli/scenes/093a.jpg,stimuli/scenes/052b.jpg,stimuli/scenes/052a.jpg,dist2,dist1,lure,target,0,0,0,0,0,0,0,44,,,,,,,,,88.0624861586839,88.0624861586839,0.08139566145837307,91.22232011891901,91.22232011891901,None,119.37760436721146,119.37760436721146,121.79123104922473,124.82466796971858,125.80674218200147,125.80674218200147,125.80674218200147,125.80674218200147,None,,,,,,,,,,,,,,,,,,,,,,,,,,,,,,,ST04_112822,2022-11-29_15h12.25.396,Hippopolis_Learning,2022.2.2,59.46511613765451,
Hippopolis,stimuli/subj_files/ST04_112822_cityA.csv,./stimuli/seattle.jpg,./stimuli/street_plate1.png,./stimuli/videos/hippopolis_part1.mp4,SZIKLA UTCA,stimuli/objects/102a.jpg,object,1,stimuli/objects/008a.jpg,stimuli/objects/008b.jpg,stimuli/scenes/079a.jpg,stimuli/objects/008a.jpg,stimuli/scenes/079b.jpg,lure,dist1,target,dist2,0,0,0,0,0,1,1,19,,,,,,,,,,,,,,,,,,128.78493845649064,129.84295110218227,129.84295110218227,129.84295110218227,129.84295110218227,None,,,,,,,,,,,,,,,,,,,,,,,,,,,,,,,ST04_112822,2022-11-29_15h12.25.396,Hippopolis_Learning,2022.2.2,59.46511613765451,
Hippopolis,stimuli/subj_files/ST04_112822_cityA.csv,./stimuli/seattle.jpg,./stimuli/street_plate1.png,./stimuli/videos/hippopolis_part1.mp4,LEGELŐ UTCA,stimuli/scenes/082a.jpg,scene,1,stimuli/scenes/080a.jpg,stimuli/scenes/080a.jpg,stimuli/scenes/080b.jpg,stimuli/objects/092a.jpg,stimuli/objects/092b.jpg,target,lure,dist1,dist2,0,0,0,0,0,2,2,6,,,,,,,,,,,,,,,,,,132.7917255498469,133.8339415565133,133.8339415565133,133.8339415565133,133.8339415565133,None,,,,,,,,,,,,,,,,,,,,,,,,,,,,,,,ST04_112822,2022-11-29_15h12.25.396,Hippopolis_Learning,2022.2.2,59.46511613765451,
Hippopolis,stimuli/subj_files/ST04_112822_cityA.csv,./stimuli/seattle.jpg,./stimuli/street_plate1.png,./stimuli/videos/hippopolis_part1.mp4,KESELYŰ UTCA,stimuli/scenes/046a.jpg,scene,2,stimuli/objects/061a.jpg,stimuli/scenes/081b.jpg,stimuli/objects/061b.jpg,stimuli/scenes/081a.jpg,stimuli/objects/061a.jpg,dist2,lure,dist1,target,0,0,0,0,0,3,3,75,,,,,,,,,,,,,,,,,,136.80514360964298,137.85318974219263,137.85318974219263,137.85318974219263,137.85318974219263,None,,,,,,,,,,,,,,,,,,,,,,,,,,,,,,,ST04_112822,2022-11-29_15h12.25.396,Hippopolis_Learning,2022.2.2,59.46511613765451,
Hippopolis,stimuli/subj_files/ST04_112822_cityA.csv,./stimuli/seattle.jpg,./stimuli/street_plate1.png,./stimuli/videos/hippopolis_part1.mp4,VÁSÁR UTCA,stimuli/scenes/118a.jpg,scene,0,stimuli/scenes/118a.jpg,stimuli/objects/033a.jpg,stimuli/scenes/118b.jpg,stimuli/objects/033b.jpg,stimuli/scenes/118a.jpg,dist1,lure,dist2,target,0,0,0,0,0,4,4,64,,,,,,,,,,,,,,,,,,140.81822858192027,141.87046770378947,141.87046770378947,141.87046770378947,141.87046770378947,None,,,,,,,,,,,,,,,,,,,,,,,,,,,,,,,ST04_112822,2022-11-29_15h12.25.396,Hippopolis_Learning,2022.2.2,59.46511613765451,
Hippopolis,stimuli/subj_files/ST04_112822_cityA.csv,./stimuli/seattle.jpg,./stimuli/street_plate1.png,./stimuli/videos/hippopolis_part1.mp4,VIHAR UTCA,stimuli/scenes/098a.jpg,scene,0,stimuli/scenes/098a.jpg,stimuli/scenes/098b.jpg,stimuli/objects/021a.jpg,stimuli/objects/021b.jpg,stimuli/scenes/098a.jpg,lure,dist1,dist2,target,0,0,0,0,0,5,5,61,,,,,,,,,,,,,,,,,,144.83354844525456,145.87348913028836,145.87348913028836,145.87348913028836,145.87348913028836,None,,,,,,,,,,,,,,,,,,,,,,,,,,,,,,,ST04_112822,2022-11-29_15h12.25.396,Hippopolis_Learning,2022.2.2,59.46511613765451,
Hippopolis,stimuli/subj_files/ST04_112822_cityA.csv,./stimuli/seattle.jpg,./stimuli/street_plate1.png,./stimuli/videos/hippopolis_part1.mp4,KORONA UTCA,stimuli/scenes/025a.jpg,scene,2,stimuli/objects/104a.jpg,stimuli/scenes/074a.jpg,stimuli/objects/104a.jpg,stimuli/objects/104b.jpg,stimuli/scenes/074b.jpg,dist1,target,lure,dist2,0,0,0,0,0,6,6,17,,,,,,,,,,,,,,,,,,148.85011979937553,149.88249929621816,149.88249929621816,149.88249929621816,149.88249929621816,None,,,,,,,,,,,,,,,,,,,,,,,,,,,,,,,ST04_112822,2022-11-29_15h12.25.396,Hippopolis_Learning,2022.2.2,59.46511613765451,
Hippopolis,stimuli/subj_files/ST04_112822_cityA.csv,./stimuli/seattle.jpg,./stimuli/street_plate1.png,./stimuli/videos/hippopolis_part1.mp4,REPÜLŐ UTCA,stimuli/scenes/075a.jpg,scene,2,stimuli/objects/019a.jpg,stimuli/objects/019b.jpg,stimuli/scenes/031a.jpg,stimuli/objects/019a.jpg,stimuli/scenes/031b.jpg,lure,dist1,target,dist2,0,0,0,0,0,7,7,73,,,,,,,,,,,,,,,,,,152.8676521629095,153.903342012316,153.903342012316,153.903342012316,153.903342012316,None,,,,,,,,,,,,,,,,,,,,,,,,,,,,,,,ST04_112822,2022-11-29_15h12.25.396,Hippopolis_Learning,2022.2.2,59.46511613765451,
Hippopolis,stimuli/subj_files/ST04_112822_cityA.csv,./stimuli/seattle.jpg,./stimuli/street_plate1.png,./stimuli/videos/hippopolis_part1.mp4,TIGRIS UTCA,stimuli/objects/041a.jpg,object,2,stimuli/scenes/086a.jpg,stimuli/scenes/086b.jpg,stimuli/scenes/024a.jpg,stimuli/scenes/024b.jpg,stimuli/scenes/086a.jpg,lure,dist1,dist2,target,0,0,0,0,0,8,8,57,,,,,,,,,,,,,,,,,,156.88354334421456,157.91842208988965,157.91842208988965,157.91842208988965,157.91842208988965,None,157.91842208988965,,,,,,,,,,,,,,,,,,,,,,,,,,,,,,ST04_112822,2022-11-29_15h12.25.396,Hippopolis_Learning,2022.2.2,59.46511613765451,
Hippopolis,stimuli/subj_files/ST04_112822_cityA.csv,./stimuli/seattle.jpg,./stimuli/street_plate1.png,./stimuli/videos/hippopolis_part1.mp4,KERET UTCA,stimuli/scenes/093a.jpg,scene,0,stimuli/scenes/093a.jpg,stimuli/scenes/098a.jpg,stimuli/scenes/093b.jpg,stimuli/scenes/098b.jpg,stimuli/scenes/093a.jpg,dist1,lure,dist2,target,0,0,0,0,0,9,9,40,,,,,,,,,,,,,,,,,,160.89180367439985,161.92746086791158,161.92746086791158,161.92746086791158,161.92746086791158,None,,,,,,,,,,,,,,,,,,,,,,,,,,,,,,,ST04_112822,2022-11-29_15h12.25.396,Hippopolis_Learning,2022.2.2,59.46511613765451,
Hippopolis,stimuli/subj_files/ST04_112822_cityA.csv,./stimuli/seattle.jpg,./stimuli/street_plate1.png,./stimuli/videos/hippopolis_part1.mp4,ASZTAL UTCA,stimuli/objects/103a.jpg,object,2,stimuli/scenes/067a.jpg,stimuli/scenes/067b.jpg,stimuli/scenes/021b.jpg,stimuli/scenes/067a.jpg,stimuli/scenes/021a.jpg,lure,dist2,target,dist1,0,0,0,0,0,10,10,36,,,,,,,,,,,,,,,,,,164.90285248681903,165.9408008661121,165.9408008661121,165.9408008661121,165.9408008661121,None,,,,,,,,,,,,,,,,,,,,,,,,,,,,,,,ST04_112822,2022-11-29_15h12.25.396,Hippopolis_Learning,2022.2.2,59.46511613765451,
Hippopolis,stimuli/subj_files/ST04_112822_cityA.csv,./stimuli/seattle.jpg,./stimuli/street_plate1.png,./stimuli/videos/hippopolis_part1.mp4,BETON UTCA,stimuli/scenes/041a.jpg,scene,2,stimuli/objects/079a.jpg,stimuli/scenes/067b.jpg,stimuli/scenes/067a.jpg,stimuli/objects/079b.jpg,stimuli/objects/079a.jpg,dist2,dist1,lure,target,0,0,0,0,0,11,11,47,,,,,,,,,,,,,,,,,,168.91634861007333,169.953059181571,169.953059181571,169.953059181571,169.953059181571,None,,,,,,,,,,,,,,,,,,,,,,,,,,,,,,,ST04_112822,2022-11-29_15h12.25.396,Hippopolis_Learning,2022.2.2,59.46511613765451,
Hippopolis,stimuli/subj_files/ST04_112822_cityA.csv,./stimuli/seattle.jpg,./stimuli/street_plate1.png,./stimuli/videos/hippopolis_part1.mp4,MOCSÁR UTCA,stimuli/objects/031a.jpg,object,1,stimuli/objects/092a.jpg,stimuli/scenes/070b.jpg,stimuli/scenes/070a.jpg,stimuli/objects/092a.jpg,stimuli/objects/092b.jpg,dist2,dist1,target,lure,0,0,0,0,0,12,12,31,,,,,,,,,,,,,,,,,,172.91875486634672,173.95803621783853,173.95803621783853,173.95803621783853,173.95803621783853,None,,,,,,,,,,,,,,,,,,,,,,,,,,,,,,,ST04_112822,2022-11-29_15h12.25.396,Hippopolis_Learning,2022.2.2,59.46511613765451,
Hippopolis,stimuli/subj_files/ST04_112822_cityA.csv,./stimuli/seattle.jpg,./stimuli/street_plate1.png,./stimuli/videos/hippopolis_part1.mp4,MUNKA UTCA,stimuli/objects/025a.jpg,object,2,stimuli/scenes/023a.jpg,stimuli/scenes/114b.jpg,stimuli/scenes/114a.jpg,stimuli/scenes/023a.jpg,stimuli/scenes/023b.jpg,dist2,dist1,target,lure,0,0,0,0,0,13,13,16,,,,,,,,,,,,,,,,,,176.93310718983412,177.96441184915602,177.96441184915602,177.96441184915602,177.96441184915602,None,,,,,,,,,,,,,,,,,,,,,,,,,,,,,,,ST04_112822,2022-11-29_15h12.25.396,Hippopolis_Learning,2022.2.2,59.46511613765451,
Hippopolis,stimuli/subj_files/ST04_112822_cityA.csv,./stimuli/seattle.jpg,./stimuli/street_plate1.png,./stimuli/videos/hippopolis_part1.mp4,MARTINI UTCA,stimuli/objects/026a.jpg,object,2,stimuli/scenes/058a.jpg,stimuli/objects/088a.jpg,stimuli/objects/088b.jpg,stimuli/scenes/058b.jpg,stimuli/scenes/058a.jpg,dist1,dist2,lure,target,0,0,0,0,0,14,14,13,,,,,,,,,,,,,,,,,,180.95079194568098,181.9924926161766,181.9924926161766,181.9924926161766,181.9924926161766,None,,,,,,,,,,,,,,,,,,,,,,,,,,,,,,,ST04_112822,2022-11-29_15h12.25.396,Hippopolis_Learning,2022.2.2,59.46511613765451,
Hippopolis,stimuli/subj_files/ST04_112822_cityA.csv,./stimuli/seattle.jpg,./stimuli/street_plate1.png,./stimuli/videos/hippopolis_part1.mp4,KRÉTA UTCA,stimuli/scenes/071a.jpg,scene,0,stimuli/scenes/071a.jpg,stimuli/scenes/118a.jpg,stimuli/scenes/071a.jpg,stimuli/scenes/071b.jpg,stimuli/scenes/118b.jpg,dist1,target,lure,dist2,0,0,0,0,0,15,15,51,,,,,,,,,,,,,,,,,,184.9535496402532,185.9949141126126,185.9949141126126,185.9949141126126,185.9949141126126,None,,,,,,,,,,,,,,,,,,,,,,,,,,,,,,,ST04_112822,2022-11-29_15h12.25.396,Hippopolis_Learning,2022.2.2,59.46511613765451,
Hippopolis,stimuli/subj_files/ST04_112822_cityA.csv,./stimuli/seattle.jpg,./stimuli/street_plate1.png,./stimuli/videos/hippopolis_part1.mp4,BAGOLY UTCA,stimuli/scenes/108a.jpg,scene,0,stimuli/scenes/108a.jpg,stimuli/scenes/006b.jpg,stimuli/scenes/108b.jpg,stimuli/scenes/108a.jpg,stimuli/scenes/006a.jpg,dist2,lure,target,dist1,0,0,0,0,0,16,16,78,,,,,,,,,,,,,,,,,,188.96832835301757,189.99365049228072,189.99365049228072,189.99365049228072,189.99365049228072,None,,,,,,,,,,,,,,,,,,,,,,,,,,,,,,,ST04_112822,2022-11-29_15h12.25.396,Hippopolis_Learning,2022.2.2,59.46511613765451,
Hippopolis,stimuli/subj_files/ST04_112822_cityA.csv,./stimuli/seattle.jpg,./stimuli/street_plate1.png,./stimuli/videos/hippopolis_part1.mp4,MÁRVÁNY UTCA,stimuli/scenes/117a.jpg,scene,1,stimuli/scenes/026a.jpg,stimuli/scenes/026a.jpg,stimuli/scenes/028a.jpg,stimuli/scenes/026b.jpg,stimuli/scenes/028b.jpg,target,dist1,lure,dist2,0,0,0,0,0,17,17,69,,,,,,,,,,,,,,,,,,192.9712888225913,194.0096875373274,194.0096875373274,194.0096875373274,194.0096875373274,None,,,,,,,,,,,,,,,,,,,,,,,,,,,,,,,ST04_112822,2022-11-29_15h12.25.396,Hippopolis_Learning,2022.2.2,59.46511613765451,
Hippopolis,stimuli/subj_files/ST04_112822_cityA.csv,./stimuli/seattle.jpg,./stimuli/street_plate1.png,./stimuli/videos/hippopolis_part1.mp4,KANÁL UTCA,stimuli/objects/072a.jpg,object,2,stimuli/scenes/100a.jpg,stimuli/objects/019a.jpg,stimuli/scenes/100b.jpg,stimuli/scenes/100a.jpg,stimuli/objects/019b.jpg,dist1,lure,target,dist2,0,0,0,0,0,18,18,5,,,,,,,,,,,,,,,,,,196.97412955388427,198.0091320797801,198.0091320797801,198.0091320797801,198.0091320797801,None,,,,,,,,,,,,,,,,,,,,,,,,,,,,,,,ST04_112822,2022-11-29_15h12.25.396,Hippopolis_Learning,2022.2.2,59.46511613765451,
Hippopolis,stimuli/subj_files/ST04_112822_cityA.csv,./stimuli/seattle.jpg,./stimuli/street_plate1.png,./stimuli/videos/hippopolis_part1.mp4,BOLYGÓ UTCA,stimuli/scenes/062a.jpg,scene,2,stimuli/objects/043a.jpg,stimuli/objects/043a.jpg,stimuli/scenes/089b.jpg,stimuli/scenes/089a.jpg,stimuli/objects/043b.jpg,target,dist2,dist1,lure,0,0,0,0,0,19,19,55,,,,,,,,,,,,,,,,,,200.9764593038708,202.0233973208815,202.0233973208815,202.0233973208815,202.0233973208815,None,,,,,,,,,,,,,,,,,,,,,,,,,,,,,,,ST04_112822,2022-11-29_15h12.25.396,Hippopolis_Learning,2022.2.2,59.46511613765451,
Hippopolis,stimuli/subj_files/ST04_112822_cityA.csv,./stimuli/seattle.jpg,./stimuli/street_plate1.png,./stimuli/videos/hippopolis_part1.mp4,CSAVAR UTCA,stimuli/scenes/106a.jpg,scene,2,stimuli/objects/056a.jpg,stimuli/objects/056a.jpg,stimuli/objects/056b.jpg,stimuli/objects/107b.jpg,stimuli/objects/107a.jpg,target,lure,dist2,dist1,0,0,0,0,0,20,20,26,,,,,,,,,,,,,,,,,,204.98865883983672,206.01427643746138,206.01427643746138,206.01427643746138,206.01427643746138,None,,,,,,,,,,,,,,,,,,,,,,,,,,,,,,,ST04_112822,2022-11-29_15h12.25.396,Hippopolis_Learning,2022.2.2,59.46511613765451,
Hippopolis,stimuli/subj_files/ST04_112822_cityA.csv,./stimuli/seattle.jpg,./stimuli/street_plate1.png,./stimuli/videos/hippopolis_part1.mp4,RÓZSA UTCA,stimuli/objects/021a.jpg,object,0,stimuli/objects/021a.jpg,stimuli/objects/021a.jpg,stimuli/objects/021b.jpg,stimuli/objects/114a.jpg,stimuli/objects/114b.jpg,target,lure,dist1,dist2,0,0,0,0,0,21,21,8,,,,,,,,,,,,,,,,,,208.99292771331966,210.0200583562255,210.0200583562255,210.0200583562255,210.0200583562255,None,,,,,,,,,,,,,,,,,,,,,,,,,,,,,,,ST04_112822,2022-11-29_15h12.25.396,Hippopolis_Learning,2022.2.2,59.46511613765451,
Hippopolis,stimuli/subj_files/ST04_112822_cityA.csv,./stimuli/seattle.jpg,./stimuli/street_plate1.png,./stimuli/videos/hippopolis_part1.mp4,KAKAS UTCA,stimuli/objects/110a.jpg,object,1,stimuli/objects/052a.jpg,stimuli/objects/052a.jpg,stimuli/objects/024b.jpg,stimuli/objects/052b.jpg,stimuli/objects/024a.jpg,target,dist2,lure,dist1,0,0,0,0,0,22,22,2,,,,,,,,,,,,,,,,,,212.99948528409004,214.03133980184793,214.03133980184793,214.03133980184793,214.03133980184793,None,,,,,,,,,,,,,,,,,,,,,,,,,,,,,,,ST04_112822,2022-11-29_15h12.25.396,Hippopolis_Learning,2022.2.2,59.46511613765451,
Hippopolis,stimuli/subj_files/ST04_112822_cityA.csv,./stimuli/seattle.jpg,./stimuli/street_plate1.png,./stimuli/videos/hippopolis_part1.mp4,TELEP UTCA,stimuli/objects/074a.jpg,object,1,stimuli/objects/036a.jpg,stimuli/scenes/044b.jpg,stimuli/objects/036a.jpg,stimuli/objects/036b.jpg,stimuli/scenes/044a.jpg,dist2,target,lure,dist1,0,0,0,0,0,23,23,9,,,,,,,,,,,,,,,,,,217.01592819206417,218.05393006280065,218.05393006280065,218.05393006280065,218.05393006280065,None,,,,,,,,,,,,,,,,,,,,,,,,,,,,,,,ST04_112822,2022-11-29_15h12.25.396,Hippopolis_Learning,2022.2.2,59.46511613765451,
Hippopolis,stimuli/subj_files/ST04_112822_cityA.csv,./stimuli/seattle.jpg,./stimuli/street_plate1.png,./stimuli/videos/hippopolis_part1.mp4,PETÁRDA UTCA,stimuli/scenes/015a.jpg,scene,1,stimuli/scenes/077a.jpg,stimuli/scenes/077b.jpg,stimuli/scenes/097b.jpg,stimuli/scenes/077a.jpg,stimuli/scenes/097a.jpg,lure,dist2,target,dist1,0,0,0,0,0,24,24,54,,,,,,,,,,,,,,,,,,221.0325919147581,222.06712513044477,222.06712513044477,222.06712513044477,222.06712513044477,None,,,,,,,,,,,,,,,,,,,,,,,,,,,,,,,ST04_112822,2022-11-29_15h12.25.396,Hippopolis_Learning,2022.2.2,59.46511613765451,
Hippopolis,stimuli/subj_files/ST04_112822_cityA.csv,./stimuli/seattle.jpg,./stimuli/street_plate1.png,./stimuli/videos/hippopolis_part1.mp4,ÁRNYÉK UTCA,stimuli/scenes/029a.jpg,scene,1,stimuli/scenes/069a.jpg,stimuli/objects/052a.jpg,stimuli/scenes/069b.jpg,stimuli/objects/052b.jpg,stimuli/scenes/069a.jpg,dist1,lure,dist2,target,0,0,0,0,0,25,25,56,,,,,,,,,,,,,,,,,,225.03555518202484,226.05718692205846,226.05718692205846,226.05718692205846,226.05718692205846,None,,,,,,,,,,,,,,,,,,,,,,,,,,,,,,,ST04_112822,2022-11-29_15h12.25.396,Hippopolis_Learning,2022.2.2,59.46511613765451,
Hippopolis,stimuli/subj_files/ST04_112822_cityA.csv,./stimuli/seattle.jpg,./stimuli/street_plate1.png,./stimuli/videos/hippopolis_part1.mp4,HÁRFA UTCA,stimuli/objects/007a.jpg,object,1,stimuli/objects/094a.jpg,stimuli/objects/094b.jpg,stimuli/objects/094a.jpg,stimuli/scenes/069b.jpg,stimuli/scenes/069a.jpg,lure,target,dist2,dist1,0,0,0,0,0,26,26,59,,,,,,,,,,,,,,,,,,229.04081181250513,230.08309717476368,230.08309717476368,230.08309717476368,230.08309717476368,None,,,,,,,,,,,,,,,,,,,,,,,,,,,,,,,ST04_112822,2022-11-29_15h12.25.396,Hippopolis_Learning,2022.2.2,59.46511613765451,
Hippopolis,stimuli/subj_files/ST04_112822_cityA.csv,./stimuli/seattle.jpg,./stimuli/street_plate1.png,./stimuli/videos/hippopolis_part1.mp4,KATONA UTCA,stimuli/scenes/101a.jpg,scene,2,stimuli/objects/120a.jpg,stimuli/objects/120b.jpg,stimuli/objects/120a.jpg,stimuli/objects/054b.jpg,stimuli/objects/054a.jpg,lure,target,dist2,dist1,0,0,0,0,0,27,27,53,,,,,,,,,,,,,,,,,,233.04425807483494,234.08854009769857,234.08854009769857,234.08854009769857,234.08854009769857,None,,,,,,,,,,,,,,,,,,,,,,,,,,,,,,,ST04_112822,2022-11-29_15h12.25.396,Hippopolis_Learning,2022.2.2,59.46511613765451,
Hippopolis,stimuli/subj_files/ST04_112822_cityA.csv,./stimuli/seattle.jpg,./stimuli/street_plate1.png,./stimuli/videos/hippopolis_part1.mp4,FOGAS UTCA,stimuli/objects/081a.jpg,object,1,stimuli/objects/119a.jpg,stimuli/scenes/040b.jpg,stimuli/objects/119a.jpg,stimuli/objects/119b.jpg,stimuli/scenes/040a.jpg,dist2,target,lure,dist1,0,0,0,0,0,28,28,48,,,,,,,,,,,,,,,,,,237.05950796231627,238.0917335115373,238.0917335115373,238.0917335115373,238.0917335115373,None,,,,,,,,,,,,,,,,,,,,,,,,,,,,,,,ST04_112822,2022-11-29_15h12.25.396,Hippopolis_Learning,2022.2.2,59.46511613765451,
Hippopolis,stimuli/subj_files/ST04_112822_cityA.csv,./stimuli/seattle.jpg,./stimuli/street_plate1.png,./stimuli/videos/hippopolis_part1.mp4,ÁLLOMÁS UTCA,stimuli/objects/017a.jpg,object,2,stimuli/scenes/109a.jpg,stimuli/scenes/109b.jpg,stimuli/objects/059b.jpg,stimuli/scenes/109a.jpg,stimuli/objects/059a.jpg,lure,dist2,target,dist1,0,0,0,0,0,29,29,22,,,,,,,,,,,,,,,,,,241.06205448321998,242.10554219596088,242.10554219596088,242.10554219596088,242.10554219596088,None,,,,,,,,,,,,,,,,,,,,,,,,,,,,,,,ST04_112822,2022-11-29_15h12.25.396,Hippopolis_Learning,2022.2.2,59.46511613765451,
Hippopolis,stimuli/subj_files/ST04_112822_cityA.csv,./stimuli/seattle.jpg,./stimuli/street_plate1.png,./stimuli/videos/hippopolis_part1.mp4,KÖTÉL UTCA,stimuli/objects/078a.jpg,object,2,stimuli/scenes/018a.jpg,stimuli/scenes/018b.jpg,stimuli/scenes/018a.jpg,stimuli/objects/013b.jpg,stimuli/objects/013a.jpg,lure,target,dist2,dist1,0,0,0,0,0,30,30,37,,,,,,,,,,,,,,,,,,245.06600612960756,246.10871663689613,246.10871663689613,246.10871663689613,246.10871663689613,None,,,,,,,,,,,,,,,,,,,,,,,,,,,,,,,ST04_112822,2022-11-29_15h12.25.396,Hippopolis_Learning,2022.2.2,59.46511613765451,
Hippopolis,stimuli/subj_files/ST04_112822_cityA.csv,./stimuli/seattle.jpg,./stimuli/street_plate1.png,./stimuli/videos/hippopolis_part1.mp4,TRIATLON UTCA,stimuli/scenes/039a.jpg,scene,2,stimuli/objects/107a.jpg,stimuli/objects/107b.jpg,stimuli/scenes/058a.jpg,stimuli/scenes/058b.jpg,stimuli/objects/107a.jpg,lure,dist1,dist2,target,0,0,0,0,0,31,31,52,,,,,,,,,,,,,,,,,,249.08244965970516,250.1134352274239,250.1134352274239,250.1134352274239,250.1134352274239,None,,,,,,,,,,,,,,,,,,,,,,,,,,,,,,,ST04_112822,2022-11-29_15h12.25.396,Hippopolis_Learning,2022.2.2,59.46511613765451,
Hippopolis,stimuli/subj_files/ST04_112822_cityA.csv,./stimuli/seattle.jpg,./stimuli/street_plate1.png,./stimuli/videos/hippopolis_part1.mp4,TOLMÁCS UTCA,stimuli/objects/022a.jpg,object,2,stimuli/scenes/114a.jpg,stimuli/scenes/018b.jpg,stimuli/scenes/018a.jpg,stimuli/scenes/114b.jpg,stimuli/scenes/114a.jpg,dist2,dist1,lure,target,0,0,0,0,0,32,32,34,,,,,,,,,,,,,,,,,,253.09312028810382,254.1279940586537,254.1279940586537,254.1279940586537,254.1279940586537,None,,,,,,,,,,,,,,,,,,,,,,,,,,,,,,,ST04_112822,2022-11-29_15h12.25.396,Hippopolis_Learning,2022.2.2,59.46511613765451,
Hippopolis,stimuli/subj_files/ST04_112822_cityA.csv,./stimuli/seattle.jpg,./stimuli/street_plate1.png,./stimuli/videos/hippopolis_part1.mp4,CUKOR UTCA,stimuli/scenes/073a.jpg,scene,2,stimuli/objects/091a.jpg,stimuli/objects/079a.jpg,stimuli/objects/091a.jpg,stimuli/objects/091b.jpg,stimuli/objects/079b.jpg,dist1,target,lure,dist2,0,0,0,0,0,33,33,66,,,,,,,,,,,,,,,,,,257.1018800958991,258.14453555457294,258.14453555457294,258.14453555457294,258.14453555457294,None,,,,,,,,,,,,,,,,,,,,,,,,,,,,,,,ST04_112822,2022-11-29_15h12.25.396,Hippopolis_Learning,2022.2.2,59.46511613765451,
Hippopolis,stimuli/subj_files/ST04_112822_cityA.csv,./stimuli/seattle.jpg,./stimuli/street_plate1.png,./stimuli/videos/hippopolis_part1.mp4,KÖNYVTÁR UTCA,stimuli/objects/082a.jpg,object,0,stimuli/objects/082a.jpg,stimuli/objects/116b.jpg,stimuli/objects/116a.jpg,stimuli/objects/082a.jpg,stimuli/objects/082b.jpg,dist2,dist1,target,lure,0,0,0,0,0,34,34,39,,,,,,,,,,,,,,,,,,261.10370196960866,262.14499086886644,262.14499086886644,262.14499086886644,262.14499086886644,None,,,,,,,,,,,,,,,,,,,,,,,,,,,,,,,ST04_112822,2022-11-29_15h12.25.396,Hippopolis_Learning,2022.2.2,59.46511613765451,
Hippopolis,stimuli/subj_files/ST04_112822_cityA.csv,./stimuli/seattle.jpg,./stimuli/street_plate1.png,./stimuli/videos/hippopolis_part1.mp4,LÁNDZSA UTCA,stimuli/scenes/087a.jpg,scene,0,stimuli/scenes/087a.jpg,stimuli/objects/082b.jpg,stimuli/objects/082a.jpg,stimuli/scenes/087b.jpg,stimuli/scenes/087a.jpg,dist2,dist1,lure,target,0,0,0,0,0,35,35,50,,,,,,,,,,,,,,,,,,265.11566731892526,266.13867961615324,266.13867961615324,266.13867961615324,266.13867961615324,None,,,,,,,,,,,,,,,,,,,,,,,,,,,,,,,ST04_112822,2022-11-29_15h12.25.396,Hippopolis_Learning,2022.2.2,59.46511613765451,
Hippopolis,stimuli/subj_files/ST04_112822_cityA.csv,./stimuli/seattle.jpg,./stimuli/street_plate1.png,./stimuli/videos/hippopolis_part1.mp4,RIBIZLI UTCA,stimuli/objects/086a.jpg,object,1,stimuli/objects/076a.jpg,stimuli/objects/036a.jpg,stimuli/objects/076a.jpg,stimuli/objects/036b.jpg,stimuli/objects/076b.jpg,dist1,target,dist2,lure,0,0,0,0,0,36,36,35,,,,,,,,,,,,,,,,,,269.118257381022,270.16027558781207,270.16027558781207,270.16027558781207,270.16027558781207,None,,,,,,,,,,,,,,,,,,,,,,,,,,,,,,,ST04_112822,2022-11-29_15h12.25.396,Hippopolis_Learning,2022.2.2,59.46511613765451,
Hippopolis,stimuli/subj_files/ST04_112822_cityA.csv,./stimuli/seattle.jpg,./stimuli/street_plate1.png,./stimuli/videos/hippopolis_part1.mp4,SZOBOR UTCA,stimuli/scenes/003a.jpg,scene,1,stimuli/scenes/010a.jpg,stimuli/scenes/010b.jpg,stimuli/objects/119a.jpg,stimuli/objects/119b.jpg,stimuli/scenes/010a.jpg,lure,dist1,dist2,target,0,0,0,0,0,37,37,41,,,,,,,,,,,,,,,,,,273.13202936574817,274.1729167532176,274.1729167532176,274.1729167532176,274.1729167532176,None,,,,,,,,,,,,,,,,,,,,,,,,,,,,,,,ST04_112822,2022-11-29_15h12.25.396,Hippopolis_Learning,2022.2.2,59.46511613765451,
Hippopolis,stimuli/subj_files/ST04_112822_cityA.csv,./stimuli/seattle.jpg,./stimuli/street_plate1.png,./stimuli/videos/hippopolis_part1.mp4,PAPUCS UTCA,stimuli/scenes/053a.jpg,scene,2,stimuli/objects/054a.jpg,stimuli/objects/061a.jpg,stimuli/objects/054a.jpg,stimuli/objects/054b.jpg,stimuli/objects/061b.jpg,dist1,target,lure,dist2,0,0,0,0,0,38,38,11,,,,,,,,,,,,,,,,,,277.1488031838089,278.184028390795,278.184028390795,278.184028390795,278.184028390795,None,,,,,,,,,,,,,,,,,,,,,,,,,,,,,,,ST04_112822,2022-11-29_15h12.25.396,Hippopolis_Learning,2022.2.2,59.46511613765451,
Hippopolis,stimuli/subj_files/ST04_112822_cityA.csv,./stimuli/seattle.jpg,./stimuli/street_plate1.png,./stimuli/videos/hippopolis_part1.mp4,SALÁTA UTCA,stimuli/objects/034a.jpg,object,1,stimuli/objects/109a.jpg,stimuli/objects/109a.jpg,stimuli/objects/109b.jpg,stimuli/scenes/112a.jpg,stimuli/scenes/112b.jpg,target,lure,dist1,dist2,0,0,0,0,0,39,39,45,,,,,,,,,,,,,,,,,,281.1633072793484,282.1934708561748,282.1934708561748,282.1934708561748,282.1934708561748,None,,,,,,,,,,,,,,,,,,,,,,,,,,,,,,,ST04_112822,2022-11-29_15h12.25.396,Hippopolis_Learning,2022.2.2,59.46511613765451,
Hippopolis,stimuli/subj_files/ST04_112822_cityA.csv,./stimuli/seattle.jpg,./stimuli/street_plate1.png,./stimuli/videos/hippopolis_part1.mp4,ZEBRA UTCA,stimuli/objects/033a.jpg,object,0,stimuli/objects/033a.jpg,stimuli/objects/033b.jpg,stimuli/objects/033a.jpg,stimuli/objects/095b.jpg,stimuli/objects/095a.jpg,lure,target,dist2,dist1,0,0,0,0,0,40,40,70,,,,,,,,,,,,,,,,,,285.1756744477898,286.2100882381201,286.2100882381201,286.2100882381201,286.2100882381201,None,,,,,,,,,,,,,,,,,,,,,,,,,,,,,,,ST04_112822,2022-11-29_15h12.25.396,Hippopolis_Learning,2022.2.2,59.46511613765451,
Hippopolis,stimuli/subj_files/ST04_112822_cityA.csv,./stimuli/seattle.jpg,./stimuli/street_plate1.png,./stimuli/videos/hippopolis_part1.mp4,KULLANCS UTCA,stimuli/objects/097a.jpg,object,0,stimuli/objects/097a.jpg,stimuli/objects/097a.jpg,stimuli/objects/050a.jpg,stimuli/objects/097b.jpg,stimuli/objects/050b.jpg,target,dist1,lure,dist2,0,0,0,0,0,41,41,76,,,,,,,,,,,,,,,,,,289.1810032315552,290.20638881623745,290.20638881623745,290.20638881623745,290.20638881623745,None,,,,,,,,,,,,,,,,,,,,,,,,,,,,,,,ST04_112822,2022-11-29_15h12.25.396,Hippopolis_Learning,2022.2.2,59.46511613765451,
Hippopolis,stimuli/subj_files/ST04_112822_cityA.csv,./stimuli/seattle.jpg,./stimuli/street_plate1.png,./stimuli/videos/hippopolis_part1.mp4,LÉPCSŐ UTCA,stimuli/objects/018a.jpg,object,1,stimuli/objects/075a.jpg,stimuli/scenes/045a.jpg,stimuli/objects/075a.jpg,stimuli/objects/075b.jpg,stimuli/scenes/045b.jpg,dist1,target,lure,dist2,0,0,0,0,0,42,42,14,,,,,,,,,,,,,,,,,,293.1862116549164,294.2291687913239,294.2291687913239,294.2291687913239,294.2291687913239,None,,,,,,,,,,,,,,,,,,,,,,,,,,,,,,,ST04_112822,2022-11-29_15h12.25.396,Hippopolis_Learning,2022.2.2,59.46511613765451,
Hippopolis,stimuli/subj_files/ST04_112822_cityA.csv,./stimuli/seattle.jpg,./stimuli/street_plate1.png,./stimuli/videos/hippopolis_part1.mp4,SIVATAG UTCA,stimuli/scenes/051a.jpg,scene,1,stimuli/scenes/079a.jpg,stimuli/objects/045a.jpg,stimuli/objects/045b.jpg,stimuli/scenes/079a.jpg,stimuli/scenes/079b.jpg,dist1,dist2,target,lure,0,0,0,0,0,43,43,46,,,,,,,,,,,,,,,,,,297.1987632513046,298.2389981485903,298.2389981485903,298.2389981485903,298.2389981485903,None,,,,,,,,,,,,,,,,,,,,,,,,,,,,,,,ST04_112822,2022-11-29_15h12.25.396,Hippopolis_Learning,2022.2.2,59.46511613765451,
Hippopolis,stimuli/subj_files/ST04_112822_cityA.csv,./stimuli/seattle.jpg,./stimuli/street_plate1.png,./stimuli/videos/hippopolis_part1.mp4,SIRÁLY UTCA,stimuli/scenes/054a.jpg,scene,1,stimuli/scenes/111a.jpg,stimuli/scenes/111b.jpg,stimuli/objects/109a.jpg,stimuli/objects/109b.jpg,stimuli/scenes/111a.jpg,lure,dist1,dist2,target,0,0,0,0,0,44,44,12,,,,,,,,,,,,,,,,,,301.1984034162015,302.22421414777637,302.22421414777637,302.22421414777637,302.22421414777637,space,,305.21537534706295,305.21537534706295,6.615279195830226,,,,,,,,,,,,,,,,,,,,,,,,,,,ST04_112822,2022-11-29_15h12.25.396,Hippopolis_Learning,2022.2.2,59.46511613765451,
Hippopolis,stimuli/subj_files/ST04_112822_cityA.csv,./stimuli/seattle.jpg,./stimuli/street_plate1.png,./stimuli/videos/hippopolis_part1.mp4,DOMINÓ UTCA,stimuli/objects/062a.jpg,object,1,stimuli/objects/045a.jpg,stimuli/scenes/010b.jpg,stimuli/scenes/010a.jpg,stimuli/objects/045a.jpg,stimuli/objects/045b.jpg,dist2,dist1,target,lure,0,0,0,0,0,45,45,68,,,,,,,,,,,,,,,,,,311.85949757508934,312.9051278103143,312.9051278103143,312.9051278103143,312.9051278103143,None,,,,,,,,,,,,,,,,,,,,,,,,,,,,,,,ST04_112822,2022-11-29_15h12.25.396,Hippopolis_Learning,2022.2.2,59.46511613765451,
Hippopolis,stimuli/subj_files/ST04_112822_cityA.csv,./stimuli/seattle.jpg,./stimuli/street_plate1.png,./stimuli/videos/hippopolis_part1.mp4,CITROM UTCA,stimuli/objects/095a.jpg,object,0,stimuli/objects/095a.jpg,stimuli/objects/044b.jpg,stimuli/objects/095a.jpg,stimuli/objects/095b.jpg,stimuli/objects/044a.jpg,dist2,target,lure,dist1,0,0,0,0,0,46,46,71,,,,,,,,,,,,,,,,,,315.86608655564487,316.90040517784655,316.90040517784655,316.90040517784655,316.90040517784655,None,,,,,,,,,,,,,,,,,,,,,,,,,,,,,,,ST04_112822,2022-11-29_15h12.25.396,Hippopolis_Learning,2022.2.2,59.46511613765451,
Hippopolis,stimuli/subj_files/ST04_112822_cityA.csv,./stimuli/seattle.jpg,./stimuli/street_plate1.png,./stimuli/videos/hippopolis_part1.mp4,TELEFON UTCA,stimuli/scenes/116a.jpg,scene,0,stimuli/scenes/116a.jpg,stimuli/scenes/116a.jpg,stimuli/objects/084a.jpg,stimuli/scenes/116b.jpg,stimuli/objects/084b.jpg,target,dist1,lure,dist2,0,0,0,0,0,47,47,0,,,,,,,,,,,,,,,,,,319.8762222547084,320.92118475958705,320.92118475958705,320.92118475958705,320.92118475958705,None,,,,,,,,,,,,,,,,,,,,,,,,,,,,,,,ST04_112822,2022-11-29_15h12.25.396,Hippopolis_Learning,2022.2.2,59.46511613765451,
Hippopolis,stimuli/subj_files/ST04_112822_cityA.csv,./stimuli/seattle.jpg,./stimuli/street_plate1.png,./stimuli/videos/hippopolis_part1.mp4,BÚJÓCSKA UTCA,stimuli/scenes/088a.jpg,scene,0,stimuli/scenes/088a.jpg,stimuli/scenes/088b.jpg,stimuli/scenes/037b.jpg,stimuli/scenes/037a.jpg,stimuli/scenes/088a.jpg,lure,dist2,dist1,target,0,0,0,0,0,48,48,79,,,,,,,,,,,,,,,,,,323.88428136333823,324.9179776608944,324.9179776608944,324.9179776608944,324.9179776608944,None,,,,,,,,,,,,,,,,,,,,,,,,,,,,,,,ST04_112822,2022-11-29_15h12.25.396,Hippopolis_Learning,2022.2.2,59.46511613765451,
Hippopolis,stimuli/subj_files/ST04_112822_cityA.csv,./stimuli/seattle.jpg,./stimuli/street_plate1.png,./stimuli/videos/hippopolis_part1.mp4,KUTYA UTCA,stimuli/objects/065a.jpg,object,2,stimuli/scenes/024a.jpg,stimuli/scenes/109b.jpg,stimuli/scenes/024b.jpg,stimuli/scenes/024a.jpg,stimuli/scenes/109a.jpg,dist2,lure,target,dist1,0,0,0,0,0,49,49,10,,,,,,,,,,,,,,,,,,327.8861949853599,328.9254993516952,328.9254993516952,328.9254993516952,328.9254993516952,None,,,,,,,,,,,,,,,,,,,,,,,,,,,,,,,ST04_112822,2022-11-29_15h12.25.396,Hippopolis_Learning,2022.2.2,59.46511613765451,
Hippopolis,stimuli/subj_files/ST04_112822_cityA.csv,./stimuli/seattle.jpg,./stimuli/street_plate1.png,./stimuli/videos/hippopolis_part1.mp4,KÖTÉNY UTCA,stimuli/objects/114a.jpg,object,0,stimuli/objects/114a.jpg,stimuli/scenes/116b.jpg,stimuli/objects/114b.jpg,stimuli/objects/114a.jpg,stimuli/scenes/116a.jpg,dist2,lure,target,dist1,0,0,0,0,0,50,50,3,,,,,,,,,,,,,,,,,,331.9017493482679,332.9414216335863,332.9414216335863,332.9414216335863,332.9414216335863,None,,,,,,,,,,,,,,,,,,,,,,,,,,,,,,,ST04_112822,2022-11-29_15h12.25.396,Hippopolis_Learning,2022.2.2,59.46511613765451,
Hippopolis,stimuli/subj_files/ST04_112822_cityA.csv,./stimuli/seattle.jpg,./stimuli/street_plate1.png,./stimuli/videos/hippopolis_part1.mp4,TENISZ UTCA,stimuli/scenes/090a.jpg,scene,1,stimuli/scenes/112a.jpg,stimuli/objects/047b.jpg,stimuli/scenes/112a.jpg,stimuli/objects/047a.jpg,stimuli/scenes/112b.jpg,dist2,target,dist1,lure,0,0,0,0,0,51,51,72,,,,,,,,,,,,,,,,,,335.9018137268722,336.93955559656024,336.93955559656024,336.93955559656024,336.93955559656024,None,,,,,,,,,,,,,,,,,,,,,,,,,,,,,,,ST04_112822,2022-11-29_15h12.25.396,Hippopolis_Learning,2022.2.2,59.46511613765451,
Hippopolis,stimuli/subj_files/ST04_112822_cityA.csv,./stimuli/seattle.jpg,./stimuli/street_plate1.png,./stimuli/videos/hippopolis_part1.mp4,FIÓK UTCA,stimuli/scenes/104a.jpg,scene,1,stimuli/scenes/045a.jpg,stimuli/scenes/045a.jpg,stimuli/scenes/026a.jpg,stimuli/scenes/045b.jpg,stimuli/scenes/026b.jpg,target,dist1,lure,dist2,0,0,0,0,0,52,52,63,,,,,,,,,,,,,,,,,,339.9118956197053,340.9443646874279,340.9443646874279,340.9443646874279,340.9443646874279,None,,,,,,,,,,,,,,,,,,,,,,,,,,,,,,,ST04_112822,2022-11-29_15h12.25.396,Hippopolis_Learning,2022.2.2,59.46511613765451,
Hippopolis,stimuli/subj_files/ST04_112822_cityA.csv,./stimuli/seattle.jpg,./stimuli/street_plate1.png,./stimuli/videos/hippopolis_part1.mp4,BOHÓC UTCA,stimuli/scenes/113a.jpg,scene,2,stimuli/objects/013a.jpg,stimuli/scenes/100b.jpg,stimuli/objects/013b.jpg,stimuli/objects/013a.jpg,stimuli/scenes/100a.jpg,dist2,lure,target,dist1,0,0,0,0,0,53,53,23,,,,,,,,,,,,,,,,,,343.9145724531263,344.95573725923896,344.95573725923896,344.95573725923896,344.95573725923896,None,,,,,,,,,,,,,,,,,,,,,,,,,,,,,,,ST04_112822,2022-11-29_15h12.25.396,Hippopolis_Learning,2022.2.2,59.46511613765451,
Hippopolis,stimuli/subj_files/ST04_112822_cityA.csv,./stimuli/seattle.jpg,./stimuli/street_plate1.png,./stimuli/videos/hippopolis_part1.mp4,PULÓVER UTCA,stimuli/objects/093a.jpg,object,1,stimuli/objects/106a.jpg,stimuli/objects/106b.jpg,stimuli/objects/106a.jpg,stimuli/objects/076b.jpg,stimuli/objects/076a.jpg,lure,target,dist2,dist1,0,0,0,0,0,54,54,42,,,,,,,,,,,,,,,,,,347.93124861456454,348.96360354311764,348.96360354311764,348.96360354311764,348.96360354311764,None,,,,,,,,,,,,,,,,,,,,,,,,,,,,,,,ST04_112822,2022-11-29_15h12.25.396,Hippopolis_Learning,2022.2.2,59.46511613765451,
Hippopolis,stimuli/subj_files/ST04_112822_cityA.csv,./stimuli/seattle.jpg,./stimuli/street_plate1.png,./stimuli/videos/hippopolis_part1.mp4,OROSZLÁN UTCA,stimuli/objects/084a.jpg,object,0,stimuli/objects/084a.jpg,stimuli/objects/055b.jpg,stimuli/objects/084a.jpg,stimuli/objects/084b.jpg,stimuli/objects/055a.jpg,dist2,target,lure,dist1,0,0,0,0,0,55,55,30,,,,,,,,,,,,,,,,,,351.94184211455286,352.9877814911306,352.9877814911306,352.9877814911306,352.9877814911306,None,,,,,,,,,,,,,,,,,,,,,,,,,,,,,,,ST04_112822,2022-11-29_15h12.25.396,Hippopolis_Learning,2022.2.2,59.46511613765451,
Hippopolis,stimuli/subj_files/ST04_112822_cityA.csv,./stimuli/seattle.jpg,./stimuli/street_plate1.png,./stimuli/videos/hippopolis_part1.mp4,ZSEMLE UTCA,stimuli/objects/057a.jpg,object,2,stimuli/scenes/031a.jpg,stimuli/objects/056a.jpg,stimuli/scenes/031b.jpg,stimuli/scenes/031a.jpg,stimuli/objects/056b.jpg,dist1,lure,target,dist2,0,0,0,0,0,56,56,24,,,,,,,,,,,,,,,,,,355.94763087667525,356.98104758001864,356.98104758001864,356.98104758001864,356.98104758001864,None,,,,,,,,,,,,,,,,,,,,,,,,,,,,,,,ST04_112822,2022-11-29_15h12.25.396,Hippopolis_Learning,2022.2.2,59.46511613765451,
Hippopolis,stimuli/subj_files/ST04_112822_cityA.csv,./stimuli/seattle.jpg,./stimuli/street_plate1.png,./stimuli/videos/hippopolis_part1.mp4,LAKAT UTCA,stimuli/objects/014a.jpg,object,0,stimuli/objects/014a.jpg,stimuli/scenes/087a.jpg,stimuli/objects/014b.jpg,stimuli/objects/014a.jpg,stimuli/scenes/087b.jpg,dist1,lure,target,dist2,0,0,0,0,0,57,57,21,,,,,,,,,,,,,,,,,,359.95989199355245,360.9985457342118,360.9985457342118,360.9985457342118,360.9985457342118,None,,,,,,,,,,,,,,,,,,,,,,,,,,,,,,,ST04_112822,2022-11-29_15h12.25.396,Hippopolis_Learning,2022.2.2,59.46511613765451,
Hippopolis,stimuli/subj_files/ST04_112822_cityA.csv,./stimuli/seattle.jpg,./stimuli/street_plate1.png,./stimuli/videos/hippopolis_part1.mp4,LABDA UTCA,stimuli/scenes/063a.jpg,scene,2,stimuli/objects/088a.jpg,stimuli/objects/039a.jpg,stimuli/objects/088b.jpg,stimuli/objects/039b.jpg,stimuli/objects/088a.jpg,dist1,lure,dist2,target,0,0,0,0,0,58,58,65,,,,,,,,,,,,,,,,,,363.964390700683,364.99980873055756,364.99980873055756,364.99980873055756,364.99980873055756,None,,,,,,,,,,,,,,,,,,,,,,,,,,,,,,,ST04_112822,2022-11-29_15h12.25.396,Hippopolis_Learning,2022.2.2,59.46511613765451,
Hippopolis,stimuli/subj_files/ST04_112822_cityA.csv,./stimuli/seattle.jpg,./stimuli/street_plate1.png,./stimuli/videos/hippopolis_part1.mp4,PÁRNA UTCA,stimuli/objects/058a.jpg,object,2,stimuli/scenes/081a.jpg,stimuli/objects/120a.jpg,stimuli/objects/120b.jpg,stimuli/scenes/081a.jpg,stimuli/scenes/081b.jpg,dist1,dist2,target,lure,0,0,0,0,0,59,59,28,,,,,,,,,,,,,,,,,,367.98132313229144,369.02295258268714,369.02295258268714,369.02295258268714,369.02295258268714,None,,,,,,,,,,,,,,,,,,,,,,,,,,,,,,,ST04_112822,2022-11-29_15h12.25.396,Hippopolis_Learning,2022.2.2,59.46511613765451,
Hippopolis,stimuli/subj_files/ST04_112822_cityA.csv,./stimuli/seattle.jpg,./stimuli/street_plate1.png,./stimuli/videos/hippopolis_part1.mp4,SZAXOFON UTCA,stimuli/scenes/011a.jpg,scene,2,stimuli/objects/039a.jpg,stimuli/objects/039a.jpg,stimuli/objects/039b.jpg,stimuli/scenes/023b.jpg,stimuli/scenes/023a.jpg,target,lure,dist2,dist1,0,0,0,0,0,60,60,29,,,,,,,,,,,,,,,,,,371.99616249091923,373.0297026652843,373.0297026652843,373.0297026652843,373.0297026652843,None,,,,,,,,,,,,,,,,,,,,,,,,,,,,,,,ST04_112822,2022-11-29_15h12.25.396,Hippopolis_Learning,2022.2.2,59.46511613765451,
Hippopolis,stimuli/subj_files/ST04_112822_cityA.csv,./stimuli/seattle.jpg,./stimuli/street_plate1.png,./stimuli/videos/hippopolis_part1.mp4,HORGONY UTCA,stimuli/objects/050a.jpg,object,0,stimuli/objects/050a.jpg,stimuli/objects/050a.jpg,stimuli/scenes/012a.jpg,stimuli/objects/050b.jpg,stimuli/scenes/012b.jpg,target,dist1,lure,dist2,0,0,0,0,0,61,61,67,,,,,,,,,,,,,,,,,,376.0006941650063,377.04662110097706,377.04662110097706,377.04662110097706,377.04662110097706,None,,,,,,,,,,,,,,,,,,,,,,,,,,,,,,,ST04_112822,2022-11-29_15h12.25.396,Hippopolis_Learning,2022.2.2,59.46511613765451,
Hippopolis,stimuli/subj_files/ST04_112822_cityA.csv,./stimuli/seattle.jpg,./stimuli/street_plate1.png,./stimuli/videos/hippopolis_part1.mp4,HARMONIKA UTCA,stimuli/scenes/016a.jpg,scene,1,stimuli/scenes/097a.jpg,stimuli/objects/080a.jpg,stimuli/objects/080b.jpg,stimuli/scenes/097b.jpg,stimuli/scenes/097a.jpg,dist1,dist2,lure,target,0,0,0,0,0,62,62,62,,,,,,,,,,,,,,,,,,380.016675228253,381.03734284825623,381.03734284825623,381.03734284825623,381.03734284825623,None,381.03734284825623,,,,,,,,,,,,,,,,,,,,,,,,,,,,,,ST04_112822,2022-11-29_15h12.25.396,Hippopolis_Learning,2022.2.2,59.46511613765451,
Hippopolis,stimuli/subj_files/ST04_112822_cityA.csv,./stimuli/seattle.jpg,./stimuli/street_plate1.png,./stimuli/videos/hippopolis_part1.mp4,FOLYÓ UTCA,stimuli/objects/044a.jpg,object,0,stimuli/objects/044a.jpg,stimuli/objects/044a.jpg,stimuli/objects/044b.jpg,stimuli/objects/014b.jpg,stimuli/objects/014a.jpg,target,lure,dist2,dist1,0,0,0,0,0,63,63,33,,,,,,,,,,,,,,,,,,384.03208559565246,385.0637693721801,385.0637693721801,385.0637693721801,385.0637693721801,None,,,,,,,,,,,,,,,,,,,,,,,,,,,,,,,ST04_112822,2022-11-29_15h12.25.396,Hippopolis_Learning,2022.2.2,59.46511613765451,
Hippopolis,stimuli/subj_files/ST04_112822_cityA.csv,./stimuli/seattle.jpg,./stimuli/street_plate1.png,./stimuli/videos/hippopolis_part1.mp4,SZALVÉTA UTCA,stimuli/objects/055a.jpg,object,0,stimuli/objects/055a.jpg,stimuli/scenes/088b.jpg,stimuli/scenes/088a.jpg,stimuli/objects/055a.jpg,stimuli/objects/055b.jpg,dist2,dist1,target,lure,0,0,0,0,0,64,64,49,,,,,,,,,,,,,,,,,,388.05541574023664,389.0878540184349,389.0878540184349,389.0878540184349,389.0878540184349,None,,,,,,,,,,,,,,,,,,,,,,,,,,,,,,,ST04_112822,2022-11-29_15h12.25.396,Hippopolis_Learning,2022.2.2,59.46511613765451,
Hippopolis,stimuli/subj_files/ST04_112822_cityA.csv,./stimuli/seattle.jpg,./stimuli/street_plate1.png,./stimuli/videos/hippopolis_part1.mp4,ZÁSZLÓ UTCA,stimuli/scenes/048a.jpg,scene,2,stimuli/objects/059a.jpg,stimuli/objects/059b.jpg,stimuli/objects/091a.jpg,stimuli/objects/059a.jpg,stimuli/objects/091b.jpg,lure,dist1,target,dist2,0,0,0,0,0,65,65,27,,,,,,,,,,,,,,,,,,392.06555765867233,393.0983716323972,393.0983716323972,393.0983716323972,393.0983716323972,None,393.0983716323972,,,,,,,,,,,,,,,,,,,,,,,,,,,,,,ST04_112822,2022-11-29_15h12.25.396,Hippopolis_Learning,2022.2.2,59.46511613765451,
Hippopolis,stimuli/subj_files/ST04_112822_cityA.csv,./stimuli/seattle.jpg,./stimuli/street_plate1.png,./stimuli/videos/hippopolis_part1.mp4,FEJSZE UTCA,stimuli/scenes/036a.jpg,scene,1,stimuli/scenes/044a.jpg,stimuli/objects/008b.jpg,stimuli/scenes/044a.jpg,stimuli/objects/008a.jpg,stimuli/scenes/044b.jpg,dist2,target,dist1,lure,0,0,0,0,0,66,66,43,,,,,,,,,,,,,,,,,,396.0683738216758,397.1052442509681,397.1052442509681,397.1052442509681,397.1052442509681,None,,,,,,,,,,,,,,,,,,,,,,,,,,,,,,,ST04_112822,2022-11-29_15h12.25.396,Hippopolis_Learning,2022.2.2,59.46511613765451,
Hippopolis,stimuli/subj_files/ST04_112822_cityA.csv,./stimuli/seattle.jpg,./stimuli/street_plate1.png,./stimuli/videos/hippopolis_part1.mp4,SÜTEMÉNY UTCA,stimuli/objects/101a.jpg,object,1,stimuli/objects/047a.jpg,stimuli/objects/047b.jpg,stimuli/objects/047a.jpg,stimuli/scenes/077a.jpg,stimuli/scenes/077b.jpg,lure,target,dist1,dist2,0,0,0,0,0,67,67,77,,,,,,,,,,,,,,,,,,400.0857397969812,401.1260334737599,401.1260334737599,401.1260334737599,401.1260334737599,None,,,,,,,,,,,,,,,,,,,,,,,,,,,,,,,ST04_112822,2022-11-29_15h12.25.396,Hippopolis_Learning,2022.2.2,59.46511613765451,
Hippopolis,stimuli/subj_files/ST04_112822_cityA.csv,./stimuli/seattle.jpg,./stimuli/street_plate1.png,./stimuli/videos/hippopolis_part1.mp4,PIZSAMA UTCA,stimuli/scenes/012a.jpg,scene,0,stimuli/scenes/012a.jpg,stimuli/scenes/052b.jpg,stimuli/scenes/012b.jpg,stimuli/scenes/052a.jpg,stimuli/scenes/012a.jpg,dist2,lure,dist1,target,0,0,0,0,0,68,68,20,,,,,,,,,,,,,,,,,,404.1017345432192,405.14256221987307,405.14256221987307,405.14256221987307,405.14256221987307,None,,,,,,,,,,,,,,,,,,,,,,,,,,,,,,,ST04_112822,2022-11-29_15h12.25.396,Hippopolis_Learning,2022.2.2,59.46511613765451,
Hippopolis,stimuli/subj_files/ST04_112822_cityA.csv,./stimuli/seattle.jpg,./stimuli/street_plate1.png,./stimuli/videos/hippopolis_part1.mp4,TALICSKA UTCA,stimuli/objects/015a.jpg,object,2,stimuli/scenes/074a.jpg,stimuli/scenes/074a.jpg,stimuli/scenes/074b.jpg,stimuli/objects/104b.jpg,stimuli/objects/104a.jpg,target,lure,dist2,dist1,0,0,0,0,0,69,69,15,,,,,,,,,,,,,,,,,,408.1138392239809,409.1463278848678,409.1463278848678,409.1463278848678,409.1463278848678,None,,,,,,,,,,,,,,,,,,,,,,,,,,,,,,,ST04_112822,2022-11-29_15h12.25.396,Hippopolis_Learning,2022.2.2,59.46511613765451,
Hippopolis,stimuli/subj_files/ST04_112822_cityA.csv,./stimuli/seattle.jpg,./stimuli/street_plate1.png,./stimuli/videos/hippopolis_part1.mp4,ÁLOM UTCA,stimuli/scenes/055a.jpg,scene,1,stimuli/scenes/028a.jpg,stimuli/objects/106a.jpg,stimuli/objects/106b.jpg,stimuli/scenes/028b.jpg,stimuli/scenes/028a.jpg,dist1,dist2,lure,target,0,0,0,0,0,70,70,4,,,,,,,,,,,,,,,,,,412.11601533554494,413.1483052633703,413.1483052633703,413.1483052633703,413.1483052633703,None,,,,,,,,,,,,,,,,,,,,,,,,,,,,,,,ST04_112822,2022-11-29_15h12.25.396,Hippopolis_Learning,2022.2.2,59.46511613765451,
Hippopolis,stimuli/subj_files/ST04_112822_cityA.csv,./stimuli/seattle.jpg,./stimuli/street_plate1.png,./stimuli/videos/hippopolis_part1.mp4,FÜGE UTCA,stimuli/scenes/006a.jpg,scene,0,stimuli/scenes/006a.jpg,stimuli/scenes/006b.jpg,stimuli/scenes/108a.jpg,stimuli/scenes/108b.jpg,stimuli/scenes/006a.jpg,lure,dist1,dist2,target,0,0,0,0,0,71,71,7,,,,,,,,,,,,,,,,,,416.11785276047885,417.1533874180168,417.1533874180168,417.1533874180168,417.1533874180168,None,,,,,,,,,,,,,,,,,,,,,,,,,,,,,,,ST04_112822,2022-11-29_15h12.25.396,Hippopolis_Learning,2022.2.2,59.46511613765451,
Hippopolis,stimuli/subj_files/ST04_112822_cityA.csv,./stimuli/seattle.jpg,./stimuli/street_plate1.png,./stimuli/videos/hippopolis_part1.mp4,TÜKÖR UTCA,stimuli/scenes/050a.jpg,scene,1,stimuli/scenes/070a.jpg,stimuli/objects/075b.jpg,stimuli/scenes/070b.jpg,stimuli/scenes/070a.jpg,stimuli/objects/075a.jpg,dist2,lure,target,dist1,0,0,0,0,0,72,72,1,,,,,,,,,,,,,,,,,,420.1326995845884,421.1565298270434,421.1565298270434,421.1565298270434,421.1565298270434,None,,,,,,,,,,,,,,,,,,,,,,,,,,,,,,,ST04_112822,2022-11-29_15h12.25.396,Hippopolis_Learning,2022.2.2,59.46511613765451,
Hippopolis,stimuli/subj_files/ST04_112822_cityA.csv,./stimuli/seattle.jpg,./stimuli/street_plate1.png,./stimuli/videos/hippopolis_part1.mp4,KÓKUSZ UTCA,stimuli/objects/085a.jpg,object,2,stimuli/scenes/089a.jpg,stimuli/objects/043a.jpg,stimuli/objects/043b.jpg,stimuli/scenes/089a.jpg,stimuli/scenes/089b.jpg,dist1,dist2,target,lure,0,0,0,0,0,73,73,32,,,,,,,,,,,,,,,,,,424.1498503424227,425.19392088241875,425.19392088241875,425.19392088241875,425.19392088241875,None,,,,,,,,,,,,,,,,,,,,,,,,,,,,,,,ST04_112822,2022-11-29_15h12.25.396,Hippopolis_Learning,2022.2.2,59.46511613765451,
Hippopolis,stimuli/subj_files/ST04_112822_cityA.csv,./stimuli/seattle.jpg,./stimuli/street_plate1.png,./stimuli/videos/hippopolis_part1.mp4,SZÖCSKE UTCA,stimuli/objects/116a.jpg,object,0,stimuli/objects/116a.jpg,stimuli/objects/116b.jpg,stimuli/objects/116a.jpg,stimuli/scenes/071a.jpg,stimuli/scenes/071b.jpg,lure,target,dist1,dist2,0,0,0,0,0,74,74,58,,,,,,,,,,,,,,,,,,428.16438180580735,429.196535512805,429.196535512805,429.196535512805,429.196535512805,None,,,,,,,,,,,,,,,,,,,,,,,,,,,,,,,ST04_112822,2022-11-29_15h12.25.396,Hippopolis_Learning,2022.2.2,59.46511613765451,
Hippopolis,stimuli/subj_files/ST04_112822_cityA.csv,./stimuli/seattle.jpg,./stimuli/street_plate1.png,./stimuli/videos/hippopolis_part1.mp4,ORVOS UTCA,stimuli/scenes/037a.jpg,scene,0,stimuli/scenes/037a.jpg,stimuli/objects/097a.jpg,stimuli/scenes/037b.jpg,stimuli/scenes/037a.jpg,stimuli/objects/097b.jpg,dist1,lure,target,dist2,0,0,0,0,0,75,75,74,,,,,,,,,,,,,,,,,,432.1802325565368,433.2044552899897,433.2044552899897,433.2044552899897,433.2044552899897,None,,,,,,,,,,,,,,,,,,,,,,,,,,,,,,,ST04_112822,2022-11-29_15h12.25.396,Hippopolis_Learning,2022.2.2,59.46511613765451,
Hippopolis,stimuli/subj_files/ST04_112822_cityA.csv,./stimuli/seattle.jpg,./stimuli/street_plate1.png,./stimuli/videos/hippopolis_part1.mp4,LÉTRA UTCA,stimuli/scenes/034a.jpg,scene,1,stimuli/scenes/040a.jpg,stimuli/scenes/040a.jpg,stimuli/scenes/080a.jpg,stimuli/scenes/040b.jpg,stimuli/scenes/080b.jpg,target,dist1,lure,dist2,0,0,0,0,0,76,76,18,,,,,,,,,,,,,,,,,,436.1926846317947,437.22835177741945,437.22835177741945,437.22835177741945,437.22835177741945,None,,,,,,,,,,,,,,,,,,,,,,,,,,,,,,,ST04_112822,2022-11-29_15h12.25.396,Hippopolis_Learning,2022.2.2,59.46511613765451,
Hippopolis,stimuli/subj_files/ST04_112822_cityA.csv,./stimuli/seattle.jpg,./stimuli/street_plate1.png,./stimuli/videos/hippopolis_part1.mp4,SUGÁR UTCA,stimuli/objects/042a.jpg,object,1,stimuli/objects/080a.jpg,stimuli/objects/094b.jpg,stimuli/objects/094a.jpg,stimuli/objects/080a.jpg,stimuli/objects/080b.jpg,dist2,dist1,target,lure,0,0,0,0,0,77,77,60,,,,,,,,,,,,,,,,,,440.20902148634195,441.2536325547844,441.2536325547844,441.2536325547844,441.2536325547844,None,,,,,,,,,,,,,,,,,,,,,,,,,,,,,,,ST04_112822,2022-11-29_15h12.25.396,Hippopolis_Learning,2022.2.2,59.46511613765451,
Hippopolis,stimuli/subj_files/ST04_112822_cityA.csv,./stimuli/seattle.jpg,./stimuli/street_plate1.png,./stimuli/videos/hippopolis_part1.mp4,KOSÁR UTCA,stimuli/objects/111a.jpg,object,1,stimuli/objects/024a.jpg,stimuli/objects/024a.jpg,stimuli/objects/024b.jpg,stimuli/scenes/111a.jpg,stimuli/scenes/111b.jpg,target,lure,dist1,dist2,0,0,0,0,0,78,78,25,,,,,,,,,,,,,,,,,,444.2176621761173,445.26633685454726,445.26633685454726,445.26633685454726,445.26633685454726,None,,,,,,,,,,,,,,,,,,,,,,,,,,,,,,,ST04_112822,2022-11-29_15h12.25.396,Hippopolis_Learning,2022.2.2,59.46511613765451,
Hippopolis,stimuli/subj_files/ST04_112822_cityA.csv,./stimuli/seattle.jpg,./stimuli/street_plate1.png,./stimuli/videos/hippopolis_part1.mp4,LIGET UTCA,stimuli/objects/029a.jpg,object,2,stimuli/scenes/021a.jpg,stimuli/scenes/021b.jpg,stimuli/scenes/021a.jpg,stimuli/scenes/086b.jpg,stimuli/scenes/086a.jpg,lure,target,dist2,dist1,0,0,0,0,0,79,79,38,,,,,,,,,,,,,,,,,,448.22934979759157,449.26514538936317,449.26514538936317,449.26514538936317,449.26514538936317,None,,,,,,,,,,,,,,,,,,,,,,,,,,,,,,,ST04_112822,2022-11-29_15h12.25.396,Hippopolis_Learning,2022.2.2,59.46511613765451,
Hippopolis,stimuli/subj_files/ST04_112822_cityA.csv,./stimuli/seattle.jpg,./stimuli/street_plate1.png,./stimuli/videos/hippopolis_part1.mp4,FEJSZE UTCA,stimuli/scenes/036a.jpg,scene,1,stimuli/scenes/044a.jpg,stimuli/objects/008b.jpg,stimuli/scenes/044a.jpg,stimuli/objects/008a.jpg,stimuli/scenes/044b.jpg,dist2,target,dist1,lure,0,0,0,0,,,,,0,0,0,43,,,,,,,,,,,,,,471.53834522143006,,,,,,472.5578950829804,,,,452.22985455952585,452.22985455952585,space,15.439384864643216,467.7380306068808,467.7380306068808,467.7380306068808,467.7380306068808,467.7380306068808,467.7380306068808,left,3.75471331179142,None,,,,,,,,,,,,,,ST04_112822,2022-11-29_15h12.25.396,Hippopolis_Learning,2022.2.2,59.46511613765451,
Hippopolis,stimuli/subj_files/ST04_112822_cityA.csv,./stimuli/seattle.jpg,./stimuli/street_plate1.png,./stimuli/videos/hippopolis_part1.mp4,BAGOLY UTCA,stimuli/scenes/108a.jpg,scene,0,stimuli/scenes/108a.jpg,stimuli/scenes/006b.jpg,stimuli/scenes/108b.jpg,stimuli/scenes/108a.jpg,stimuli/scenes/006a.jpg,dist2,lure,target,dist1,0,0,0,0,,,,,0,1,1,78,,,,,,,,,,,,,,474.39058297500014,,,,,,,,,,,,,,472.5578950829804,472.5578950829804,472.5578950829804,472.5578950829804,472.5578950829804,472.5578950829804,left,1.7985558845102787,None,,,,,,,,,,,,,,ST04_112822,2022-11-29_15h12.25.396,Hippopolis_Learning,2022.2.2,59.46511613765451,
Hippopolis,stimuli/subj_files/ST04_112822_cityA.csv,./stimuli/seattle.jpg,./stimuli/street_plate1.png,./stimuli/videos/hippopolis_part1.mp4,LIGET UTCA,stimuli/objects/029a.jpg,object,2,stimuli/scenes/021a.jpg,stimuli/scenes/021b.jpg,stimuli/scenes/021a.jpg,stimuli/scenes/086b.jpg,stimuli/scenes/086a.jpg,lure,target,dist2,dist1,0,0,0,0,,,,,0,2,2,38,,,,,,,,,,,,,,498.7794886920601,,,,,,,,,,,,,,475.4265580177307,475.4265580177307,475.4265580177307,475.4265580177307,475.4265580177307,475.4265580177307,right,2.578449508175254,space,478.0534417834133,478.0534417834133,478.0534417834133,478.0534417834133,478.0534417834133,20.70318359695375,,,,,,,,ST04_112822,2022-11-29_15h12.25.396,Hippopolis_Learning,2022.2.2,59.46511613765451,
Hippopolis,stimuli/subj_files/ST04_112822_cityA.csv,./stimuli/seattle.jpg,./stimuli/street_plate1.png,./stimuli/videos/hippopolis_part1.mp4,ÁLOM UTCA,stimuli/scenes/055a.jpg,scene,1,stimuli/scenes/028a.jpg,stimuli/objects/106a.jpg,stimuli/objects/106b.jpg,stimuli/scenes/028b.jpg,stimuli/scenes/028a.jpg,dist1,dist2,lure,target,0,0,0,0,,,,,0,3,3,4,,,,,,,,,,,,,,502.38974232412875,,,,,,,,,,,,,,499.8094267901033,499.8094267901033,499.8094267901033,499.8094267901033,499.8094267901033,499.8094267901033,right,2.5473401602357626,None,,,,,,,,,,,,,,ST04_112822,2022-11-29_15h12.25.396,Hippopolis_Learning,2022.2.2,59.46511613765451,
Hippopolis,stimuli/subj_files/ST04_112822_cityA.csv,./stimuli/seattle.jpg,./stimuli/street_plate1.png,./stimuli/videos/hippopolis_part1.mp4,KOSÁR UTCA,stimuli/objects/111a.jpg,object,1,stimuli/objects/024a.jpg,stimuli/objects/024a.jpg,stimuli/objects/024b.jpg,stimuli/scenes/111a.jpg,stimuli/scenes/111b.jpg,target,lure,dist1,dist2,0,0,0,0,,,,,0,4,4,25,,,,,,,,,,,,,,506.64646379463375,,,,,,,,,,,,,,503.4180737622082,503.4180737622082,503.4180737622082,503.4180737622082,503.4180737622082,503.4180737622082,left,3.1787950973957777,None,,,,,,,,,,,,,,ST04_112822,2022-11-29_15h12.25.396,Hippopolis_Learning,2022.2.2,59.46511613765451,
Hippopolis,stimuli/subj_files/ST04_112822_cityA.csv,./stimuli/seattle.jpg,./stimuli/street_plate1.png,./stimuli/videos/hippopolis_part1.mp4,ZEBRA UTCA,stimuli/objects/033a.jpg,object,0,stimuli/objects/033a.jpg,stimuli/objects/033b.jpg,stimuli/objects/033a.jpg,stimuli/objects/095b.jpg,stimuli/objects/095a.jpg,lure,target,dist2,dist1,0,0,0,0,,,,,0,5,5,70,,,,,,,,,,,,,,509.12456770054996,,,,,,,,,,,,,,507.6779065411538,507.6779065411538,507.6779065411538,507.6779065411538,507.6779065411538,507.6779065411538,left,1.3984669987112284,None,,,,,,,,,,,,,,ST04_112822,2022-11-29_15h12.25.396,Hippopolis_Learning,2022.2.2,59.46511613765451,
Hippopolis,stimuli/subj_files/ST04_112822_cityA.csv,./stimuli/seattle.jpg,./stimuli/street_plate1.png,./stimuli/videos/hippopolis_part1.mp4,KESELYŰ UTCA,stimuli/scenes/046a.jpg,scene,2,stimuli/objects/061a.jpg,stimuli/scenes/081b.jpg,stimuli/objects/061b.jpg,stimuli/scenes/081a.jpg,stimuli/objects/061a.jpg,dist2,lure,dist1,target,0,0,0,0,,,,,0,6,6,75,,,,,,,,,,,,,,511.4119236115366,,,,,,,,,,,,,,510.1458713263273,510.1458713263273,510.1458713263273,510.1458713263273,510.1458713263273,510.1458713263273,right,1.219069492071867,None,,,,,,,,,,,,,,ST04_112822,2022-11-29_15h12.25.396,Hippopolis_Learning,2022.2.2,59.46511613765451,
Hippopolis,stimuli/subj_files/ST04_112822_cityA.csv,./stimuli/seattle.jpg,./stimuli/street_plate1.png,./stimuli/videos/hippopolis_part1.mp4,KÓKUSZ UTCA,stimuli/objects/085a.jpg,object,2,stimuli/scenes/089a.jpg,stimuli/objects/043a.jpg,stimuli/objects/043b.jpg,stimuli/scenes/089a.jpg,stimuli/scenes/089b.jpg,dist1,dist2,target,lure,0,0,0,0,,,,,0,7,7,32,,,,,,,,,,,,,,513.8745748531073,,,,,,,,,,,,,,512.4403523951769,512.4403523951769,512.4403523951769,512.4403523951769,512.4403523951769,512.4403523951769,left,1.3882463965564966,None,,,,,,,,,,,,,,ST04_112822,2022-11-29_15h12.25.396,Hippopolis_Learning,2022.2.2,59.46511613765451,
Hippopolis,stimuli/subj_files/ST04_112822_cityA.csv,./stimuli/seattle.jpg,./stimuli/street_plate1.png,./stimuli/videos/hippopolis_part1.mp4,SZAXOFON UTCA,stimuli/scenes/011a.jpg,scene,2,stimuli/objects/039a.jpg,stimuli/objects/039a.jpg,stimuli/objects/039b.jpg,stimuli/scenes/023b.jpg,stimuli/scenes/023a.jpg,target,lure,dist2,dist1,0,0,0,0,,,,,0,8,8,29,,,,,,,,,,,,,,518.8792707398534,,,,,,,,,,,,,,514.8988072276115,514.8988072276115,514.8988072276115,514.8988072276115,514.8988072276115,514.8988072276115,right,3.9379019867628813,None,,,,,,,,,,,,,,ST04_112822,2022-11-29_15h12.25.396,Hippopolis_Learning,2022.2.2,59.46511613765451,
Hippopolis,stimuli/subj_files/ST04_112822_cityA.csv,./stimuli/seattle.jpg,./stimuli/street_plate1.png,./stimuli/videos/hippopolis_part1.mp4,TIGRIS UTCA,stimuli/objects/041a.jpg,object,2,stimuli/scenes/086a.jpg,stimuli/scenes/086b.jpg,stimuli/scenes/024a.jpg,stimuli/scenes/024b.jpg,stimuli/scenes/086a.jpg,lure,dist1,dist2,target,0,0,0,0,,,,,0,9,9,57,,,,,,,,,,,,,,521.8791662417352,,,,,,,,,,,,,,519.9015359971672,519.9015359971672,519.9015359971672,519.9015359971672,519.9015359971672,519.9015359971672,left,1.943000003695488,None,,,,,,,,,,,,,,ST04_112822,2022-11-29_15h12.25.396,Hippopolis_Learning,2022.2.2,59.46511613765451,
Hippopolis,stimuli/subj_files/ST04_112822_cityA.csv,./stimuli/seattle.jpg,./stimuli/street_plate1.png,./stimuli/videos/hippopolis_part1.mp4,SIVATAG UTCA,stimuli/scenes/051a.jpg,scene,1,stimuli/scenes/079a.jpg,stimuli/objects/045a.jpg,stimuli/objects/045b.jpg,stimuli/scenes/079a.jpg,stimuli/scenes/079b.jpg,dist1,dist2,target,lure,0,0,0,0,,,,,0,10,10,46,,,,,,,,,,,,,,525.171488923952,,,,,,526.1918514445424,,,,,,,,522.9045991003513,522.9045991003513,522.9045991003513,522.9045991003513,522.9045991003513,522.9045991003513,left,2.23551551066339,None,,,,,,,,,,,,,,ST04_112822,2022-11-29_15h12.25.396,Hippopolis_Learning,2022.2.2,59.46511613765451,
Hippopolis,stimuli/subj_files/ST04_112822_cityA.csv,./stimuli/seattle.jpg,./stimuli/street_plate1.png,./stimuli/videos/hippopolis_part1.mp4,HORGONY UTCA,stimuli/objects/050a.jpg,object,0,stimuli/objects/050a.jpg,stimuli/objects/050a.jpg,stimuli/scenes/012a.jpg,stimuli/objects/050b.jpg,stimuli/scenes/012b.jpg,target,dist1,lure,dist2,0,0,0,0,,,,,0,11,11,67,,,,,,,,,,,,,,527.3858827352524,,,,,,,,,,,,,,526.1918514445424,526.1918514445424,526.1918514445424,526.1918514445424,526.1918514445424,526.1918514445424,left,1.156736658886075,None,,,,,,,,,,,,,,ST04_112822,2022-11-29_15h12.25.396,Hippopolis_Learning,2022.2.2,59.46511613765451,
Hippopolis,stimuli/subj_files/ST04_112822_cityA.csv,./stimuli/seattle.jpg,./stimuli/street_plate1.png,./stimuli/videos/hippopolis_part1.mp4,KÖTÉL UTCA,stimuli/objects/078a.jpg,object,2,stimuli/scenes/018a.jpg,stimuli/scenes/018b.jpg,stimuli/scenes/018a.jpg,stimuli/objects/013b.jpg,stimuli/objects/013a.jpg,lure,target,dist2,dist1,0,0,0,0,,,,,0,12,12,37,,,,,,,,,,,,,,530.4899165499955,,,,,,,,,,,,,,528.4193806108087,528.4193806108087,528.4193806108087,528.4193806108087,528.4193806108087,528.4193806108087,right,2.032907908782363,None,,,,,,,,,,,,,,ST04_112822,2022-11-29_15h12.25.396,Hippopolis_Learning,2022.2.2,59.46511613765451,
Hippopolis,stimuli/subj_files/ST04_112822_cityA.csv,./stimuli/seattle.jpg,./stimuli/street_plate1.png,./stimuli/videos/hippopolis_part1.mp4,KORONA UTCA,stimuli/scenes/025a.jpg,scene,2,stimuli/objects/104a.jpg,stimuli/scenes/074a.jpg,stimuli/objects/104a.jpg,stimuli/objects/104b.jpg,stimuli/scenes/074b.jpg,dist1,target,lure,dist2,0,0,0,0,,,,,0,13,13,17,,,,,,,,,,,,,,532.8979647103697,,,,,,,,,,,,,,531.5229012649506,531.5229012649506,531.5229012649506,531.5229012649506,531.5229012649506,531.5229012649506,left,1.3457507938146591,None,,,,,,,,,,,,,,ST04_112822,2022-11-29_15h12.25.396,Hippopolis_Learning,2022.2.2,59.46511613765451,
Hippopolis,stimuli/subj_files/ST04_112822_cityA.csv,./stimuli/seattle.jpg,./stimuli/street_plate1.png,./stimuli/videos/hippopolis_part1.mp4,MARTINI UTCA,stimuli/objects/026a.jpg,object,2,stimuli/scenes/058a.jpg,stimuli/objects/088a.jpg,stimuli/objects/088b.jpg,stimuli/scenes/058b.jpg,stimuli/scenes/058a.jpg,dist1,dist2,lure,target,0,0,0,0,,,,,0,14,14,13,,,,,,,,,,,,,,540.9962231367826,,,,,,,,,,,,,,533.9221840221435,533.9221840221435,533.9221840221435,533.9221840221435,533.9221840221435,533.9221840221435,right,1.7940836139023304,space,535.7726701889187,535.7726701889187,535.7726701889187,535.7726701889187,535.7726701889187,5.1914067175239325,,,,,,,,ST04_112822,2022-11-29_15h12.25.396,Hippopolis_Learning,2022.2.2,59.46511613765451,
Hippopolis,stimuli/subj_files/ST04_112822_cityA.csv,./stimuli/seattle.jpg,./stimuli/street_plate1.png,./stimuli/videos/hippopolis_part1.mp4,SALÁTA UTCA,stimuli/objects/034a.jpg,object,1,stimuli/objects/109a.jpg,stimuli/objects/109a.jpg,stimuli/objects/109b.jpg,stimuli/scenes/112a.jpg,stimuli/scenes/112b.jpg,target,lure,dist1,dist2,0,0,0,0,,,,,0,15,15,45,,,,,,,,,,,,,,543.8585866373032,,,,,,,,,,,,,,542.0226334892213,542.0226334892213,542.0226334892213,542.0226334892213,542.0226334892213,542.0226334892213,right,1.7891557160764933,None,,,,,,,,,,,,,,ST04_112822,2022-11-29_15h12.25.396,Hippopolis_Learning,2022.2.2,59.46511613765451,
Hippopolis,stimuli/subj_files/ST04_112822_cityA.csv,./stimuli/seattle.jpg,./stimuli/street_plate1.png,./stimuli/videos/hippopolis_part1.mp4,TALICSKA UTCA,stimuli/objects/015a.jpg,object,2,stimuli/scenes/074a.jpg,stimuli/scenes/074a.jpg,stimuli/scenes/074b.jpg,stimuli/objects/104b.jpg,stimuli/objects/104a.jpg,target,lure,dist2,dist1,0,0,0,0,,,,,0,16,16,15,,,,,,,,,,,,,,546.6883370727301,,,,,,,,,,,,,,544.8795637078583,544.8795637078583,544.8795637078583,544.8795637078583,544.8795637078583,544.8795637078583,right,1.7803679183125496,None,,,,,,,,,,,,,,ST04_112822,2022-11-29_15h12.25.396,Hippopolis_Learning,2022.2.2,59.46511613765451,
Hippopolis,stimuli/subj_files/ST04_112822_cityA.csv,./stimuli/seattle.jpg,./stimuli/street_plate1.png,./stimuli/videos/hippopolis_part1.mp4,SÜTEMÉNY UTCA,stimuli/objects/101a.jpg,object,1,stimuli/objects/047a.jpg,stimuli/objects/047b.jpg,stimuli/objects/047a.jpg,stimuli/scenes/077a.jpg,stimuli/scenes/077b.jpg,lure,target,dist1,dist2,0,0,0,0,,,,,0,17,17,77,,,,,,,,,,,,,,549.0847321357578,,,,,,,,,,,,,,547.7231673002243,547.7231673002243,547.7231673002243,547.7231673002243,547.7231673002243,547.7231673002243,right,1.3213710021227598,None,,,,,,,,,,,,,,ST04_112822,2022-11-29_15h12.25.396,Hippopolis_Learning,2022.2.2,59.46511613765451,
Hippopolis,stimuli/subj_files/ST04_112822_cityA.csv,./stimuli/seattle.jpg,./stimuli/street_plate1.png,./stimuli/videos/hippopolis_part1.mp4,SUGÁR UTCA,stimuli/objects/042a.jpg,object,1,stimuli/objects/080a.jpg,stimuli/objects/094b.jpg,stimuli/objects/094a.jpg,stimuli/objects/080a.jpg,stimuli/objects/080b.jpg,dist2,dist1,target,lure,0,0,0,0,,,,,0,18,18,60,,,,,,,,,,,,,,552.0802533328533,,,,,,,,,,,,,,550.1058547571301,550.1058547571301,550.1058547571301,550.1058547571301,550.1058547571301,550.1058547571301,left,1.9301874730736017,None,,,,,,,,,,,,,,ST04_112822,2022-11-29_15h12.25.396,Hippopolis_Learning,2022.2.2,59.46511613765451,
Hippopolis,stimuli/subj_files/ST04_112822_cityA.csv,./stimuli/seattle.jpg,./stimuli/street_plate1.png,./stimuli/videos/hippopolis_part1.mp4,SZÖCSKE UTCA,stimuli/objects/116a.jpg,object,0,stimuli/objects/116a.jpg,stimuli/objects/116b.jpg,stimuli/objects/116a.jpg,stimuli/scenes/071a.jpg,stimuli/scenes/071b.jpg,lure,target,dist1,dist2,0,0,0,0,,,,,0,19,19,58,,,,,,,,,,,,,,554.3472852874547,,,,,,,,,,,,,,553.10645593144,553.10645593144,553.10645593144,553.10645593144,553.10645593144,553.10645593144,left,1.1853483133018017,None,,,,,,,,,,,,,,ST04_112822,2022-11-29_15h12.25.396,Hippopolis_Learning,2022.2.2,59.46511613765451,
Hippopolis,stimuli/subj_files/ST04_112822_cityA.csv,./stimuli/seattle.jpg,./stimuli/street_plate1.png,./stimuli/videos/hippopolis_part1.mp4,TELEFON UTCA,stimuli/scenes/116a.jpg,scene,0,stimuli/scenes/116a.jpg,stimuli/scenes/116a.jpg,stimuli/objects/084a.jpg,stimuli/scenes/116b.jpg,stimuli/objects/084b.jpg,target,dist1,lure,dist2,0,0,0,0,,,,,0,20,20,0,,,,,,,,,,,,,,557.6007449217141,,,,,,,,,,,,,,555.3826149906963,555.3826149906963,555.3826149906963,555.3826149906963,555.3826149906963,555.3826149906963,left,2.1736053340137005,None,,,,,,,,,,,,,,ST04_112822,2022-11-29_15h12.25.396,Hippopolis_Learning,2022.2.2,59.46511613765451,
Hippopolis,stimuli/subj_files/ST04_112822_cityA.csv,./stimuli/seattle.jpg,./stimuli/street_plate1.png,./stimuli/videos/hippopolis_part1.mp4,KÖTÉNY UTCA,stimuli/objects/114a.jpg,object,0,stimuli/objects/114a.jpg,stimuli/scenes/116b.jpg,stimuli/objects/114b.jpg,stimuli/objects/114a.jpg,stimuli/scenes/116a.jpg,dist2,lure,target,dist1,0,0,0,0,,,,,0,21,21,3,,,,,,,,,,,,,,561.4289126470685,,,,,,,,,,,,,,558.6159596648067,558.6159596648067,558.6159596648067,558.6159596648067,558.6159596648067,558.6159596648067,left,2.764066830277443,None,,,,,,,,,,,,,,ST04_112822,2022-11-29_15h12.25.396,Hippopolis_Learning,2022.2.2,59.46511613765451,
Hippopolis,stimuli/subj_files/ST04_112822_cityA.csv,./stimuli/seattle.jpg,./stimuli/street_plate1.png,./stimuli/videos/hippopolis_part1.mp4,BOHÓC UTCA,stimuli/scenes/113a.jpg,scene,2,stimuli/objects/013a.jpg,stimuli/scenes/100b.jpg,stimuli/objects/013b.jpg,stimuli/objects/013a.jpg,stimuli/scenes/100a.jpg,dist2,lure,target,dist1,0,0,0,0,,,,,0,22,22,23,,,,,,,,,,,,,,563.3838870059699,,,,,,,,,,,,,,562.4557403679937,562.4557403679937,562.4557403679937,562.4557403679937,562.4557403679937,562.4557403679937,left,0.8924767039716244,None,,,,,,,,,,,,,,ST04_112822,2022-11-29_15h12.25.396,Hippopolis_Learning,2022.2.2,59.46511613765451,
Hippopolis,stimuli/subj_files/ST04_112822_cityA.csv,./stimuli/seattle.jpg,./stimuli/street_plate1.png,./stimuli/videos/hippopolis_part1.mp4,BÚJÓCSKA UTCA,stimuli/scenes/088a.jpg,scene,0,stimuli/scenes/088a.jpg,stimuli/scenes/088b.jpg,stimuli/scenes/037b.jpg,stimuli/scenes/037a.jpg,stimuli/scenes/088a.jpg,lure,dist2,dist1,target,0,0,0,0,,,,,0,23,23,79,,,,,,,,,,,,,,565.2728838492185,,,,,,,,,,,,,,564.4139261804521,564.4139261804521,564.4139261804521,564.4139261804521,564.4139261804521,564.4139261804521,left,0.8214195184409618,None,,,,,,,,,,,,,,ST04_112822,2022-11-29_15h12.25.396,Hippopolis_Learning,2022.2.2,59.46511613765451,
Hippopolis,stimuli/subj_files/ST04_112822_cityA.csv,./stimuli/seattle.jpg,./stimuli/street_plate1.png,./stimuli/videos/hippopolis_part1.mp4,PIZSAMA UTCA,stimuli/scenes/012a.jpg,scene,0,stimuli/scenes/012a.jpg,stimuli/scenes/052b.jpg,stimuli/scenes/012b.jpg,stimuli/scenes/052a.jpg,stimuli/scenes/012a.jpg,dist2,lure,dist1,target,0,0,0,0,,,,,0,24,24,20,,,,,,,,,,,,,,567.3370429128408,,,,,,,,,,,,,,566.3062747400254,566.3062747400254,566.3062747400254,566.3062747400254,566.3062747400254,566.3062747400254,left,0.9774439614266157,None,,,,,,,,,,,,,,ST04_112822,2022-11-29_15h12.25.396,Hippopolis_Learning,2022.2.2,59.46511613765451,
Hippopolis,stimuli/subj_files/ST04_112822_cityA.csv,./stimuli/seattle.jpg,./stimuli/street_plate1.png,./stimuli/videos/hippopolis_part1.mp4,PULÓVER UTCA,stimuli/objects/093a.jpg,object,1,stimuli/objects/106a.jpg,stimuli/objects/106b.jpg,stimuli/objects/106a.jpg,stimuli/objects/076b.jpg,stimuli/objects/076a.jpg,lure,target,dist2,dist1,0,0,0,0,,,,,0,25,25,42,,,,,,,,,,,,,,570.5553389210254,,,,,,,,,,,,,,568.355671884492,568.355671884492,568.355671884492,568.355671884492,568.355671884492,568.355671884492,right,2.1442901827394962,None,,,,,,,,,,,,,,ST04_112822,2022-11-29_15h12.25.396,Hippopolis_Learning,2022.2.2,59.46511613765451,
Hippopolis,stimuli/subj_files/ST04_112822_cityA.csv,./stimuli/seattle.jpg,./stimuli/street_plate1.png,./stimuli/videos/hippopolis_part1.mp4,KAKAS UTCA,stimuli/objects/110a.jpg,object,1,stimuli/objects/052a.jpg,stimuli/objects/052a.jpg,stimuli/objects/024b.jpg,stimuli/objects/052b.jpg,stimuli/objects/024a.jpg,target,dist2,lure,dist1,0,0,0,0,,,,,0,26,26,2,,,,,,,,,,,,,,572.9300363119692,,,,,,,,,,,,,,571.5719970464706,571.5719970464706,571.5719970464706,571.5719970464706,571.5719970464706,571.5719970464706,left,1.3119182735681534,None,,,,,,,,,,,,,,ST04_112822,2022-11-29_15h12.25.396,Hippopolis_Learning,2022.2.2,59.46511613765451,
Hippopolis,stimuli/subj_files/ST04_112822_cityA.csv,./stimuli/seattle.jpg,./stimuli/street_plate1.png,./stimuli/videos/hippopolis_part1.mp4,FÜGE UTCA,stimuli/scenes/006a.jpg,scene,0,stimuli/scenes/006a.jpg,stimuli/scenes/006b.jpg,stimuli/scenes/108a.jpg,stimuli/scenes/108b.jpg,stimuli/scenes/006a.jpg,lure,dist1,dist2,target,0,0,0,0,,,,,0,27,27,7,,,,,,,,,,,,,,574.8716380205005,,,,,,,,,,,,,,573.9620768129826,573.9620768129826,573.9620768129826,573.9620768129826,573.9620768129826,573.9620768129826,left,0.8741291929036379,None,,,,,,,,,,,,,,ST04_112822,2022-11-29_15h12.25.396,Hippopolis_Learning,2022.2.2,59.46511613765451,
Hippopolis,stimuli/subj_files/ST04_112822_cityA.csv,./stimuli/seattle.jpg,./stimuli/street_plate1.png,./stimuli/videos/hippopolis_part1.mp4,SZOBOR UTCA,stimuli/scenes/003a.jpg,scene,1,stimuli/scenes/010a.jpg,stimuli/scenes/010b.jpg,stimuli/objects/119a.jpg,stimuli/objects/119b.jpg,stimuli/scenes/010a.jpg,lure,dist1,dist2,target,0,0,0,0,,,,,0,28,28,41,,,,,,,,,,,,,,588.2044360078871,,,,,,,,,,,,,,575.9054182898253,575.9054182898253,575.9054182898253,575.9054182898253,575.9054182898253,575.9054182898253,right,3.4906262792646885,space,579.4423024039716,579.4423024039716,579.4423024039716,579.4423024039716,579.4423024039716,8.720978138968349,,,,,,,,ST04_112822,2022-11-29_15h12.25.396,Hippopolis_Learning,2022.2.2,59.46511613765451,
Hippopolis,stimuli/subj_files/ST04_112822_cityA.csv,./stimuli/seattle.jpg,./stimuli/street_plate1.png,./stimuli/videos/hippopolis_part1.mp4,ZÁSZLÓ UTCA,stimuli/scenes/048a.jpg,scene,2,stimuli/objects/059a.jpg,stimuli/objects/059b.jpg,stimuli/objects/091a.jpg,stimuli/objects/059a.jpg,stimuli/objects/091b.jpg,lure,dist1,target,dist2,0,0,0,0,,,,,0,29,29,27,,,,,,,,,,,,,,590.1942017208785,,,,,,,,,,,,,,589.2368459831923,589.2368459831923,589.2368459831923,589.2368459831923,589.2368459831923,589.2368459831923,left,0.9108235947787762,None,,,,,,,,,,,,,,ST04_112822,2022-11-29_15h12.25.396,Hippopolis_Learning,2022.2.2,59.46511613765451,
Hippopolis,stimuli/subj_files/ST04_112822_cityA.csv,./stimuli/seattle.jpg,./stimuli/street_plate1.png,./stimuli/videos/hippopolis_part1.mp4,KÍGYÓ UTCA,stimuli/scenes/052a.jpg,scene,0,stimuli/scenes/052a.jpg,stimuli/scenes/093b.jpg,stimuli/scenes/093a.jpg,stimuli/scenes/052b.jpg,stimuli/scenes/052a.jpg,dist2,dist1,lure,target,0,0,0,0,,,,,0,30,30,44,,,,,,,,,,,,,,592.2462517507374,,,,,,,,,,,,,,591.2195195071399,591.2195195071399,591.2195195071399,591.2195195071399,591.2195195071399,591.2195195071399,right,0.9760621599853039,None,,,,,,,,,,,,,,ST04_112822,2022-11-29_15h12.25.396,Hippopolis_Learning,2022.2.2,59.46511613765451,
Hippopolis,stimuli/subj_files/ST04_112822_cityA.csv,./stimuli/seattle.jpg,./stimuli/street_plate1.png,./stimuli/videos/hippopolis_part1.mp4,SZALVÉTA UTCA,stimuli/objects/055a.jpg,object,0,stimuli/objects/055a.jpg,stimuli/scenes/088b.jpg,stimuli/scenes/088a.jpg,stimuli/objects/055a.jpg,stimuli/objects/055b.jpg,dist2,dist1,target,lure,0,0,0,0,,,,,0,31,31,49,,,,,,,,,,,,,,594.5885058864951,,,,,,,,,,,,,,593.2706617079675,593.2706617079675,593.2706617079675,593.2706617079675,593.2706617079675,593.2706617079675,left,1.2766927555203438,None,,,,,,,,,,,,,,ST04_112822,2022-11-29_15h12.25.396,Hippopolis_Learning,2022.2.2,59.46511613765451,
Hippopolis,stimuli/subj_files/ST04_112822_cityA.csv,./stimuli/seattle.jpg,./stimuli/street_plate1.png,./stimuli/videos/hippopolis_part1.mp4,LEGELŐ UTCA,stimuli/scenes/082a.jpg,scene,1,stimuli/scenes/080a.jpg,stimuli/scenes/080a.jpg,stimuli/scenes/080b.jpg,stimuli/objects/092a.jpg,stimuli/objects/092b.jpg,target,lure,dist1,dist2,0,0,0,0,,,,,0,32,32,6,,,,,,,,,,,,,,597.2946608290076,,,,,,,,,,,,,,595.6214072536677,595.6214072536677,595.6214072536677,595.6214072536677,595.6214072536677,595.6214072536677,left,1.6461929194629192,None,,,,,,,,,,,,,,ST04_112822,2022-11-29_15h12.25.396,Hippopolis_Learning,2022.2.2,59.46511613765451,
Hippopolis,stimuli/subj_files/ST04_112822_cityA.csv,./stimuli/seattle.jpg,./stimuli/street_plate1.png,./stimuli/videos/hippopolis_part1.mp4,REPÜLŐ UTCA,stimuli/scenes/075a.jpg,scene,2,stimuli/objects/019a.jpg,stimuli/objects/019b.jpg,stimuli/scenes/031a.jpg,stimuli/objects/019a.jpg,stimuli/scenes/031b.jpg,lure,dist1,target,dist2,0,0,0,0,,,,,0,33,33,73,,,,,,,,,,,,,,599.8952126149088,,,,,,,,,,,,,,598.3257098402828,598.3257098402828,598.3257098402828,598.3257098402828,598.3257098402828,598.3257098402828,left,1.5333007089793682,None,,,,,,,,,,,,,,ST04_112822,2022-11-29_15h12.25.396,Hippopolis_Learning,2022.2.2,59.46511613765451,
Hippopolis,stimuli/subj_files/ST04_112822_cityA.csv,./stimuli/seattle.jpg,./stimuli/street_plate1.png,./stimuli/videos/hippopolis_part1.mp4,TENISZ UTCA,stimuli/scenes/090a.jpg,scene,1,stimuli/scenes/112a.jpg,stimuli/objects/047b.jpg,stimuli/scenes/112a.jpg,stimuli/objects/047a.jpg,stimuli/scenes/112b.jpg,dist2,target,dist1,lure,0,0,0,0,,,,,0,34,34,72,,,,,,,,,,,,,,601.8255176376551,,,,,,,,,,,,,,600.9212858360261,600.9212858360261,600.9212858360261,600.9212858360261,600.9212858360261,600.9212858360261,left,0.8741419445723295,None,,,,,,,,,,,,,,ST04_112822,2022-11-29_15h12.25.396,Hippopolis_Learning,2022.2.2,59.46511613765451,
Hippopolis,stimuli/subj_files/ST04_112822_cityA.csv,./stimuli/seattle.jpg,./stimuli/street_plate1.png,./stimuli/videos/hippopolis_part1.mp4,KUTYA UTCA,stimuli/objects/065a.jpg,object,2,stimuli/scenes/024a.jpg,stimuli/scenes/109b.jpg,stimuli/scenes/024b.jpg,stimuli/scenes/024a.jpg,stimuli/scenes/109a.jpg,dist2,lure,target,dist1,0,0,0,0,,,,,0,35,35,10,,,,,,,,,,,,,,603.6966070439667,,,,,,,,,,,,,,602.8561959303916,602.8561959303916,602.8561959303916,602.8561959303916,602.8561959303916,602.8561959303916,left,0.7950315605849028,None,,,,,,,,,,,,,,ST04_112822,2022-11-29_15h12.25.396,Hippopolis_Learning,2022.2.2,59.46511613765451,
Hippopolis,stimuli/subj_files/ST04_112822_cityA.csv,./stimuli/seattle.jpg,./stimuli/street_plate1.png,./stimuli/videos/hippopolis_part1.mp4,LÁNDZSA UTCA,stimuli/scenes/087a.jpg,scene,0,stimuli/scenes/087a.jpg,stimuli/objects/082b.jpg,stimuli/objects/082a.jpg,stimuli/scenes/087b.jpg,stimuli/scenes/087a.jpg,dist2,dist1,lure,target,0,0,0,0,,,,,0,36,36,50,,,,,,,,,,,,,,608.7318067476153,,,,,,,,,,,,,,604.7248800136149,604.7248800136149,604.7248800136149,604.7248800136149,604.7248800136149,604.7248800136149,None,,None,,,,,,,,,,,,,,ST04_112822,2022-11-29_15h12.25.396,Hippopolis_Learning,2022.2.2,59.46511613765451,
Hippopolis,stimuli/subj_files/ST04_112822_cityA.csv,./stimuli/seattle.jpg,./stimuli/street_plate1.png,./stimuli/videos/hippopolis_part1.mp4,PETÁRDA UTCA,stimuli/scenes/015a.jpg,scene,1,stimuli/scenes/077a.jpg,stimuli/scenes/077b.jpg,stimuli/scenes/097b.jpg,stimuli/scenes/077a.jpg,stimuli/scenes/097a.jpg,lure,dist2,target,dist1,0,0,0,0,,,,,0,37,37,54,,,,,,,,,,,,,,611.9874524455518,,,,,,,,,,,,,,609.7507924437523,609.7507924437523,609.7507924437523,609.7507924437523,609.7507924437523,609.7507924437523,left,2.2046823371201754,None,,,,,,,,,,,,,,ST04_112822,2022-11-29_15h12.25.396,Hippopolis_Learning,2022.2.2,59.46511613765451,
Hippopolis,stimuli/subj_files/ST04_112822_cityA.csv,./stimuli/seattle.jpg,./stimuli/street_plate1.png,./stimuli/videos/hippopolis_part1.mp4,TÜKÖR UTCA,stimuli/scenes/050a.jpg,scene,1,stimuli/scenes/070a.jpg,stimuli/objects/075b.jpg,stimuli/scenes/070b.jpg,stimuli/scenes/070a.jpg,stimuli/objects/075a.jpg,dist2,lure,target,dist1,0,0,0,0,,,,,0,38,38,1,,,,,,,,,,,,,,614.1965753212571,,,,,,,,,,,,,,613.0217912849039,613.0217912849039,613.0217912849039,613.0217912849039,613.0217912849039,613.0217912849039,left,1.141671508550644,None,,,,,,,,,,,,,,ST04_112822,2022-11-29_15h12.25.396,Hippopolis_Learning,2022.2.2,59.46511613765451,
Hippopolis,stimuli/subj_files/ST04_112822_cityA.csv,./stimuli/seattle.jpg,./stimuli/street_plate1.png,./stimuli/videos/hippopolis_part1.mp4,MOCSÁR UTCA,stimuli/objects/031a.jpg,object,1,stimuli/objects/092a.jpg,stimuli/scenes/070b.jpg,stimuli/scenes/070a.jpg,stimuli/objects/092a.jpg,stimuli/objects/092b.jpg,dist2,dist1,target,lure,0,0,0,0,,,,,0,39,39,31,,,,,,,,,,,,,,616.0623048432171,,,,,,,,,,,,,,615.2220016494393,615.2220016494393,615.2220016494393,615.2220016494393,615.2220016494393,615.2220016494393,left,0.7967927884310484,None,,,,,,,,,,,,,,ST04_112822,2022-11-29_15h12.25.396,Hippopolis_Learning,2022.2.2,59.46511613765451,
Hippopolis,stimuli/subj_files/ST04_112822_cityA.csv,./stimuli/seattle.jpg,./stimuli/street_plate1.png,./stimuli/videos/hippopolis_part1.mp4,MUNKA UTCA,stimuli/objects/025a.jpg,object,2,stimuli/scenes/023a.jpg,stimuli/scenes/114b.jpg,stimuli/scenes/114a.jpg,stimuli/scenes/023a.jpg,stimuli/scenes/023b.jpg,dist2,dist1,target,lure,0,0,0,0,,,,,0,40,40,16,,,,,,,,,,,,,,618.0528284776956,,,,,,619.0728436056525,,,,,,,,617.0921791829169,617.0921791829169,617.0921791829169,617.0921791829169,617.0921791829169,617.0921791829169,left,0.9273084867745638,None,,,,,,,,,,,,,,ST04_112822,2022-11-29_15h12.25.396,Hippopolis_Learning,2022.2.2,59.46511613765451,
Hippopolis,stimuli/subj_files/ST04_112822_cityA.csv,./stimuli/seattle.jpg,./stimuli/street_plate1.png,./stimuli/videos/hippopolis_part1.mp4,HÁRFA UTCA,stimuli/objects/007a.jpg,object,1,stimuli/objects/094a.jpg,stimuli/objects/094b.jpg,stimuli/objects/094a.jpg,stimuli/scenes/069b.jpg,stimuli/scenes/069a.jpg,lure,target,dist2,dist1,0,0,0,0,,,,,0,41,41,59,,,,,,,,,,,,,,620.8384769633412,,,,,,,,,,,,,,619.0728436056525,619.0728436056525,619.0728436056525,619.0728436056525,619.0728436056525,619.0728436056525,left,1.7303431630134583,None,,,,,,,,,,,,,,ST04_112822,2022-11-29_15h12.25.396,Hippopolis_Learning,2022.2.2,59.46511613765451,
Hippopolis,stimuli/subj_files/ST04_112822_cityA.csv,./stimuli/seattle.jpg,./stimuli/street_plate1.png,./stimuli/videos/hippopolis_part1.mp4,HARMONIKA UTCA,stimuli/scenes/016a.jpg,scene,1,stimuli/scenes/097a.jpg,stimuli/objects/080a.jpg,stimuli/objects/080b.jpg,stimuli/scenes/097b.jpg,stimuli/scenes/097a.jpg,dist1,dist2,lure,target,0,0,0,0,,,,,0,42,42,62,,,,,,,,,,,,,,623.0770499669015,,,,,,,,,,,,,,621.868805995211,621.868805995211,621.868805995211,621.868805995211,621.868805995211,621.868805995211,left,1.1738743539899588,None,,,,,,,,,,,,,,ST04_112822,2022-11-29_15h12.25.396,Hippopolis_Learning,2022.2.2,59.46511613765451,
Hippopolis,stimuli/subj_files/ST04_112822_cityA.csv,./stimuli/seattle.jpg,./stimuli/street_plate1.png,./stimuli/videos/hippopolis_part1.mp4,RÓZSA UTCA,stimuli/objects/021a.jpg,object,0,stimuli/objects/021a.jpg,stimuli/objects/021a.jpg,stimuli/objects/021b.jpg,stimuli/objects/114a.jpg,stimuli/objects/114b.jpg,target,lure,dist1,dist2,0,0,0,0,,,,,0,43,43,8,,,,,,,,,,,,,,627.0028161630034,,,,,,,,,,,,,,624.1124294325709,624.1124294325709,624.1124294325709,624.1124294325709,624.1124294325709,624.1124294325709,left,2.850306414067745,None,,,,,,,,,,,,,,ST04_112822,2022-11-29_15h12.25.396,Hippopolis_Learning,2022.2.2,59.46511613765451,
Hippopolis,stimuli/subj_files/ST04_112822_cityA.csv,./stimuli/seattle.jpg,./stimuli/street_plate1.png,./stimuli/videos/hippopolis_part1.mp4,FOLYÓ UTCA,stimuli/objects/044a.jpg,object,0,stimuli/objects/044a.jpg,stimuli/objects/044a.jpg,stimuli/objects/044b.jpg,stimuli/objects/014b.jpg,stimuli/objects/014a.jpg,target,lure,dist2,dist1,0,0,0,0,,,,,0,44,44,33,,,,,,,,,,,,,,629.5093211717904,,,,,,,,,,,,,,628.0184398796409,628.0184398796409,628.0184398796409,628.0184398796409,628.0184398796409,628.0184398796409,left,1.4570658896118402,None,,,,,,,,,,,,,,ST04_112822,2022-11-29_15h12.25.396,Hippopolis_Learning,2022.2.2,59.46511613765451,
Hippopolis,stimuli/subj_files/ST04_112822_cityA.csv,./stimuli/seattle.jpg,./stimuli/street_plate1.png,./stimuli/videos/hippopolis_part1.mp4,VÁSÁR UTCA,stimuli/scenes/118a.jpg,scene,0,stimuli/scenes/118a.jpg,stimuli/objects/033a.jpg,stimuli/scenes/118b.jpg,stimuli/objects/033b.jpg,stimuli/scenes/118a.jpg,dist1,lure,dist2,target,0,0,0,0,,,,,0,45,45,64,,,,,,,,,,,,,,631.6847872454673,,,,,,632.7031829636544,,,,,,,,630.5385666582733,630.5385666582733,630.5385666582733,630.5385666582733,630.5385666582733,630.5385666582733,right,1.1124913338571787,None,,,,,,,,,,,,,,ST04_112822,2022-11-29_15h12.25.396,Hippopolis_Learning,2022.2.2,59.46511613765451,
Hippopolis,stimuli/subj_files/ST04_112822_cityA.csv,./stimuli/seattle.jpg,./stimuli/street_plate1.png,./stimuli/videos/hippopolis_part1.mp4,ORVOS UTCA,stimuli/scenes/037a.jpg,scene,0,stimuli/scenes/037a.jpg,stimuli/objects/097a.jpg,stimuli/scenes/037b.jpg,stimuli/scenes/037a.jpg,stimuli/objects/097b.jpg,dist1,lure,target,dist2,0,0,0,0,,,,,0,46,46,74,,,,,,,,,,,,,,633.8033152036369,,,,,,634.8202989511192,,,,,,,,632.7031829636544,632.7031829636544,632.7031829636544,632.7031829636544,632.7031829636544,632.7031829636544,left,1.0760074853897095,None,,,,,,,,,,,,,,ST04_112822,2022-11-29_15h12.25.396,Hippopolis_Learning,2022.2.2,59.46511613765451,
Hippopolis,stimuli/subj_files/ST04_112822_cityA.csv,./stimuli/seattle.jpg,./stimuli/street_plate1.png,./stimuli/videos/hippopolis_part1.mp4,KATONA UTCA,stimuli/scenes/101a.jpg,scene,2,stimuli/objects/120a.jpg,stimuli/objects/120b.jpg,stimuli/objects/120a.jpg,stimuli/objects/054b.jpg,stimuli/objects/054a.jpg,lure,target,dist2,dist1,0,0,0,0,,,,,0,47,47,53,,,,,,,,,,,,,,636.1861643828452,,,,,,,,,,,,,,634.8202989511192,634.8202989511192,634.8202989511192,634.8202989511192,634.8202989511192,634.8202989511192,left,1.3101797476410866,None,,,,,,,,,,,,,,ST04_112822,2022-11-29_15h12.25.396,Hippopolis_Learning,2022.2.2,59.46511613765451,
Hippopolis,stimuli/subj_files/ST04_112822_cityA.csv,./stimuli/seattle.jpg,./stimuli/street_plate1.png,./stimuli/videos/hippopolis_part1.mp4,DOMINÓ UTCA,stimuli/objects/062a.jpg,object,1,stimuli/objects/045a.jpg,stimuli/scenes/010b.jpg,stimuli/scenes/010a.jpg,stimuli/objects/045a.jpg,stimuli/objects/045b.jpg,dist2,dist1,target,lure,0,0,0,0,,,,,0,48,48,68,,,,,,,,,,,,,,638.2846053689718,,,,,,,,,,,,,,637.2028983924538,637.2028983924538,637.2028983924538,637.2028983924538,637.2028983924538,637.2028983924538,left,1.039880983531475,None,,,,,,,,,,,,,,ST04_112822,2022-11-29_15h12.25.396,Hippopolis_Learning,2022.2.2,59.46511613765451,
Hippopolis,stimuli/subj_files/ST04_112822_cityA.csv,./stimuli/seattle.jpg,./stimuli/street_plate1.png,./stimuli/videos/hippopolis_part1.mp4,ZSEMLE UTCA,stimuli/objects/057a.jpg,object,2,stimuli/scenes/031a.jpg,stimuli/objects/056a.jpg,stimuli/scenes/031b.jpg,stimuli/scenes/031a.jpg,stimuli/objects/056b.jpg,dist1,lure,target,dist2,0,0,0,0,,,,,0,49,49,24,,,,,,,,,,,,,,640.8985490929335,,,,,,641.9066853299737,,,,,,,,639.3123281672597,639.3123281672597,639.3123281672597,639.3123281672597,639.3123281672597,639.3123281672597,left,1.5390163864940405,None,,,,,,,,,,,,,,ST04_112822,2022-11-29_15h12.25.396,Hippopolis_Learning,2022.2.2,59.46511613765451,
Hippopolis,stimuli/subj_files/ST04_112822_cityA.csv,./stimuli/seattle.jpg,./stimuli/street_plate1.png,./stimuli/videos/hippopolis_part1.mp4,VIHAR UTCA,stimuli/scenes/098a.jpg,scene,0,stimuli/scenes/098a.jpg,stimuli/scenes/098b.jpg,stimuli/objects/021a.jpg,stimuli/objects/021b.jpg,stimuli/scenes/098a.jpg,lure,dist1,dist2,target,0,0,0,0,,,,,0,50,50,61,,,,,,,,,,,,,,643.3589881453663,,,,,,,,,,,,,,641.9066853299737,641.9066853299737,641.9066853299737,641.9066853299737,641.9066853299737,641.9066853299737,left,1.4078292232006788,None,,,,,,,,,,,,,,ST04_112822,2022-11-29_15h12.25.396,Hippopolis_Learning,2022.2.2,59.46511613765451,
Hippopolis,stimuli/subj_files/ST04_112822_cityA.csv,./stimuli/seattle.jpg,./stimuli/street_plate1.png,./stimuli/videos/hippopolis_part1.mp4,FIÓK UTCA,stimuli/scenes/104a.jpg,scene,1,stimuli/scenes/045a.jpg,stimuli/scenes/045a.jpg,stimuli/scenes/026a.jpg,stimuli/scenes/045b.jpg,stimuli/scenes/026b.jpg,target,dist1,lure,dist2,0,0,0,0,,,,,0,51,51,63,,,,,,,,,,,,,,646.2094006035477,,,,,,,,,,,,,,644.392913967371,644.392913967371,644.392913967371,644.392913967371,644.392913967371,644.392913967371,left,1.769959468394518,None,,,,,,,,,,,,,,ST04_112822,2022-11-29_15h12.25.396,Hippopolis_Learning,2022.2.2,59.46511613765451,
Hippopolis,stimuli/subj_files/ST04_112822_cityA.csv,./stimuli/seattle.jpg,./stimuli/street_plate1.png,./stimuli/videos/hippopolis_part1.mp4,KULLANCS UTCA,stimuli/objects/097a.jpg,object,0,stimuli/objects/097a.jpg,stimuli/objects/097a.jpg,stimuli/objects/050a.jpg,stimuli/objects/097b.jpg,stimuli/objects/050b.jpg,target,dist1,lure,dist2,0,0,0,0,,,,,0,52,52,76,,,,,,,,,,,,,,655.011626040563,,,,,,,,,,,,,,647.2358638253063,647.2358638253063,647.2358638253063,647.2358638253063,647.2358638253063,647.2358638253063,right,1.502957060933113,space,648.7854951582849,648.7854951582849,648.7854951582849,648.7854951582849,648.7854951582849,6.209098627790809,,,,,,,,ST04_112822,2022-11-29_15h12.25.396,Hippopolis_Learning,2022.2.2,59.46511613765451,
Hippopolis,stimuli/subj_files/ST04_112822_cityA.csv,./stimuli/seattle.jpg,./stimuli/street_plate1.png,./stimuli/videos/hippopolis_part1.mp4,RIBIZLI UTCA,stimuli/objects/086a.jpg,object,1,stimuli/objects/076a.jpg,stimuli/objects/036a.jpg,stimuli/objects/076a.jpg,stimuli/objects/036b.jpg,stimuli/objects/076b.jpg,dist1,target,dist2,lure,0,0,0,0,,,,,0,53,53,35,,,,,,,,,,,,,,657.0534539110959,,,,,,,,,,,,,,656.0439119245857,656.0439119245857,656.0439119245857,656.0439119245857,656.0439119245857,656.0439119245857,left,0.9823591075837612,None,,,,,,,,,,,,,,ST04_112822,2022-11-29_15h12.25.396,Hippopolis_Learning,2022.2.2,59.46511613765451,
Hippopolis,stimuli/subj_files/ST04_112822_cityA.csv,./stimuli/seattle.jpg,./stimuli/street_plate1.png,./stimuli/videos/hippopolis_part1.mp4,FOGAS UTCA,stimuli/objects/081a.jpg,object,1,stimuli/objects/119a.jpg,stimuli/scenes/040b.jpg,stimuli/objects/119a.jpg,stimuli/objects/119b.jpg,stimuli/scenes/040a.jpg,dist2,target,lure,dist1,0,0,0,0,,,,,0,54,54,48,,,,,,,,,,,,,,659.3938556946814,,,,,,,,,,,,,,658.0827578678727,658.0827578678727,658.0827578678727,658.0827578678727,658.0827578678727,658.0827578678727,left,1.2637844365090132,None,,,,,,,,,,,,,,ST04_112822,2022-11-29_15h12.25.396,Hippopolis_Learning,2022.2.2,59.46511613765451,
Hippopolis,stimuli/subj_files/ST04_112822_cityA.csv,./stimuli/seattle.jpg,./stimuli/street_plate1.png,./stimuli/videos/hippopolis_part1.mp4,ÁRNYÉK UTCA,stimuli/scenes/029a.jpg,scene,1,stimuli/scenes/069a.jpg,stimuli/objects/052a.jpg,stimuli/scenes/069b.jpg,stimuli/objects/052b.jpg,stimuli/scenes/069a.jpg,dist1,lure,dist2,target,0,0,0,0,,,,,0,55,55,56,,,,,,,,,,,,,,661.4944619089365,,,,,,,,,,,,,,660.4231559187174,660.4231559187174,660.4231559187174,660.4231559187174,660.4231559187174,660.4231559187174,right,1.0358357224613428,None,,,,,,,,,,,,,,ST04_112822,2022-11-29_15h12.25.396,Hippopolis_Learning,2022.2.2,59.46511613765451,
Hippopolis,stimuli/subj_files/ST04_112822_cityA.csv,./stimuli/seattle.jpg,./stimuli/street_plate1.png,./stimuli/videos/hippopolis_part1.mp4,KÖNYVTÁR UTCA,stimuli/objects/082a.jpg,object,0,stimuli/objects/082a.jpg,stimuli/objects/116b.jpg,stimuli/objects/116a.jpg,stimuli/objects/082a.jpg,stimuli/objects/082b.jpg,dist2,dist1,target,lure,0,0,0,0,,,,,0,56,56,39,,,,,,,,,,,,,,666.5242261532694,,,,,,,,,,,,,,662.5211978834122,662.5211978834122,662.5211978834122,662.5211978834122,662.5211978834122,662.5211978834122,None,,None,,,,,,,,,,,,,,ST04_112822,2022-11-29_15h12.25.396,Hippopolis_Learning,2022.2.2,59.46511613765451,
Hippopolis,stimuli/subj_files/ST04_112822_cityA.csv,./stimuli/seattle.jpg,./stimuli/street_plate1.png,./stimuli/videos/hippopolis_part1.mp4,LAKAT UTCA,stimuli/objects/014a.jpg,object,0,stimuli/objects/014a.jpg,stimuli/scenes/087a.jpg,stimuli/objects/014b.jpg,stimuli/objects/014a.jpg,stimuli/scenes/087b.jpg,dist1,lure,target,dist2,0,0,0,0,,,,,0,57,57,21,,,,,,,,,,,,,,668.4608542472124,,,,,,,,,,,,,,667.5541636291891,667.5541636291891,667.5541636291891,667.5541636291891,667.5541636291891,667.5541636291891,left,0.8805604949593544,None,,,,,,,,,,,,,,ST04_112822,2022-11-29_15h12.25.396,Hippopolis_Learning,2022.2.2,59.46511613765451,
Hippopolis,stimuli/subj_files/ST04_112822_cityA.csv,./stimuli/seattle.jpg,./stimuli/street_plate1.png,./stimuli/videos/hippopolis_part1.mp4,SIRÁLY UTCA,stimuli/scenes/054a.jpg,scene,1,stimuli/scenes/111a.jpg,stimuli/scenes/111b.jpg,stimuli/objects/109a.jpg,stimuli/objects/109b.jpg,stimuli/scenes/111a.jpg,lure,dist1,dist2,target,0,0,0,0,,,,,0,58,58,12,,,,,,,,,,,,,,670.8390255793929,,,,,,,,,,,,,,669.4919384028763,669.4919384028763,669.4919384028763,669.4919384028763,669.4919384028763,669.4919384028763,left,1.3109230529516935,None,,,,,,,,,,,,,,ST04_112822,2022-11-29_15h12.25.396,Hippopolis_Learning,2022.2.2,59.46511613765451,
Hippopolis,stimuli/subj_files/ST04_112822_cityA.csv,./stimuli/seattle.jpg,./stimuli/street_plate1.png,./stimuli/videos/hippopolis_part1.mp4,TRIATLON UTCA,stimuli/scenes/039a.jpg,scene,2,stimuli/objects/107a.jpg,stimuli/objects/107b.jpg,stimuli/scenes/058a.jpg,stimuli/scenes/058b.jpg,stimuli/objects/107a.jpg,lure,dist1,dist2,target,0,0,0,0,,,,,0,59,59,52,,,,,,,,,,,,,,683.9437719099224,,,,,,,,,,,,,,671.8693381287158,671.8693381287158,671.8693381287158,671.8693381287158,671.8693381287158,671.8693381287158,right,1.7011200711131096,space,673.6215428523719,673.6215428523719,673.6215428523719,673.6215428523719,673.6215428523719,10.300396731123328,,,,,,,,ST04_112822,2022-11-29_15h12.25.396,Hippopolis_Learning,2022.2.2,59.46511613765451,
Hippopolis,stimuli/subj_files/ST04_112822_cityA.csv,./stimuli/seattle.jpg,./stimuli/street_plate1.png,./stimuli/videos/hippopolis_part1.mp4,KERET UTCA,stimuli/scenes/093a.jpg,scene,0,stimuli/scenes/093a.jpg,stimuli/scenes/098a.jpg,stimuli/scenes/093b.jpg,stimuli/scenes/098b.jpg,stimuli/scenes/093a.jpg,dist1,lure,dist2,target,0,0,0,0,,,,,0,60,60,40,,,,,,,,,,,,,,685.9511520918459,,,,,,,,,,,,,,684.967437941581,684.967437941581,684.967437941581,684.967437941581,684.967437941581,684.967437941581,left,0.9392240755259991,None,,,,,,,,,,,,,,ST04_112822,2022-11-29_15h12.25.396,Hippopolis_Learning,2022.2.2,59.46511613765451,
Hippopolis,stimuli/subj_files/ST04_112822_cityA.csv,./stimuli/seattle.jpg,./stimuli/street_plate1.png,./stimuli/videos/hippopolis_part1.mp4,TOLMÁCS UTCA,stimuli/objects/022a.jpg,object,2,stimuli/scenes/114a.jpg,stimuli/scenes/018b.jpg,stimuli/scenes/018a.jpg,stimuli/scenes/114b.jpg,stimuli/scenes/114a.jpg,dist2,dist1,lure,target,0,0,0,0,,,,,0,61,61,34,,,,,,,,,,,,,,687.8460061177611,,,,,,,,,,,,,,686.9705368094146,686.9705368094146,686.9705368094146,686.9705368094146,686.9705368094146,686.9705368094146,left,0.8403150234371424,None,,,,,,,,,,,,,,ST04_112822,2022-11-29_15h12.25.396,Hippopolis_Learning,2022.2.2,59.46511613765451,
Hippopolis,stimuli/subj_files/ST04_112822_cityA.csv,./stimuli/seattle.jpg,./stimuli/street_plate1.png,./stimuli/videos/hippopolis_part1.mp4,PAPUCS UTCA,stimuli/scenes/053a.jpg,scene,2,stimuli/objects/054a.jpg,stimuli/objects/061a.jpg,stimuli/objects/054a.jpg,stimuli/objects/054b.jpg,stimuli/objects/061b.jpg,dist1,target,lure,dist2,0,0,0,0,,,,,0,62,62,11,,,,,,,,,,,,,,689.9030002150685,,,,,,,,,,,,,,688.8777017109096,688.8777017109096,688.8777017109096,688.8777017109096,688.8777017109096,688.8777017109096,left,0.9961964040994644,None,,,,,,,,,,,,,,ST04_112822,2022-11-29_15h12.25.396,Hippopolis_Learning,2022.2.2,59.46511613765451,
Hippopolis,stimuli/subj_files/ST04_112822_cityA.csv,./stimuli/seattle.jpg,./stimuli/street_plate1.png,./stimuli/videos/hippopolis_part1.mp4,BOLYGÓ UTCA,stimuli/scenes/062a.jpg,scene,2,stimuli/objects/043a.jpg,stimuli/objects/043a.jpg,stimuli/scenes/089b.jpg,stimuli/scenes/089a.jpg,stimuli/objects/043b.jpg,target,dist2,dist1,lure,0,0,0,0,,,,,0,63,63,55,,,,,,,,,,,,,,692.0677064023912,,,,,,,,,,,,,,690.9351085163653,690.9351085163653,690.9351085163653,690.9351085163653,690.9351085163653,690.9351085163653,right,1.0829737167805433,None,,,,,,,,,,,,,,ST04_112822,2022-11-29_15h12.25.396,Hippopolis_Learning,2022.2.2,59.46511613765451,
Hippopolis,stimuli/subj_files/ST04_112822_cityA.csv,./stimuli/seattle.jpg,./stimuli/street_plate1.png,./stimuli/videos/hippopolis_part1.mp4,SZIKLA UTCA,stimuli/objects/102a.jpg,object,1,stimuli/objects/008a.jpg,stimuli/objects/008b.jpg,stimuli/scenes/079a.jpg,stimuli/objects/008a.jpg,stimuli/scenes/079b.jpg,lure,dist1,target,dist2,0,0,0,0,,,,,0,64,64,19,,,,,,,,,,,,,,694.7516956068575,,,,,,695.7716189865023,,,,,,,,693.0866585094482,693.0866585094482,693.0866585094482,693.0866585094482,693.0866585094482,693.0866585094482,left,1.63564327172935,None,,,,,,,,,,,,,,ST04_112822,2022-11-29_15h12.25.396,Hippopolis_Learning,2022.2.2,59.46511613765451,
Hippopolis,stimuli/subj_files/ST04_112822_cityA.csv,./stimuli/seattle.jpg,./stimuli/street_plate1.png,./stimuli/videos/hippopolis_part1.mp4,LÉPCSŐ UTCA,stimuli/objects/018a.jpg,object,1,stimuli/objects/075a.jpg,stimuli/scenes/045a.jpg,stimuli/objects/075a.jpg,stimuli/objects/075b.jpg,stimuli/scenes/045b.jpg,dist1,target,lure,dist2,0,0,0,0,,,,,0,65,65,14,,,,,,,,,,,,,,698.1606805194169,,,,,,,,,,,,,,695.7716189865023,695.7716189865023,695.7716189865023,695.7716189865023,695.7716189865023,695.7716189865023,left,2.3425856810063124,None,,,,,,,,,,,,,,ST04_112822,2022-11-29_15h12.25.396,Hippopolis_Learning,2022.2.2,59.46511613765451,
Hippopolis,stimuli/subj_files/ST04_112822_cityA.csv,./stimuli/seattle.jpg,./stimuli/street_plate1.png,./stimuli/videos/hippopolis_part1.mp4,LÉTRA UTCA,stimuli/scenes/034a.jpg,scene,1,stimuli/scenes/040a.jpg,stimuli/scenes/040a.jpg,stimuli/scenes/080a.jpg,stimuli/scenes/040b.jpg,stimuli/scenes/080b.jpg,target,dist1,lure,dist2,0,0,0,0,,,,,0,66,66,18,,,,,,,,,,,,,,699.9199410453439,,,,,,,,,,,,,,699.1938232257962,699.1938232257962,699.1938232257962,699.1938232257962,699.1938232257962,699.1938232257962,left,0.6967740654945374,None,,,,,,,,,,,,,,ST04_112822,2022-11-29_15h12.25.396,Hippopolis_Learning,2022.2.2,59.46511613765451,
Hippopolis,stimuli/subj_files/ST04_112822_cityA.csv,./stimuli/seattle.jpg,./stimuli/street_plate1.png,./stimuli/videos/hippopolis_part1.mp4,MÁRVÁNY UTCA,stimuli/scenes/117a.jpg,scene,1,stimuli/scenes/026a.jpg,stimuli/scenes/026a.jpg,stimuli/scenes/028a.jpg,stimuli/scenes/026b.jpg,stimuli/scenes/028b.jpg,target,dist1,lure,dist2,0,0,0,0,,,,,0,67,67,69,,,,,,,,,,,,,,704.8893215321004,,,,,,,,,,,,,,700.9530607368797,700.9530607368797,700.9530607368797,700.9530607368797,700.9530607368797,700.9530607368797,left,3.897098880261183,None,,,,,,,,,,,,,,ST04_112822,2022-11-29_15h12.25.396,Hippopolis_Learning,2022.2.2,59.46511613765451,
Hippopolis,stimuli/subj_files/ST04_112822_cityA.csv,./stimuli/seattle.jpg,./stimuli/street_plate1.png,./stimuli/videos/hippopolis_part1.mp4,LABDA UTCA,stimuli/scenes/063a.jpg,scene,2,stimuli/objects/088a.jpg,stimuli/objects/039a.jpg,stimuli/objects/088b.jpg,stimuli/objects/039b.jpg,stimuli/objects/088a.jpg,dist1,lure,dist2,target,0,0,0,0,,,,,0,68,68,65,,,,,,,,,,,,,,709.5988148152828,,,,,,,,,,,,,,705.9194826222956,705.9194826222956,705.9194826222956,705.9194826222956,705.9194826222956,705.9194826222956,left,3.6505078226327896,None,,,,,,,,,,,,,,ST04_112822,2022-11-29_15h12.25.396,Hippopolis_Learning,2022.2.2,59.46511613765451,
Hippopolis,stimuli/subj_files/ST04_112822_cityA.csv,./stimuli/seattle.jpg,./stimuli/street_plate1.png,./stimuli/videos/hippopolis_part1.mp4,BETON UTCA,stimuli/scenes/041a.jpg,scene,2,stimuli/objects/079a.jpg,stimuli/scenes/067b.jpg,stimuli/scenes/067a.jpg,stimuli/objects/079b.jpg,stimuli/objects/079a.jpg,dist2,dist1,lure,target,0,0,0,0,,,,,0,69,69,47,,,,,,,,,,,,,,711.9188795797527,,,,,,,,,,,,,,710.6202562190592,710.6202562190592,710.6202562190592,710.6202562190592,710.6202562190592,710.6202562190592,left,1.2696792501956224,None,,,,,,,,,,,,,,ST04_112822,2022-11-29_15h12.25.396,Hippopolis_Learning,2022.2.2,59.46511613765451,
Hippopolis,stimuli/subj_files/ST04_112822_cityA.csv,./stimuli/seattle.jpg,./stimuli/street_plate1.png,./stimuli/videos/hippopolis_part1.mp4,OROSZLÁN UTCA,stimuli/objects/084a.jpg,object,0,stimuli/objects/084a.jpg,stimuli/objects/055b.jpg,stimuli/objects/084a.jpg,stimuli/objects/084b.jpg,stimuli/objects/055a.jpg,dist2,target,lure,dist1,0,0,0,0,,,,,0,70,70,30,,,,,,,,,,,,,,715.3335226308554,,,,,,,,,,,,,,712.9479891564697,712.9479891564697,712.9479891564697,712.9479891564697,712.9479891564697,712.9479891564697,left,2.3341549206525087,None,,,,,,,,,,,,,,ST04_112822,2022-11-29_15h12.25.396,Hippopolis_Learning,2022.2.2,59.46511613765451,
Hippopolis,stimuli/subj_files/ST04_112822_cityA.csv,./stimuli/seattle.jpg,./stimuli/street_plate1.png,./stimuli/videos/hippopolis_part1.mp4,ASZTAL UTCA,stimuli/objects/103a.jpg,object,2,stimuli/scenes/067a.jpg,stimuli/scenes/067b.jpg,stimuli/scenes/021b.jpg,stimuli/scenes/067a.jpg,stimuli/scenes/021a.jpg,lure,dist2,target,dist1,0,0,0,0,,,,,0,71,71,36,,,,,,,,,,,,,,717.6758473664522,,,,,,,,,,,,,,716.3654337543994,716.3654337543994,716.3654337543994,716.3654337543994,716.3654337543994,716.3654337543994,left,1.2682728804647923,None,,,,,,,,,,,,,,ST04_112822,2022-11-29_15h12.25.396,Hippopolis_Learning,2022.2.2,59.46511613765451,
Hippopolis,stimuli/subj_files/ST04_112822_cityA.csv,./stimuli/seattle.jpg,./stimuli/street_plate1.png,./stimuli/videos/hippopolis_part1.mp4,TELEP UTCA,stimuli/objects/074a.jpg,object,1,stimuli/objects/036a.jpg,stimuli/scenes/044b.jpg,stimuli/objects/036a.jpg,stimuli/objects/036b.jpg,stimuli/scenes/044a.jpg,dist2,target,lure,dist1,0,0,0,0,,,,,0,72,72,9,,,,,,,,,,,,,,719.5508968178183,,,,,,,,,,,,,,718.710581805557,718.710581805557,718.710581805557,718.710581805557,718.710581805557,718.710581805557,left,0.8118296358734369,None,,,,,,,,,,,,,,ST04_112822,2022-11-29_15h12.25.396,Hippopolis_Learning,2022.2.2,59.46511613765451,
Hippopolis,stimuli/subj_files/ST04_112822_cityA.csv,./stimuli/seattle.jpg,./stimuli/street_plate1.png,./stimuli/videos/hippopolis_part1.mp4,KRÉTA UTCA,stimuli/scenes/071a.jpg,scene,0,stimuli/scenes/071a.jpg,stimuli/scenes/118a.jpg,stimuli/scenes/071a.jpg,stimuli/scenes/071b.jpg,stimuli/scenes/118b.jpg,dist1,target,lure,dist2,0,0,0,0,,,,,0,73,73,51,,,,,,,,,,,,,,724.5892445277423,,,,,,,,,,,,,,720.5819722656161,720.5819722656161,720.5819722656161,720.5819722656161,720.5819722656161,720.5819722656161,None,,None,,,,,,,,,,,,,,ST04_112822,2022-11-29_15h12.25.396,Hippopolis_Learning,2022.2.2,59.46511613765451,
Hippopolis,stimuli/subj_files/ST04_112822_cityA.csv,./stimuli/seattle.jpg,./stimuli/street_plate1.png,./stimuli/videos/hippopolis_part1.mp4,CSAVAR UTCA,stimuli/scenes/106a.jpg,scene,2,stimuli/objects/056a.jpg,stimuli/objects/056a.jpg,stimuli/objects/056b.jpg,stimuli/objects/107b.jpg,stimuli/objects/107a.jpg,target,lure,dist2,dist1,0,0,0,0,,,,,0,74,74,26,,,,,,,,,,,,,,726.4865974895656,,,,,,,,,,,,,,725.6138550844043,725.6138550844043,725.6138550844043,725.6138550844043,725.6138550844043,725.6138550844043,left,0.8359385412186384,None,,,,,,,,,,,,,,ST04_112822,2022-11-29_15h12.25.396,Hippopolis_Learning,2022.2.2,59.46511613765451,
Hippopolis,stimuli/subj_files/ST04_112822_cityA.csv,./stimuli/seattle.jpg,./stimuli/street_plate1.png,./stimuli/videos/hippopolis_part1.mp4,ÁLLOMÁS UTCA,stimuli/objects/017a.jpg,object,2,stimuli/scenes/109a.jpg,stimuli/scenes/109b.jpg,stimuli/objects/059b.jpg,stimuli/scenes/109a.jpg,stimuli/objects/059a.jpg,lure,dist2,target,dist1,0,0,0,0,,,,,0,75,75,22,,,,,,,,,,,,,,728.3613813407719,,,,,,,,,,,,,,727.5158877614886,727.5158877614886,727.5158877614886,727.5158877614886,727.5158877614886,727.5158877614886,left,0.8062703981995583,None,,,,,,,,,,,,,,ST04_112822,2022-11-29_15h12.25.396,Hippopolis_Learning,2022.2.2,59.46511613765451,
Hippopolis,stimuli/subj_files/ST04_112822_cityA.csv,./stimuli/seattle.jpg,./stimuli/street_plate1.png,./stimuli/videos/hippopolis_part1.mp4,CUKOR UTCA,stimuli/scenes/073a.jpg,scene,2,stimuli/objects/091a.jpg,stimuli/objects/079a.jpg,stimuli/objects/091a.jpg,stimuli/objects/091b.jpg,stimuli/objects/079b.jpg,dist1,target,lure,dist2,0,0,0,0,,,,,0,76,76,66,,,,,,,,,,,,,,733.3768993150443,,,,,,,,,,,,,,729.3797213863581,729.3797213863581,729.3797213863581,729.3797213863581,729.3797213863581,729.3797213863581,None,,None,,,,,,,,,,,,,,ST04_112822,2022-11-29_15h12.25.396,Hippopolis_Learning,2022.2.2,59.46511613765451,
Hippopolis,stimuli/subj_files/ST04_112822_cityA.csv,./stimuli/seattle.jpg,./stimuli/street_plate1.png,./stimuli/videos/hippopolis_part1.mp4,KANÁL UTCA,stimuli/objects/072a.jpg,object,2,stimuli/scenes/100a.jpg,stimuli/objects/019a.jpg,stimuli/scenes/100b.jpg,stimuli/scenes/100a.jpg,stimuli/objects/019b.jpg,dist1,lure,target,dist2,0,0,0,0,,,,,0,77,77,5,,,,,,,,,,,,,,736.1905324663967,,,,,,,,,,,,,,734.3939636144787,734.3939636144787,734.3939636144787,734.3939636144787,734.3939636144787,734.3939636144787,left,1.7521596383303404,None,,,,,,,,,,,,,,ST04_112822,2022-11-29_15h12.25.396,Hippopolis_Learning,2022.2.2,59.46511613765451,
Hippopolis,stimuli/subj_files/ST04_112822_cityA.csv,./stimuli/seattle.jpg,./stimuli/street_plate1.png,./stimuli/videos/hippopolis_part1.mp4,CITROM UTCA,stimuli/objects/095a.jpg,object,0,stimuli/objects/095a.jpg,stimuli/objects/044b.jpg,stimuli/objects/095a.jpg,stimuli/objects/095b.jpg,stimuli/objects/044a.jpg,dist2,target,lure,dist1,0,0,0,0,,,,,0,78,78,71,,,,,,,,,,,,,,738.1816034726799,,,,,,,,,,,,,,737.2172258347273,737.2172258347273,737.2172258347273,737.2172258347273,737.2172258347273,737.2172258347273,left,0.9122865684330463,None,,,,,,,,,,,,,,ST04_112822,2022-11-29_15h12.25.396,Hippopolis_Learning,2022.2.2,59.46511613765451,
Hippopolis,stimuli/subj_files/ST04_112822_cityA.csv,./stimuli/seattle.jpg,./stimuli/street_plate1.png,./stimuli/videos/hippopolis_part1.mp4,PÁRNA UTCA,stimuli/objects/058a.jpg,object,2,stimuli/scenes/081a.jpg,stimuli/objects/120a.jpg,stimuli/objects/120b.jpg,stimuli/scenes/081a.jpg,stimuli/scenes/081b.jpg,dist1,dist2,target,lure,0,0,0,0,,,,,0,79,79,28,,,,,,,,,,,,,,740.2848398685455,,,,,,741.2866912893951,,,,,,,,739.2021370492876,739.2021370492876,739.2021370492876,739.2021370492876,739.2021370492876,739.2021370492876,left,1.0554029997438192,None,,,,,,,,,,,,,,ST04_112822,2022-11-29_15h12.25.396,Hippopolis_Learning,2022.2.2,59.46511613765451,
