CityName,StimuliFile,CityImage,StreetSign,VideoFile,Cue,Image,Category,Novelty,UpdateImage,TestImage1,TestImage2,TestImage3,TestImage4,TestImage1Type,TestImage2Type,TestImage3Type,TestImage4Type,CityBlock.thisRepN,CityBlock.thisTrialN,CityBlock.thisN,CityBlock.thisIndex,LearningTrials.thisRepN,LearningTrials.thisTrialN,LearningTrials.thisN,LearningTrials.thisIndex,learning_instructions_text.started,intro_key.started,intro_key.keys,intro_key.rt,cityname_text.started,city_image.started,fx_cross.started,plate_updating.started,city_text_updating.started,street_text_updating.started,test_image1.started,test_image2.started,test_image3.started,test_image4.started,button_d.started,button_f.started,button_j.started,button_k.started,key_resp.started,clock0.started,key_resp.keys,key_resp.rt,test_resp,short_break_key.keys,fx_cross.stopped,short_break_text.started,short_break_key.started,short_break_key.rt,clock0.stopped,n_targets,n_lures,n_dist1s,n_dist2s,break_text.started,break_key_resp.started,break_key_resp.keys,break_key_resp.rt,end_text.started,end_text.stopped,participant,date,expName,psychopyVersion,frameRate,
,,,,,,,,,,,,,,,,,,,,,,,,,,20.138557080179453,20.138557080179453,space,8.811263410374522,,,,,,,,,,,,,,,,,,,,,,,,,,,,,,,,,,,,ST04_112822,2022-11-29_16h21.45.848,Hippopolis_4AFCT,2022.2.2,59.99716392154619,
Hippopolis,stimuli/subj_files/ST04_112822_cityA.csv,./stimuli/seattle.jpg,./stimuli/street_plate1.png,./stimuli/videos/hippopolis_part1.mp4,LABDA UTCA,stimuli/scenes/063a.jpg,scene,2,stimuli/objects/088a.jpg,stimuli/objects/039a.jpg,stimuli/objects/088b.jpg,stimuli/objects/039b.jpg,stimuli/objects/088a.jpg,dist1,lure,dist2,target,0,0,0,0,0,0,0,65,,,,,29.032247008755803,29.032247008755803,32.020149793475866,33.088441820815206,33.088441820815206,33.088441820815206,33.088441820815206,33.088441820815206,33.088441820815206,33.088441820815206,33.088441820815206,33.088441820815206,33.088441820815206,33.088441820815206,33.088441820815206,36.475174225866795,d,3.4768796004354954,dist1,None,,,,,,,,,,,,,,,,ST04_112822,2022-11-29_16h21.45.848,Hippopolis_4AFCT,2022.2.2,59.99716392154619,
Hippopolis,stimuli/subj_files/ST04_112822_cityA.csv,./stimuli/seattle.jpg,./stimuli/street_plate1.png,./stimuli/videos/hippopolis_part1.mp4,ÁRNYÉK UTCA,stimuli/scenes/029a.jpg,scene,1,stimuli/scenes/069a.jpg,stimuli/objects/052a.jpg,stimuli/scenes/069b.jpg,stimuli/objects/052b.jpg,stimuli/scenes/069a.jpg,dist1,lure,dist2,target,0,0,0,0,0,1,1,56,,,,,,,36.58757846802473,37.65745351836085,37.65745351836085,37.65745351836085,37.65745351836085,37.65745351836085,37.65745351836085,37.65745351836085,37.65745351836085,37.65745351836085,37.65745351836085,37.65745351836085,37.65745351836085,41.08535601571202,d,3.6755271572619677,dist1,None,,,,,,,,,,,,,,,,ST04_112822,2022-11-29_16h21.45.848,Hippopolis_4AFCT,2022.2.2,59.99716392154619,
Hippopolis,stimuli/subj_files/ST04_112822_cityA.csv,./stimuli/seattle.jpg,./stimuli/street_plate1.png,./stimuli/videos/hippopolis_part1.mp4,BOLYGÓ UTCA,stimuli/scenes/062a.jpg,scene,2,stimuli/objects/043a.jpg,stimuli/objects/043a.jpg,stimuli/scenes/089b.jpg,stimuli/scenes/089a.jpg,stimuli/objects/043b.jpg,target,dist2,dist1,lure,0,0,0,0,0,2,2,55,,,,,,,41.36312048882246,42.43804099597037,42.43804099597037,42.43804099597037,42.43804099597037,42.43804099597037,42.43804099597037,42.43804099597037,42.43804099597037,42.43804099597037,42.43804099597037,42.43804099597037,42.43804099597037,45.851938877254725,j,3.743013057857752,dist1,None,,,,,,,,,,,,,,,,ST04_112822,2022-11-29_16h21.45.848,Hippopolis_4AFCT,2022.2.2,59.99716392154619,
Hippopolis,stimuli/subj_files/ST04_112822_cityA.csv,./stimuli/seattle.jpg,./stimuli/street_plate1.png,./stimuli/videos/hippopolis_part1.mp4,TELEFON UTCA,stimuli/scenes/116a.jpg,scene,0,stimuli/scenes/116a.jpg,stimuli/scenes/116a.jpg,stimuli/objects/084a.jpg,stimuli/scenes/116b.jpg,stimuli/objects/084b.jpg,target,dist1,lure,dist2,0,0,0,0,0,3,3,0,,,,,,,46.20601996406913,47.276446430012584,47.276446430012584,47.276446430012584,47.276446430012584,47.276446430012584,47.276446430012584,47.276446430012584,47.276446430012584,47.276446430012584,47.276446430012584,47.276446430012584,47.276446430012584,,d,1.8650644049048424,target,None,,,,,,,,,,,,,,,,ST04_112822,2022-11-29_16h21.45.848,Hippopolis_4AFCT,2022.2.2,59.99716392154619,
Hippopolis,stimuli/subj_files/ST04_112822_cityA.csv,./stimuli/seattle.jpg,./stimuli/street_plate1.png,./stimuli/videos/hippopolis_part1.mp4,RIBIZLI UTCA,stimuli/objects/086a.jpg,object,1,stimuli/objects/076a.jpg,stimuli/objects/036a.jpg,stimuli/objects/076a.jpg,stimuli/objects/036b.jpg,stimuli/objects/076b.jpg,dist1,target,dist2,lure,0,0,0,0,0,4,4,35,,,,,,,49.17141397297382,50.23324266448617,50.23324266448617,50.23324266448617,50.23324266448617,50.23324266448617,50.23324266448617,50.23324266448617,50.23324266448617,50.23324266448617,50.23324266448617,50.23324266448617,50.23324266448617,,f,2.5881315618753433,target,None,,,,,,,,,,,,,,,,ST04_112822,2022-11-29_16h21.45.848,Hippopolis_4AFCT,2022.2.2,59.99716392154619,
Hippopolis,stimuli/subj_files/ST04_112822_cityA.csv,./stimuli/seattle.jpg,./stimuli/street_plate1.png,./stimuli/videos/hippopolis_part1.mp4,FOGAS UTCA,stimuli/objects/081a.jpg,object,1,stimuli/objects/119a.jpg,stimuli/scenes/040b.jpg,stimuli/objects/119a.jpg,stimuli/objects/119b.jpg,stimuli/scenes/040a.jpg,dist2,target,lure,dist1,0,0,0,0,0,5,5,48,,,,,,,52.862121537327766,53.95461856946349,53.95461856946349,53.95461856946349,53.95461856946349,53.95461856946349,53.95461856946349,53.95461856946349,53.95461856946349,53.95461856946349,53.95461856946349,53.95461856946349,53.95461856946349,,f,2.80276982486248,target,None,,,,,,,,,,,,,,,,ST04_112822,2022-11-29_16h21.45.848,Hippopolis_4AFCT,2022.2.2,59.99716392154619,
Hippopolis,stimuli/subj_files/ST04_112822_cityA.csv,./stimuli/seattle.jpg,./stimuli/street_plate1.png,./stimuli/videos/hippopolis_part1.mp4,KUTYA UTCA,stimuli/objects/065a.jpg,object,2,stimuli/scenes/024a.jpg,stimuli/scenes/109b.jpg,stimuli/scenes/024b.jpg,stimuli/scenes/024a.jpg,stimuli/scenes/109a.jpg,dist2,lure,target,dist1,0,0,0,0,0,6,6,10,,,,,,,56.792336678132415,57.870361963286996,57.870361963286996,57.870361963286996,57.870361963286996,57.870361963286996,57.870361963286996,57.870361963286996,57.870361963286996,57.870361963286996,57.870361963286996,57.870361963286996,57.870361963286996,,k,2.246754152700305,dist1,None,,,,,,,,,,,,,,,,ST04_112822,2022-11-29_16h21.45.848,Hippopolis_4AFCT,2022.2.2,59.99716392154619,
Hippopolis,stimuli/subj_files/ST04_112822_cityA.csv,./stimuli/seattle.jpg,./stimuli/street_plate1.png,./stimuli/videos/hippopolis_part1.mp4,MOCSÁR UTCA,stimuli/objects/031a.jpg,object,1,stimuli/objects/092a.jpg,stimuli/scenes/070b.jpg,stimuli/scenes/070a.jpg,stimuli/objects/092a.jpg,stimuli/objects/092b.jpg,dist2,dist1,target,lure,0,0,0,0,0,7,7,31,,,,,,,60.14777841977775,61.220607720315456,61.220607720315456,61.220607720315456,61.220607720315456,61.220607720315456,61.220607720315456,61.220607720315456,61.220607720315456,61.220607720315456,61.220607720315456,61.220607720315456,61.220607720315456,,j,2.752061165869236,target,None,,,,,,,,,,,,,,,,ST04_112822,2022-11-29_16h21.45.848,Hippopolis_4AFCT,2022.2.2,59.99716392154619,
Hippopolis,stimuli/subj_files/ST04_112822_cityA.csv,./stimuli/seattle.jpg,./stimuli/street_plate1.png,./stimuli/videos/hippopolis_part1.mp4,CSAVAR UTCA,stimuli/scenes/106a.jpg,scene,2,stimuli/objects/056a.jpg,stimuli/objects/056a.jpg,stimuli/objects/056b.jpg,stimuli/objects/107b.jpg,stimuli/objects/107a.jpg,target,lure,dist2,dist1,0,0,0,0,0,8,8,26,,,,,,,64.00125273503363,65.08051458001137,65.08051458001137,65.08051458001137,65.08051458001137,65.08051458001137,65.08051458001137,65.08051458001137,65.08051458001137,65.08051458001137,65.08051458001137,65.08051458001137,65.08051458001137,,d,3.052458819001913,target,None,,,,,,,,,,,,,,,,ST04_112822,2022-11-29_16h21.45.848,Hippopolis_4AFCT,2022.2.2,59.99716392154619,
Hippopolis,stimuli/subj_files/ST04_112822_cityA.csv,./stimuli/seattle.jpg,./stimuli/street_plate1.png,./stimuli/videos/hippopolis_part1.mp4,LÉPCSŐ UTCA,stimuli/objects/018a.jpg,object,1,stimuli/objects/075a.jpg,stimuli/scenes/045a.jpg,stimuli/objects/075a.jpg,stimuli/objects/075b.jpg,stimuli/scenes/045b.jpg,dist1,target,lure,dist2,0,0,0,0,0,9,9,14,,,,,,,68.1512831505388,69.20723133534193,69.20723133534193,69.20723133534193,69.20723133534193,69.20723133534193,69.20723133534193,69.20723133534193,69.20723133534193,69.20723133534193,69.20723133534193,69.20723133534193,69.20723133534193,,d,2.813868088647723,dist1,None,,,,,,,,,,,,,,,,ST04_112822,2022-11-29_16h21.45.848,Hippopolis_4AFCT,2022.2.2,59.99716392154619,
Hippopolis,stimuli/subj_files/ST04_112822_cityA.csv,./stimuli/seattle.jpg,./stimuli/street_plate1.png,./stimuli/videos/hippopolis_part1.mp4,KÖNYVTÁR UTCA,stimuli/objects/082a.jpg,object,0,stimuli/objects/082a.jpg,stimuli/objects/116b.jpg,stimuli/objects/116a.jpg,stimuli/objects/082a.jpg,stimuli/objects/082b.jpg,dist2,dist1,target,lure,0,0,0,0,0,10,10,39,,,,,,,72.05277156457305,73.10453329235315,73.10453329235315,73.10453329235315,73.10453329235315,73.10453329235315,73.10453329235315,73.10453329235315,73.10453329235315,73.10453329235315,73.10453329235315,73.10453329235315,73.10453329235315,,k,2.644641112536192,lure,None,73.10453329235315,,,,,,,,,,,,,,,ST04_112822,2022-11-29_16h21.45.848,Hippopolis_4AFCT,2022.2.2,59.99716392154619,
Hippopolis,stimuli/subj_files/ST04_112822_cityA.csv,./stimuli/seattle.jpg,./stimuli/street_plate1.png,./stimuli/videos/hippopolis_part1.mp4,DOMINÓ UTCA,stimuli/objects/062a.jpg,object,1,stimuli/objects/045a.jpg,stimuli/scenes/010b.jpg,stimuli/scenes/010a.jpg,stimuli/objects/045a.jpg,stimuli/objects/045b.jpg,dist2,dist1,target,lure,0,0,0,0,0,11,11,68,,,,,,,75.7675034403801,76.81951552815735,76.81951552815735,76.81951552815735,76.81951552815735,76.81951552815735,76.81951552815735,76.81951552815735,76.81951552815735,76.81951552815735,76.81951552815735,76.81951552815735,76.81951552815735,,j,2.464844586327672,target,None,,,,,,,,,,,,,,,,ST04_112822,2022-11-29_16h21.45.848,Hippopolis_4AFCT,2022.2.2,59.99716392154619,
Hippopolis,stimuli/subj_files/ST04_112822_cityA.csv,./stimuli/seattle.jpg,./stimuli/street_plate1.png,./stimuli/videos/hippopolis_part1.mp4,VIHAR UTCA,stimuli/scenes/098a.jpg,scene,0,stimuli/scenes/098a.jpg,stimuli/scenes/098b.jpg,stimuli/objects/021a.jpg,stimuli/objects/021b.jpg,stimuli/scenes/098a.jpg,lure,dist1,dist2,target,0,0,0,0,0,12,12,61,,,,,,,79.30250130034983,80.36614067293704,80.36614067293704,80.36614067293704,80.36614067293704,80.36614067293704,80.36614067293704,80.36614067293704,80.36614067293704,80.36614067293704,80.36614067293704,80.36614067293704,80.36614067293704,,k,2.054338851943612,target,None,,,,,,,,,,,,,,,,ST04_112822,2022-11-29_16h21.45.848,Hippopolis_4AFCT,2022.2.2,59.99716392154619,
Hippopolis,stimuli/subj_files/ST04_112822_cityA.csv,./stimuli/seattle.jpg,./stimuli/street_plate1.png,./stimuli/videos/hippopolis_part1.mp4,KAKAS UTCA,stimuli/objects/110a.jpg,object,1,stimuli/objects/052a.jpg,stimuli/objects/052a.jpg,stimuli/objects/024b.jpg,stimuli/objects/052b.jpg,stimuli/objects/024a.jpg,target,dist2,lure,dist1,0,0,0,0,0,13,13,2,,,,,,,82.45062462612987,83.50462093390524,83.50462093390524,83.50462093390524,83.50462093390524,83.50462093390524,83.50462093390524,83.50462093390524,83.50462093390524,83.50462093390524,83.50462093390524,83.50462093390524,83.50462093390524,,k,3.219884755089879,dist1,None,,,,,,,,,,,,,,,,ST04_112822,2022-11-29_16h21.45.848,Hippopolis_4AFCT,2022.2.2,59.99716392154619,
Hippopolis,stimuli/subj_files/ST04_112822_cityA.csv,./stimuli/seattle.jpg,./stimuli/street_plate1.png,./stimuli/videos/hippopolis_part1.mp4,CITROM UTCA,stimuli/objects/095a.jpg,object,0,stimuli/objects/095a.jpg,stimuli/objects/044b.jpg,stimuli/objects/095a.jpg,stimuli/objects/095b.jpg,stimuli/objects/044a.jpg,dist2,target,lure,dist1,0,0,0,0,0,14,14,71,,,,,,,86.75999139249325,87.82323671877384,87.82323671877384,87.82323671877384,87.82323671877384,87.82323671877384,87.82323671877384,87.82323671877384,87.82323671877384,87.82323671877384,87.82323671877384,87.82323671877384,87.82323671877384,,f,1.7977819051593542,target,None,,,,,,,,,,,,,,,,ST04_112822,2022-11-29_16h21.45.848,Hippopolis_4AFCT,2022.2.2,59.99716392154619,
Hippopolis,stimuli/subj_files/ST04_112822_cityA.csv,./stimuli/seattle.jpg,./stimuli/street_plate1.png,./stimuli/videos/hippopolis_part1.mp4,ZSEMLE UTCA,stimuli/objects/057a.jpg,object,2,stimuli/scenes/031a.jpg,stimuli/objects/056a.jpg,stimuli/scenes/031b.jpg,stimuli/scenes/031a.jpg,stimuli/objects/056b.jpg,dist1,lure,target,dist2,0,0,0,0,0,15,15,24,,,,,,,89.65177049860358,90.70844394899905,90.70844394899905,90.70844394899905,90.70844394899905,90.70844394899905,90.70844394899905,90.70844394899905,90.70844394899905,90.70844394899905,90.70844394899905,90.70844394899905,90.70844394899905,,j,3.2324599884450436,target,None,90.70844394899905,,,,,,,,,,,,,,,ST04_112822,2022-11-29_16h21.45.848,Hippopolis_4AFCT,2022.2.2,59.99716392154619,
Hippopolis,stimuli/subj_files/ST04_112822_cityA.csv,./stimuli/seattle.jpg,./stimuli/street_plate1.png,./stimuli/videos/hippopolis_part1.mp4,HORGONY UTCA,stimuli/objects/050a.jpg,object,0,stimuli/objects/050a.jpg,stimuli/objects/050a.jpg,stimuli/scenes/012a.jpg,stimuli/objects/050b.jpg,stimuli/scenes/012b.jpg,target,dist1,lure,dist2,0,0,0,0,0,16,16,67,,,,,,,93.9672706220299,95.00287618860602,95.00287618860602,95.00287618860602,95.00287618860602,95.00287618860602,95.00287618860602,95.00287618860602,95.00287618860602,95.00287618860602,95.00287618860602,95.00287618860602,95.00287618860602,,d,2.3937189802527428,target,None,,,,,,,,,,,,,,,,ST04_112822,2022-11-29_16h21.45.848,Hippopolis_4AFCT,2022.2.2,59.99716392154619,
Hippopolis,stimuli/subj_files/ST04_112822_cityA.csv,./stimuli/seattle.jpg,./stimuli/street_plate1.png,./stimuli/videos/hippopolis_part1.mp4,LEGELŐ UTCA,stimuli/scenes/082a.jpg,scene,1,stimuli/scenes/080a.jpg,stimuli/scenes/080a.jpg,stimuli/scenes/080b.jpg,stimuli/objects/092a.jpg,stimuli/objects/092b.jpg,target,lure,dist1,dist2,0,0,0,0,0,17,17,6,,,,,,,97.41751239821315,98.48676232434809,98.48676232434809,98.48676232434809,98.48676232434809,98.48676232434809,98.48676232434809,98.48676232434809,98.48676232434809,98.48676232434809,98.48676232434809,98.48676232434809,98.48676232434809,,d,2.7501528300344944,target,None,,,,,,,,,,,,,,,,ST04_112822,2022-11-29_16h21.45.848,Hippopolis_4AFCT,2022.2.2,59.99716392154619,
Hippopolis,stimuli/subj_files/ST04_112822_cityA.csv,./stimuli/seattle.jpg,./stimuli/street_plate1.png,./stimuli/videos/hippopolis_part1.mp4,SZAXOFON UTCA,stimuli/scenes/011a.jpg,scene,2,stimuli/objects/039a.jpg,stimuli/objects/039a.jpg,stimuli/objects/039b.jpg,stimuli/scenes/023b.jpg,stimuli/scenes/023a.jpg,target,lure,dist2,dist1,0,0,0,0,0,18,18,29,,,,,,,101.26445962116122,102.3263732176274,102.3263732176274,102.3263732176274,102.3263732176274,102.3263732176274,102.3263732176274,102.3263732176274,102.3263732176274,102.3263732176274,102.3263732176274,102.3263732176274,102.3263732176274,105.75130685046315,j,3.8224201407283545,dist2,None,,,,,,,,,,,,,,,,ST04_112822,2022-11-29_16h21.45.848,Hippopolis_4AFCT,2022.2.2,59.99716392154619,
Hippopolis,stimuli/subj_files/ST04_112822_cityA.csv,./stimuli/seattle.jpg,./stimuli/street_plate1.png,./stimuli/videos/hippopolis_part1.mp4,MUNKA UTCA,stimuli/objects/025a.jpg,object,2,stimuli/scenes/023a.jpg,stimuli/scenes/114b.jpg,stimuli/scenes/114a.jpg,stimuli/scenes/023a.jpg,stimuli/scenes/023b.jpg,dist2,dist1,target,lure,0,0,0,0,0,19,19,16,,,,,,,106.17730132304132,107.23710909672081,107.23710909672081,107.23710909672081,107.23710909672081,107.23710909672081,107.23710909672081,107.23710909672081,107.23710909672081,107.23710909672081,107.23710909672081,107.23710909672081,107.23710909672081,,j,2.4470780342817307,target,None,,,,,,,,,,,,,,,,ST04_112822,2022-11-29_16h21.45.848,Hippopolis_4AFCT,2022.2.2,59.99716392154619,
Hippopolis,stimuli/subj_files/ST04_112822_cityA.csv,./stimuli/seattle.jpg,./stimuli/street_plate1.png,./stimuli/videos/hippopolis_part1.mp4,TIGRIS UTCA,stimuli/objects/041a.jpg,object,2,stimuli/scenes/086a.jpg,stimuli/scenes/086b.jpg,stimuli/scenes/024a.jpg,stimuli/scenes/024b.jpg,stimuli/scenes/086a.jpg,lure,dist1,dist2,target,0,0,0,0,0,20,20,57,,,,,,,109.70051919482648,110.74494334869087,110.74494334869087,110.74494334869087,110.74494334869087,110.74494334869087,110.74494334869087,110.74494334869087,110.74494334869087,110.74494334869087,110.74494334869087,110.74494334869087,110.74494334869087,,k,2.4110672269016504,target,None,,,,,,,,,,,,,,,,ST04_112822,2022-11-29_16h21.45.848,Hippopolis_4AFCT,2022.2.2,59.99716392154619,
Hippopolis,stimuli/subj_files/ST04_112822_cityA.csv,./stimuli/seattle.jpg,./stimuli/street_plate1.png,./stimuli/videos/hippopolis_part1.mp4,TELEP UTCA,stimuli/objects/074a.jpg,object,1,stimuli/objects/036a.jpg,stimuli/scenes/044b.jpg,stimuli/objects/036a.jpg,stimuli/objects/036b.jpg,stimuli/scenes/044a.jpg,dist2,target,lure,dist1,0,0,0,0,0,21,21,9,,,,,,,113.18266182951629,114.23617483302951,114.23617483302951,114.23617483302951,114.23617483302951,114.23617483302951,114.23617483302951,114.23617483302951,114.23617483302951,114.23617483302951,114.23617483302951,114.23617483302951,114.23617483302951,,k,3.0806061420589685,dist1,None,,,,,,,,,,,,,,,,ST04_112822,2022-11-29_16h21.45.848,Hippopolis_4AFCT,2022.2.2,59.99716392154619,
Hippopolis,stimuli/subj_files/ST04_112822_cityA.csv,./stimuli/seattle.jpg,./stimuli/street_plate1.png,./stimuli/videos/hippopolis_part1.mp4,KORONA UTCA,stimuli/scenes/025a.jpg,scene,2,stimuli/objects/104a.jpg,stimuli/scenes/074a.jpg,stimuli/objects/104a.jpg,stimuli/objects/104b.jpg,stimuli/scenes/074b.jpg,dist1,target,lure,dist2,0,0,0,0,0,22,22,17,,,,,,,117.33690887130797,118.3862357288599,118.3862357288599,118.3862357288599,118.3862357288599,118.3862357288599,118.3862357288599,118.3862357288599,118.3862357288599,118.3862357288599,118.3862357288599,118.3862357288599,118.3862357288599,,f,2.306126829236746,target,None,,,,,,,,,,,,,,,,ST04_112822,2022-11-29_16h21.45.848,Hippopolis_4AFCT,2022.2.2,59.99716392154619,
Hippopolis,stimuli/subj_files/ST04_112822_cityA.csv,./stimuli/seattle.jpg,./stimuli/street_plate1.png,./stimuli/videos/hippopolis_part1.mp4,PULÓVER UTCA,stimuli/objects/093a.jpg,object,1,stimuli/objects/106a.jpg,stimuli/objects/106b.jpg,stimuli/objects/106a.jpg,stimuli/objects/076b.jpg,stimuli/objects/076a.jpg,lure,target,dist2,dist1,0,0,0,0,0,23,23,42,,,,,,,120.72927049174905,121.78945458307862,121.78945458307862,121.78945458307862,121.78945458307862,121.78945458307862,121.78945458307862,121.78945458307862,121.78945458307862,121.78945458307862,121.78945458307862,121.78945458307862,121.78945458307862,,f,2.7429468128830194,target,None,,,,,,,,,,,,,,,,ST04_112822,2022-11-29_16h21.45.848,Hippopolis_4AFCT,2022.2.2,59.99716392154619,
Hippopolis,stimuli/subj_files/ST04_112822_cityA.csv,./stimuli/seattle.jpg,./stimuli/street_plate1.png,./stimuli/videos/hippopolis_part1.mp4,KÖTÉNY UTCA,stimuli/objects/114a.jpg,object,0,stimuli/objects/114a.jpg,stimuli/scenes/116b.jpg,stimuli/objects/114b.jpg,stimuli/objects/114a.jpg,stimuli/scenes/116a.jpg,dist2,lure,target,dist1,0,0,0,0,0,24,24,3,,,,,,,124.5670001078397,125.64835471473634,125.64835471473634,125.64835471473634,125.64835471473634,125.64835471473634,125.64835471473634,125.64835471473634,125.64835471473634,125.64835471473634,125.64835471473634,125.64835471473634,125.64835471473634,,j,2.3713616635650396,target,None,,,,,,,,,,,,,,,,ST04_112822,2022-11-29_16h21.45.848,Hippopolis_4AFCT,2022.2.2,59.99716392154619,
Hippopolis,stimuli/subj_files/ST04_112822_cityA.csv,./stimuli/seattle.jpg,./stimuli/street_plate1.png,./stimuli/videos/hippopolis_part1.mp4,KANÁL UTCA,stimuli/objects/072a.jpg,object,2,stimuli/scenes/100a.jpg,stimuli/objects/019a.jpg,stimuli/scenes/100b.jpg,stimuli/scenes/100a.jpg,stimuli/objects/019b.jpg,dist1,lure,target,dist2,0,0,0,0,0,25,25,5,,,,,,,128.05051023699343,129.09847768582404,129.09847768582404,129.09847768582404,129.09847768582404,129.09847768582404,129.09847768582404,129.09847768582404,129.09847768582404,129.09847768582404,129.09847768582404,129.09847768582404,129.09847768582404,,d,2.873431721702218,dist1,None,,,,,,,,,,,,,,,,ST04_112822,2022-11-29_16h21.45.848,Hippopolis_4AFCT,2022.2.2,59.99716392154619,
Hippopolis,stimuli/subj_files/ST04_112822_cityA.csv,./stimuli/seattle.jpg,./stimuli/street_plate1.png,./stimuli/videos/hippopolis_part1.mp4,TALICSKA UTCA,stimuli/objects/015a.jpg,object,2,stimuli/scenes/074a.jpg,stimuli/scenes/074a.jpg,stimuli/scenes/074b.jpg,stimuli/objects/104b.jpg,stimuli/objects/104a.jpg,target,lure,dist2,dist1,0,0,0,0,0,26,26,15,,,,,,,131.99459097720683,133.04310953058302,133.04310953058302,133.04310953058302,133.04310953058302,133.04310953058302,133.04310953058302,133.04310953058302,133.04310953058302,133.04310953058302,133.04310953058302,133.04310953058302,133.04310953058302,136.4951470568776,d,3.745072539895773,target,None,,,,,,,,,,,,,,,,ST04_112822,2022-11-29_16h21.45.848,Hippopolis_4AFCT,2022.2.2,59.99716392154619,
Hippopolis,stimuli/subj_files/ST04_112822_cityA.csv,./stimuli/seattle.jpg,./stimuli/street_plate1.png,./stimuli/videos/hippopolis_part1.mp4,FIÓK UTCA,stimuli/scenes/104a.jpg,scene,1,stimuli/scenes/045a.jpg,stimuli/scenes/045a.jpg,stimuli/scenes/026a.jpg,stimuli/scenes/045b.jpg,stimuli/scenes/026b.jpg,target,dist1,lure,dist2,0,0,0,0,0,27,27,63,,,,,,,136.82485364191234,137.8631658963859,137.8631658963859,137.8631658963859,137.8631658963859,137.8631658963859,137.8631658963859,137.8631658963859,137.8631658963859,137.8631658963859,137.8631658963859,137.8631658963859,137.8631658963859,141.32466610521078,j,3.4693464022129774,lure,None,,,,,,,,,,,,,,,,ST04_112822,2022-11-29_16h21.45.848,Hippopolis_4AFCT,2022.2.2,59.99716392154619,
Hippopolis,stimuli/subj_files/ST04_112822_cityA.csv,./stimuli/seattle.jpg,./stimuli/street_plate1.png,./stimuli/videos/hippopolis_part1.mp4,BETON UTCA,stimuli/scenes/041a.jpg,scene,2,stimuli/objects/079a.jpg,stimuli/scenes/067b.jpg,stimuli/scenes/067a.jpg,stimuli/objects/079b.jpg,stimuli/objects/079a.jpg,dist2,dist1,lure,target,0,0,0,0,0,28,28,47,,,,,,,141.37166818976402,142.43258749879897,142.43258749879897,142.43258749879897,142.43258749879897,142.43258749879897,142.43258749879897,142.43258749879897,142.43258749879897,142.43258749879897,142.43258749879897,142.43258749879897,142.43258749879897,,k,1.8912806902080774,target,None,,,,,,,,,,,,,,,,ST04_112822,2022-11-29_16h21.45.848,Hippopolis_4AFCT,2022.2.2,59.99716392154619,
Hippopolis,stimuli/subj_files/ST04_112822_cityA.csv,./stimuli/seattle.jpg,./stimuli/street_plate1.png,./stimuli/videos/hippopolis_part1.mp4,HARMONIKA UTCA,stimuli/scenes/016a.jpg,scene,1,stimuli/scenes/097a.jpg,stimuli/objects/080a.jpg,stimuli/objects/080b.jpg,stimuli/scenes/097b.jpg,stimuli/scenes/097a.jpg,dist1,dist2,lure,target,0,0,0,0,0,29,29,62,,,,,,,144.35327744856477,145.40647820197046,145.40647820197046,145.40647820197046,145.40647820197046,145.40647820197046,145.40647820197046,145.40647820197046,145.40647820197046,145.40647820197046,145.40647820197046,145.40647820197046,145.40647820197046,,k,2.5970904119312763,target,None,,,,,,,,,,,,,,,,ST04_112822,2022-11-29_16h21.45.848,Hippopolis_4AFCT,2022.2.2,59.99716392154619,
Hippopolis,stimuli/subj_files/ST04_112822_cityA.csv,./stimuli/seattle.jpg,./stimuli/street_plate1.png,./stimuli/videos/hippopolis_part1.mp4,HÁRFA UTCA,stimuli/objects/007a.jpg,object,1,stimuli/objects/094a.jpg,stimuli/objects/094b.jpg,stimuli/objects/094a.jpg,stimuli/scenes/069b.jpg,stimuli/scenes/069a.jpg,lure,target,dist2,dist1,0,0,0,0,0,30,30,59,,,,,,,148.04284766316414,149.09308794513345,149.09308794513345,149.09308794513345,149.09308794513345,149.09308794513345,149.09308794513345,149.09308794513345,149.09308794513345,149.09308794513345,149.09308794513345,149.09308794513345,149.09308794513345,,f,2.7824443131685257,target,None,,,,,,,,,,,,,,,,ST04_112822,2022-11-29_16h21.45.848,Hippopolis_4AFCT,2022.2.2,59.99716392154619,
Hippopolis,stimuli/subj_files/ST04_112822_cityA.csv,./stimuli/seattle.jpg,./stimuli/street_plate1.png,./stimuli/videos/hippopolis_part1.mp4,REPÜLŐ UTCA,stimuli/scenes/075a.jpg,scene,2,stimuli/objects/019a.jpg,stimuli/objects/019b.jpg,stimuli/scenes/031a.jpg,stimuli/objects/019a.jpg,stimuli/scenes/031b.jpg,lure,dist1,target,dist2,0,0,0,0,0,31,31,73,,,,,,,151.90003632567823,152.9406183063984,152.9406183063984,152.9406183063984,152.9406183063984,152.9406183063984,152.9406183063984,152.9406183063984,152.9406183063984,152.9406183063984,152.9406183063984,152.9406183063984,152.9406183063984,156.38748255372047,j,4.007177222520113,target,None,,,,,,,,,,,,,,,,ST04_112822,2022-11-29_16h21.45.848,Hippopolis_4AFCT,2022.2.2,59.99716392154619,
Hippopolis,stimuli/subj_files/ST04_112822_cityA.csv,./stimuli/seattle.jpg,./stimuli/street_plate1.png,./stimuli/videos/hippopolis_part1.mp4,ÁLLOMÁS UTCA,stimuli/objects/017a.jpg,object,2,stimuli/scenes/109a.jpg,stimuli/scenes/109b.jpg,stimuli/objects/059b.jpg,stimuli/scenes/109a.jpg,stimuli/objects/059a.jpg,lure,dist2,target,dist1,0,0,0,0,0,32,32,22,,,,,,,156.97093676403165,158.03645337186754,158.03645337186754,158.03645337186754,158.03645337186754,158.03645337186754,158.03645337186754,158.03645337186754,158.03645337186754,158.03645337186754,158.03645337186754,158.03645337186754,158.03645337186754,,j,2.047230802476406,target,None,,,,,,,,,,,,,,,,ST04_112822,2022-11-29_16h21.45.848,Hippopolis_4AFCT,2022.2.2,59.99716392154619,
Hippopolis,stimuli/subj_files/ST04_112822_cityA.csv,./stimuli/seattle.jpg,./stimuli/street_plate1.png,./stimuli/videos/hippopolis_part1.mp4,BOHÓC UTCA,stimuli/scenes/113a.jpg,scene,2,stimuli/objects/013a.jpg,stimuli/scenes/100b.jpg,stimuli/objects/013b.jpg,stimuli/objects/013a.jpg,stimuli/scenes/100a.jpg,dist2,lure,target,dist1,0,0,0,0,0,33,33,23,,,,,,,160.127880230546,161.1866159643978,161.1866159643978,161.1866159643978,161.1866159643978,161.1866159643978,161.1866159643978,161.1866159643978,161.1866159643978,161.1866159643978,161.1866159643978,161.1866159643978,161.1866159643978,,f,2.3210134599357843,lure,None,,,,,,,,,,,,,,,,ST04_112822,2022-11-29_16h21.45.848,Hippopolis_4AFCT,2022.2.2,59.99716392154619,
Hippopolis,stimuli/subj_files/ST04_112822_cityA.csv,./stimuli/seattle.jpg,./stimuli/street_plate1.png,./stimuli/videos/hippopolis_part1.mp4,PAPUCS UTCA,stimuli/scenes/053a.jpg,scene,2,stimuli/objects/054a.jpg,stimuli/objects/061a.jpg,stimuli/objects/054a.jpg,stimuli/objects/054b.jpg,stimuli/objects/061b.jpg,dist1,target,lure,dist2,0,0,0,0,0,34,34,11,,,,,,,163.5313998274505,164.58787858858705,164.58787858858705,164.58787858858705,164.58787858858705,164.58787858858705,164.58787858858705,164.58787858858705,164.58787858858705,164.58787858858705,164.58787858858705,164.58787858858705,164.58787858858705,,f,2.455596810206771,target,None,,,,,,,,,,,,,,,,ST04_112822,2022-11-29_16h21.45.848,Hippopolis_4AFCT,2022.2.2,59.99716392154619,
Hippopolis,stimuli/subj_files/ST04_112822_cityA.csv,./stimuli/seattle.jpg,./stimuli/street_plate1.png,./stimuli/videos/hippopolis_part1.mp4,LAKAT UTCA,stimuli/objects/014a.jpg,object,0,stimuli/objects/014a.jpg,stimuli/scenes/087a.jpg,stimuli/objects/014b.jpg,stimuli/objects/014a.jpg,stimuli/scenes/087b.jpg,dist1,lure,target,dist2,0,0,0,0,0,35,35,21,,,,,,,167.0665479041636,168.12020459398627,168.12020459398627,168.12020459398627,168.12020459398627,168.12020459398627,168.12020459398627,168.12020459398627,168.12020459398627,168.12020459398627,168.12020459398627,168.12020459398627,168.12020459398627,,j,3.1476843114942312,target,None,,,,,,,,,,,,,,,,ST04_112822,2022-11-29_16h21.45.848,Hippopolis_4AFCT,2022.2.2,59.99716392154619,
Hippopolis,stimuli/subj_files/ST04_112822_cityA.csv,./stimuli/seattle.jpg,./stimuli/street_plate1.png,./stimuli/videos/hippopolis_part1.mp4,SZIKLA UTCA,stimuli/objects/102a.jpg,object,1,stimuli/objects/008a.jpg,stimuli/objects/008b.jpg,stimuli/scenes/079a.jpg,stimuli/objects/008a.jpg,stimuli/scenes/079b.jpg,lure,dist1,target,dist2,0,0,0,0,0,36,36,19,,,,,,,171.30006114393473,172.34486814588308,172.34486814588308,172.34486814588308,172.34486814588308,172.34486814588308,172.34486814588308,172.34486814588308,172.34486814588308,172.34486814588308,172.34486814588308,172.34486814588308,172.34486814588308,,j,2.666852256283164,target,None,,,,,,,,,,,,,,,,ST04_112822,2022-11-29_16h21.45.848,Hippopolis_4AFCT,2022.2.2,59.99716392154619,
Hippopolis,stimuli/subj_files/ST04_112822_cityA.csv,./stimuli/seattle.jpg,./stimuli/street_plate1.png,./stimuli/videos/hippopolis_part1.mp4,TRIATLON UTCA,stimuli/scenes/039a.jpg,scene,2,stimuli/objects/107a.jpg,stimuli/objects/107b.jpg,stimuli/scenes/058a.jpg,stimuli/scenes/058b.jpg,stimuli/objects/107a.jpg,lure,dist1,dist2,target,0,0,0,0,0,37,37,52,,,,,,,175.04100028425455,176.09105178713799,176.09105178713799,176.09105178713799,176.09105178713799,176.09105178713799,176.09105178713799,176.09105178713799,176.09105178713799,176.09105178713799,176.09105178713799,176.09105178713799,176.09105178713799,,f,2.2643319237977266,dist1,None,,,,,,,,,,,,,,,,ST04_112822,2022-11-29_16h21.45.848,Hippopolis_4AFCT,2022.2.2,59.99716392154619,
Hippopolis,stimuli/subj_files/ST04_112822_cityA.csv,./stimuli/seattle.jpg,./stimuli/street_plate1.png,./stimuli/videos/hippopolis_part1.mp4,VÁSÁR UTCA,stimuli/scenes/118a.jpg,scene,0,stimuli/scenes/118a.jpg,stimuli/objects/033a.jpg,stimuli/scenes/118b.jpg,stimuli/objects/033b.jpg,stimuli/scenes/118a.jpg,dist1,lure,dist2,target,0,0,0,0,0,38,38,64,,,,,,,178.38062859512866,179.4633466526866,179.4633466526866,179.4633466526866,179.4633466526866,179.4633466526866,179.4633466526866,179.4633466526866,179.4633466526866,179.4633466526866,179.4633466526866,179.4633466526866,179.4633466526866,,k,2.10852331854403,target,None,,,,,,,,,,,,,,,,ST04_112822,2022-11-29_16h21.45.848,Hippopolis_4AFCT,2022.2.2,59.99716392154619,
Hippopolis,stimuli/subj_files/ST04_112822_cityA.csv,./stimuli/seattle.jpg,./stimuli/street_plate1.png,./stimuli/videos/hippopolis_part1.mp4,SÜTEMÉNY UTCA,stimuli/objects/101a.jpg,object,1,stimuli/objects/047a.jpg,stimuli/objects/047b.jpg,stimuli/objects/047a.jpg,stimuli/scenes/077a.jpg,stimuli/scenes/077b.jpg,lure,target,dist1,dist2,0,0,0,0,0,39,39,77,,,,,,,181.6012649256736,182.68584560230374,182.68584560230374,182.68584560230374,182.68584560230374,182.68584560230374,182.68584560230374,182.68584560230374,182.68584560230374,182.68584560230374,182.68584560230374,182.68584560230374,182.68584560230374,,f,2.3899097722023726,target,None,,,,,,,,,,,,,,,,ST04_112822,2022-11-29_16h21.45.848,Hippopolis_4AFCT,2022.2.2,59.99716392154619,
Hippopolis,stimuli/subj_files/ST04_112822_cityA.csv,./stimuli/seattle.jpg,./stimuli/street_plate1.png,./stimuli/videos/hippopolis_part1.mp4,SZALVÉTA UTCA,stimuli/objects/055a.jpg,object,0,stimuli/objects/055a.jpg,stimuli/scenes/088b.jpg,stimuli/scenes/088a.jpg,stimuli/objects/055a.jpg,stimuli/objects/055b.jpg,dist2,dist1,target,lure,0,0,0,0,0,40,40,49,,,,,,,185.09862541407347,186.15283507294953,186.15283507294953,186.15283507294953,186.15283507294953,186.15283507294953,186.15283507294953,186.15283507294953,186.15283507294953,186.15283507294953,186.15283507294953,186.15283507294953,186.15283507294953,,j,2.378914764150977,target,None,,,,,,,,,,,,,,,,ST04_112822,2022-11-29_16h21.45.848,Hippopolis_4AFCT,2022.2.2,59.99716392154619,
Hippopolis,stimuli/subj_files/ST04_112822_cityA.csv,./stimuli/seattle.jpg,./stimuli/street_plate1.png,./stimuli/videos/hippopolis_part1.mp4,FOLYÓ UTCA,stimuli/objects/044a.jpg,object,0,stimuli/objects/044a.jpg,stimuli/objects/044a.jpg,stimuli/objects/044b.jpg,stimuli/objects/014b.jpg,stimuli/objects/014a.jpg,target,lure,dist2,dist1,0,0,0,0,0,41,41,33,,,,,,,188.54969820007682,189.6031931657344,189.6031931657344,189.6031931657344,189.6031931657344,189.6031931657344,189.6031931657344,189.6031931657344,189.6031931657344,189.6031931657344,189.6031931657344,189.6031931657344,189.6031931657344,,d,1.824727188795805,target,None,,,,,,,,,,,,,,,,ST04_112822,2022-11-29_16h21.45.848,Hippopolis_4AFCT,2022.2.2,59.99716392154619,
Hippopolis,stimuli/subj_files/ST04_112822_cityA.csv,./stimuli/seattle.jpg,./stimuli/street_plate1.png,./stimuli/videos/hippopolis_part1.mp4,PÁRNA UTCA,stimuli/objects/058a.jpg,object,2,stimuli/scenes/081a.jpg,stimuli/objects/120a.jpg,stimuli/objects/120b.jpg,stimuli/scenes/081a.jpg,stimuli/scenes/081b.jpg,dist1,dist2,target,lure,0,0,0,0,0,42,42,28,,,,,,,191.45185061357915,192.494739016518,192.494739016518,192.494739016518,192.494739016518,192.494739016518,192.494739016518,192.494739016518,192.494739016518,192.494739016518,192.494739016518,192.494739016518,192.494739016518,,j,2.644295273348689,target,None,192.494739016518,,,,,,,,,,,,,,,ST04_112822,2022-11-29_16h21.45.848,Hippopolis_4AFCT,2022.2.2,59.99716392154619,
Hippopolis,stimuli/subj_files/ST04_112822_cityA.csv,./stimuli/seattle.jpg,./stimuli/street_plate1.png,./stimuli/videos/hippopolis_part1.mp4,ZEBRA UTCA,stimuli/objects/033a.jpg,object,0,stimuli/objects/033a.jpg,stimuli/objects/033b.jpg,stimuli/objects/033a.jpg,stimuli/objects/095b.jpg,stimuli/objects/095a.jpg,lure,target,dist2,dist1,0,0,0,0,0,43,43,70,,,,,,,195.1701400913298,196.23019418120384,196.23019418120384,196.23019418120384,196.23019418120384,196.23019418120384,196.23019418120384,196.23019418120384,196.23019418120384,196.23019418120384,196.23019418120384,196.23019418120384,196.23019418120384,,f,3.085475878790021,target,None,,,,,,,,,,,,,,,,ST04_112822,2022-11-29_16h21.45.848,Hippopolis_4AFCT,2022.2.2,59.99716392154619,
Hippopolis,stimuli/subj_files/ST04_112822_cityA.csv,./stimuli/seattle.jpg,./stimuli/street_plate1.png,./stimuli/videos/hippopolis_part1.mp4,TENISZ UTCA,stimuli/scenes/090a.jpg,scene,1,stimuli/scenes/112a.jpg,stimuli/objects/047b.jpg,stimuli/scenes/112a.jpg,stimuli/objects/047a.jpg,stimuli/scenes/112b.jpg,dist2,target,dist1,lure,0,0,0,0,0,44,44,72,,,,,,,199.3344189543277,200.39904483780265,200.39904483780265,200.39904483780265,200.39904483780265,200.39904483780265,200.39904483780265,200.39904483780265,200.39904483780265,200.39904483780265,200.39904483780265,200.39904483780265,200.39904483780265,,f,2.1002465058118105,target,space,,202.5202095080167,202.5202095080167,2.9866862539201975,,,,,,,,,,,,ST04_112822,2022-11-29_16h21.45.848,Hippopolis_4AFCT,2022.2.2,59.99716392154619,
Hippopolis,stimuli/subj_files/ST04_112822_cityA.csv,./stimuli/seattle.jpg,./stimuli/street_plate1.png,./stimuli/videos/hippopolis_part1.mp4,KRÉTA UTCA,stimuli/scenes/071a.jpg,scene,0,stimuli/scenes/071a.jpg,stimuli/scenes/118a.jpg,stimuli/scenes/071a.jpg,stimuli/scenes/071b.jpg,stimuli/scenes/118b.jpg,dist1,target,lure,dist2,0,0,0,0,0,45,45,51,,,,,,,205.52808201126754,206.5755611807108,206.5755611807108,206.5755611807108,206.5755611807108,206.5755611807108,206.5755611807108,206.5755611807108,206.5755611807108,206.5755611807108,206.5755611807108,206.5755611807108,206.5755611807108,,f,2.6918842289596796,target,None,,,,,,,,,,,,,,,,ST04_112822,2022-11-29_16h21.45.848,Hippopolis_4AFCT,2022.2.2,59.99716392154619,
Hippopolis,stimuli/subj_files/ST04_112822_cityA.csv,./stimuli/seattle.jpg,./stimuli/street_plate1.png,./stimuli/videos/hippopolis_part1.mp4,KESELYŰ UTCA,stimuli/scenes/046a.jpg,scene,2,stimuli/objects/061a.jpg,stimuli/scenes/081b.jpg,stimuli/objects/061b.jpg,stimuli/scenes/081a.jpg,stimuli/objects/061a.jpg,dist2,lure,dist1,target,0,0,0,0,0,46,46,75,,,,,,,209.2995343003422,210.3634181227535,210.3634181227535,210.3634181227535,210.3634181227535,210.3634181227535,210.3634181227535,210.3634181227535,210.3634181227535,210.3634181227535,210.3634181227535,210.3634181227535,210.3634181227535,,k,2.200116878375411,target,None,,,,,,,,,,,,,,,,ST04_112822,2022-11-29_16h21.45.848,Hippopolis_4AFCT,2022.2.2,59.99716392154619,
Hippopolis,stimuli/subj_files/ST04_112822_cityA.csv,./stimuli/seattle.jpg,./stimuli/street_plate1.png,./stimuli/videos/hippopolis_part1.mp4,LÉTRA UTCA,stimuli/scenes/034a.jpg,scene,1,stimuli/scenes/040a.jpg,stimuli/scenes/040a.jpg,stimuli/scenes/080a.jpg,stimuli/scenes/040b.jpg,stimuli/scenes/080b.jpg,target,dist1,lure,dist2,0,0,0,0,0,47,47,18,,,,,,,212.60248220525682,213.6422390844673,213.6422390844673,213.6422390844673,213.6422390844673,213.6422390844673,213.6422390844673,213.6422390844673,213.6422390844673,213.6422390844673,213.6422390844673,213.6422390844673,213.6422390844673,217.09983958303928,d,3.721329690888524,target,None,,,,,,,,,,,,,,,,ST04_112822,2022-11-29_16h21.45.848,Hippopolis_4AFCT,2022.2.2,59.99716392154619,
Hippopolis,stimuli/subj_files/ST04_112822_cityA.csv,./stimuli/seattle.jpg,./stimuli/street_plate1.png,./stimuli/videos/hippopolis_part1.mp4,SIRÁLY UTCA,stimuli/scenes/054a.jpg,scene,1,stimuli/scenes/111a.jpg,stimuli/scenes/111b.jpg,stimuli/objects/109a.jpg,stimuli/objects/109b.jpg,stimuli/scenes/111a.jpg,lure,dist1,dist2,target,0,0,0,0,0,48,48,12,,,,,,,217.38471957296133,218.44014868699014,218.44014868699014,218.44014868699014,218.44014868699014,218.44014868699014,218.44014868699014,218.44014868699014,218.44014868699014,218.44014868699014,218.44014868699014,218.44014868699014,218.44014868699014,,f,2.2994958609342575,dist1,None,,,,,,,,,,,,,,,,ST04_112822,2022-11-29_16h21.45.848,Hippopolis_4AFCT,2022.2.2,59.99716392154619,
Hippopolis,stimuli/subj_files/ST04_112822_cityA.csv,./stimuli/seattle.jpg,./stimuli/street_plate1.png,./stimuli/videos/hippopolis_part1.mp4,TÜKÖR UTCA,stimuli/scenes/050a.jpg,scene,1,stimuli/scenes/070a.jpg,stimuli/objects/075b.jpg,stimuli/scenes/070b.jpg,stimuli/scenes/070a.jpg,stimuli/objects/075a.jpg,dist2,lure,target,dist1,0,0,0,0,0,49,49,1,,,,,,,220.76605632714927,221.81213068030775,221.81213068030775,221.81213068030775,221.81213068030775,221.81213068030775,221.81213068030775,221.81213068030775,221.81213068030775,221.81213068030775,221.81213068030775,221.81213068030775,221.81213068030775,225.27220368012786,j,4.479248536750674,target,None,,,,,,,,,,,,,,,,ST04_112822,2022-11-29_16h21.45.848,Hippopolis_4AFCT,2022.2.2,59.99716392154619,
Hippopolis,stimuli/subj_files/ST04_112822_cityA.csv,./stimuli/seattle.jpg,./stimuli/street_plate1.png,./stimuli/videos/hippopolis_part1.mp4,KÖTÉL UTCA,stimuli/objects/078a.jpg,object,2,stimuli/scenes/018a.jpg,stimuli/scenes/018b.jpg,stimuli/scenes/018a.jpg,stimuli/objects/013b.jpg,stimuli/objects/013a.jpg,lure,target,dist2,dist1,0,0,0,0,0,50,50,37,,,,,,,226.31765975244343,227.3734334614128,227.3734334614128,227.3734334614128,227.3734334614128,227.3734334614128,227.3734334614128,227.3734334614128,227.3734334614128,227.3734334614128,227.3734334614128,227.3734334614128,227.3734334614128,230.823461888358,f,3.4938107896596193,target,None,,,,,,,,,,,,,,,,ST04_112822,2022-11-29_16h21.45.848,Hippopolis_4AFCT,2022.2.2,59.99716392154619,
Hippopolis,stimuli/subj_files/ST04_112822_cityA.csv,./stimuli/seattle.jpg,./stimuli/street_plate1.png,./stimuli/videos/hippopolis_part1.mp4,LÁNDZSA UTCA,stimuli/scenes/087a.jpg,scene,0,stimuli/scenes/087a.jpg,stimuli/objects/082b.jpg,stimuli/objects/082a.jpg,stimuli/scenes/087b.jpg,stimuli/scenes/087a.jpg,dist2,dist1,lure,target,0,0,0,0,0,51,51,50,,,,,,,230.8970736786723,231.93566304072738,231.93566304072738,231.93566304072738,231.93566304072738,231.93566304072738,231.93566304072738,231.93566304072738,231.93566304072738,231.93566304072738,231.93566304072738,231.93566304072738,231.93566304072738,,k,1.8279305528849363,target,None,,,,,,,,,,,,,,,,ST04_112822,2022-11-29_16h21.45.848,Hippopolis_4AFCT,2022.2.2,59.99716392154619,
Hippopolis,stimuli/subj_files/ST04_112822_cityA.csv,./stimuli/seattle.jpg,./stimuli/street_plate1.png,./stimuli/videos/hippopolis_part1.mp4,RÓZSA UTCA,stimuli/objects/021a.jpg,object,0,stimuli/objects/021a.jpg,stimuli/objects/021a.jpg,stimuli/objects/021b.jpg,stimuli/objects/114a.jpg,stimuli/objects/114b.jpg,target,lure,dist1,dist2,0,0,0,0,0,52,52,8,,,,,,,233.79027190804482,234.8390585463494,234.8390585463494,234.8390585463494,234.8390585463494,234.8390585463494,234.8390585463494,234.8390585463494,234.8390585463494,234.8390585463494,234.8390585463494,234.8390585463494,234.8390585463494,,d,2.3801855370402336,target,None,,,,,,,,,,,,,,,,ST04_112822,2022-11-29_16h21.45.848,Hippopolis_4AFCT,2022.2.2,59.99716392154619,
Hippopolis,stimuli/subj_files/ST04_112822_cityA.csv,./stimuli/seattle.jpg,./stimuli/street_plate1.png,./stimuli/videos/hippopolis_part1.mp4,SALÁTA UTCA,stimuli/objects/034a.jpg,object,1,stimuli/objects/109a.jpg,stimuli/objects/109a.jpg,stimuli/objects/109b.jpg,stimuli/scenes/112a.jpg,stimuli/scenes/112b.jpg,target,lure,dist1,dist2,0,0,0,0,0,53,53,45,,,,,,,237.24977545440197,238.3232815042138,238.3232815042138,238.3232815042138,238.3232815042138,238.3232815042138,238.3232815042138,238.3232815042138,238.3232815042138,238.3232815042138,238.3232815042138,238.3232815042138,238.3232815042138,241.74977949634194,d,4.223140370100737,target,None,,,,,,,,,,,,,,,,ST04_112822,2022-11-29_16h21.45.848,Hippopolis_4AFCT,2022.2.2,59.99716392154619,
Hippopolis,stimuli/subj_files/ST04_112822_cityA.csv,./stimuli/seattle.jpg,./stimuli/street_plate1.png,./stimuli/videos/hippopolis_part1.mp4,ÁLOM UTCA,stimuli/scenes/055a.jpg,scene,1,stimuli/scenes/028a.jpg,stimuli/objects/106a.jpg,stimuli/objects/106b.jpg,stimuli/scenes/028b.jpg,stimuli/scenes/028a.jpg,dist1,dist2,lure,target,0,0,0,0,0,54,54,4,,,,,,,242.5656677559018,243.62726630456746,243.62726630456746,243.62726630456746,243.62726630456746,243.62726630456746,243.62726630456746,243.62726630456746,243.62726630456746,243.62726630456746,243.62726630456746,243.62726630456746,243.62726630456746,,k,2.871649343520403,target,None,,,,,,,,,,,,,,,,ST04_112822,2022-11-29_16h21.45.848,Hippopolis_4AFCT,2022.2.2,59.99716392154619,
Hippopolis,stimuli/subj_files/ST04_112822_cityA.csv,./stimuli/seattle.jpg,./stimuli/street_plate1.png,./stimuli/videos/hippopolis_part1.mp4,KÓKUSZ UTCA,stimuli/objects/085a.jpg,object,2,stimuli/scenes/089a.jpg,stimuli/objects/043a.jpg,stimuli/objects/043b.jpg,stimuli/scenes/089a.jpg,stimuli/scenes/089b.jpg,dist1,dist2,target,lure,0,0,0,0,0,55,55,32,,,,,,,246.51594716496766,247.5524661578238,247.5524661578238,247.5524661578238,247.5524661578238,247.5524661578238,247.5524661578238,247.5524661578238,247.5524661578238,247.5524661578238,247.5524661578238,247.5524661578238,247.5524661578238,,f,2.850064257159829,dist2,None,,,,,,,,,,,,,,,,ST04_112822,2022-11-29_16h21.45.848,Hippopolis_4AFCT,2022.2.2,59.99716392154619,
Hippopolis,stimuli/subj_files/ST04_112822_cityA.csv,./stimuli/seattle.jpg,./stimuli/street_plate1.png,./stimuli/videos/hippopolis_part1.mp4,OROSZLÁN UTCA,stimuli/objects/084a.jpg,object,0,stimuli/objects/084a.jpg,stimuli/objects/055b.jpg,stimuli/objects/084a.jpg,stimuli/objects/084b.jpg,stimuli/objects/055a.jpg,dist2,target,lure,dist1,0,0,0,0,0,56,56,30,,,,,,,250.42468327097595,251.4769976567477,251.4769976567477,251.4769976567477,251.4769976567477,251.4769976567477,251.4769976567477,251.4769976567477,251.4769976567477,251.4769976567477,251.4769976567477,251.4769976567477,251.4769976567477,,f,1.8053676597774029,target,None,251.4769976567477,,,,,,,,,,,,,,,ST04_112822,2022-11-29_16h21.45.848,Hippopolis_4AFCT,2022.2.2,59.99716392154619,
Hippopolis,stimuli/subj_files/ST04_112822_cityA.csv,./stimuli/seattle.jpg,./stimuli/street_plate1.png,./stimuli/videos/hippopolis_part1.mp4,MARTINI UTCA,stimuli/objects/026a.jpg,object,2,stimuli/scenes/058a.jpg,stimuli/objects/088a.jpg,stimuli/objects/088b.jpg,stimuli/scenes/058b.jpg,stimuli/scenes/058a.jpg,dist1,dist2,lure,target,0,0,0,0,0,57,57,13,,,,,,,253.3262447733432,254.38584665954113,254.38584665954113,254.38584665954113,254.38584665954113,254.38584665954113,254.38584665954113,254.38584665954113,254.38584665954113,254.38584665954113,254.38584665954113,254.38584665954113,254.38584665954113,257.818928970024,d,4.352623527869582,dist1,None,,,,,,,,,,,,,,,,ST04_112822,2022-11-29_16h21.45.848,Hippopolis_4AFCT,2022.2.2,59.99716392154619,
Hippopolis,stimuli/subj_files/ST04_112822_cityA.csv,./stimuli/seattle.jpg,./stimuli/street_plate1.png,./stimuli/videos/hippopolis_part1.mp4,LIGET UTCA,stimuli/objects/029a.jpg,object,2,stimuli/scenes/021a.jpg,stimuli/scenes/021b.jpg,stimuli/scenes/021a.jpg,stimuli/scenes/086b.jpg,stimuli/scenes/086a.jpg,lure,target,dist2,dist1,0,0,0,0,0,58,58,38,,,,,,,258.766871785745,259.81237015500665,259.81237015500665,259.81237015500665,259.81237015500665,259.81237015500665,259.81237015500665,259.81237015500665,259.81237015500665,259.81237015500665,259.81237015500665,259.81237015500665,259.81237015500665,,f,3.1499957107007504,target,None,,,,,,,,,,,,,,,,ST04_112822,2022-11-29_16h21.45.848,Hippopolis_4AFCT,2022.2.2,59.99716392154619,
Hippopolis,stimuli/subj_files/ST04_112822_cityA.csv,./stimuli/seattle.jpg,./stimuli/street_plate1.png,./stimuli/videos/hippopolis_part1.mp4,ORVOS UTCA,stimuli/scenes/037a.jpg,scene,0,stimuli/scenes/037a.jpg,stimuli/objects/097a.jpg,stimuli/scenes/037b.jpg,stimuli/scenes/037a.jpg,stimuli/objects/097b.jpg,dist1,lure,target,dist2,0,0,0,0,0,59,59,74,,,,,,,262.981886677444,264.02372729964554,264.02372729964554,264.02372729964554,264.02372729964554,264.02372729964554,264.02372729964554,264.02372729964554,264.02372729964554,264.02372729964554,264.02372729964554,264.02372729964554,264.02372729964554,,j,2.6998183112591505,target,None,,,,,,,,,,,,,,,,ST04_112822,2022-11-29_16h21.45.848,Hippopolis_4AFCT,2022.2.2,59.99716392154619,
Hippopolis,stimuli/subj_files/ST04_112822_cityA.csv,./stimuli/seattle.jpg,./stimuli/street_plate1.png,./stimuli/videos/hippopolis_part1.mp4,SUGÁR UTCA,stimuli/objects/042a.jpg,object,1,stimuli/objects/080a.jpg,stimuli/objects/094b.jpg,stimuli/objects/094a.jpg,stimuli/objects/080a.jpg,stimuli/objects/080b.jpg,dist2,dist1,target,lure,0,0,0,0,0,60,60,60,,,,,,,266.74855506420135,267.8106621094048,267.8106621094048,267.8106621094048,267.8106621094048,267.8106621094048,267.8106621094048,267.8106621094048,267.8106621094048,267.8106621094048,267.8106621094048,267.8106621094048,267.8106621094048,,j,2.256396906450391,target,None,,,,,,,,,,,,,,,,ST04_112822,2022-11-29_16h21.45.848,Hippopolis_4AFCT,2022.2.2,59.99716392154619,
Hippopolis,stimuli/subj_files/ST04_112822_cityA.csv,./stimuli/seattle.jpg,./stimuli/street_plate1.png,./stimuli/videos/hippopolis_part1.mp4,MÁRVÁNY UTCA,stimuli/scenes/117a.jpg,scene,1,stimuli/scenes/026a.jpg,stimuli/scenes/026a.jpg,stimuli/scenes/028a.jpg,stimuli/scenes/026b.jpg,stimuli/scenes/028b.jpg,target,dist1,lure,dist2,0,0,0,0,0,61,61,69,,,,,,,270.113184556365,271.15384117886424,271.15384117886424,271.15384117886424,271.15384117886424,271.15384117886424,271.15384117886424,271.15384117886424,271.15384117886424,271.15384117886424,271.15384117886424,271.15384117886424,271.15384117886424,,d,1.8250288646668196,target,None,,,,,,,,,,,,,,,,ST04_112822,2022-11-29_16h21.45.848,Hippopolis_4AFCT,2022.2.2,59.99716392154619,
Hippopolis,stimuli/subj_files/ST04_112822_cityA.csv,./stimuli/seattle.jpg,./stimuli/street_plate1.png,./stimuli/videos/hippopolis_part1.mp4,KÍGYÓ UTCA,stimuli/scenes/052a.jpg,scene,0,stimuli/scenes/052a.jpg,stimuli/scenes/093b.jpg,stimuli/scenes/093a.jpg,stimuli/scenes/052b.jpg,stimuli/scenes/052a.jpg,dist2,dist1,lure,target,0,0,0,0,0,62,62,44,,,,,,,272.99638828262687,274.0499718859792,274.0499718859792,274.0499718859792,274.0499718859792,274.0499718859792,274.0499718859792,274.0499718859792,274.0499718859792,274.0499718859792,274.0499718859792,274.0499718859792,274.0499718859792,,k,2.5927649345248938,target,None,,,,,,,,,,,,,,,,ST04_112822,2022-11-29_16h21.45.848,Hippopolis_4AFCT,2022.2.2,59.99716392154619,
Hippopolis,stimuli/subj_files/ST04_112822_cityA.csv,./stimuli/seattle.jpg,./stimuli/street_plate1.png,./stimuli/videos/hippopolis_part1.mp4,KULLANCS UTCA,stimuli/objects/097a.jpg,object,0,stimuli/objects/097a.jpg,stimuli/objects/097a.jpg,stimuli/objects/050a.jpg,stimuli/objects/097b.jpg,stimuli/objects/050b.jpg,target,dist1,lure,dist2,0,0,0,0,0,63,63,76,,,,,,,276.6653017643839,277.7217512894422,277.7217512894422,277.7217512894422,277.7217512894422,277.7217512894422,277.7217512894422,277.7217512894422,277.7217512894422,277.7217512894422,277.7217512894422,277.7217512894422,277.7217512894422,,d,2.2804815527051687,target,None,,,,,,,,,,,,,,,,ST04_112822,2022-11-29_16h21.45.848,Hippopolis_4AFCT,2022.2.2,59.99716392154619,
Hippopolis,stimuli/subj_files/ST04_112822_cityA.csv,./stimuli/seattle.jpg,./stimuli/street_plate1.png,./stimuli/videos/hippopolis_part1.mp4,SZOBOR UTCA,stimuli/scenes/003a.jpg,scene,1,stimuli/scenes/010a.jpg,stimuli/scenes/010b.jpg,stimuli/objects/119a.jpg,stimuli/objects/119b.jpg,stimuli/scenes/010a.jpg,lure,dist1,dist2,target,0,0,0,0,0,64,64,41,,,,,,,280.0322942826897,281.08992376737297,281.08992376737297,281.08992376737297,281.08992376737297,281.08992376737297,281.08992376737297,281.08992376737297,281.08992376737297,281.08992376737297,281.08992376737297,281.08992376737297,281.08992376737297,,k,2.9279747772961855,target,None,,,,,,,,,,,,,,,,ST04_112822,2022-11-29_16h21.45.848,Hippopolis_4AFCT,2022.2.2,59.99716392154619,
Hippopolis,stimuli/subj_files/ST04_112822_cityA.csv,./stimuli/seattle.jpg,./stimuli/street_plate1.png,./stimuli/videos/hippopolis_part1.mp4,SZÖCSKE UTCA,stimuli/objects/116a.jpg,object,0,stimuli/objects/116a.jpg,stimuli/objects/116b.jpg,stimuli/objects/116a.jpg,stimuli/scenes/071a.jpg,stimuli/scenes/071b.jpg,lure,target,dist1,dist2,0,0,0,0,0,65,65,58,,,,,,,284.05036841891706,285.1106234192848,285.1106234192848,285.1106234192848,285.1106234192848,285.1106234192848,285.1106234192848,285.1106234192848,285.1106234192848,285.1106234192848,285.1106234192848,285.1106234192848,285.1106234192848,,f,2.540069255977869,target,None,,,,,,,,,,,,,,,,ST04_112822,2022-11-29_16h21.45.848,Hippopolis_4AFCT,2022.2.2,59.99716392154619,
Hippopolis,stimuli/subj_files/ST04_112822_cityA.csv,./stimuli/seattle.jpg,./stimuli/street_plate1.png,./stimuli/videos/hippopolis_part1.mp4,PIZSAMA UTCA,stimuli/scenes/012a.jpg,scene,0,stimuli/scenes/012a.jpg,stimuli/scenes/052b.jpg,stimuli/scenes/012b.jpg,stimuli/scenes/052a.jpg,stimuli/scenes/012a.jpg,dist2,lure,dist1,target,0,0,0,0,0,66,66,20,,,,,,,287.68450734205544,288.72911343351007,288.72911343351007,288.72911343351007,288.72911343351007,288.72911343351007,288.72911343351007,288.72911343351007,288.72911343351007,288.72911343351007,288.72911343351007,288.72911343351007,288.72911343351007,,k,1.8812379818409681,target,None,,,,,,,,,,,,,,,,ST04_112822,2022-11-29_16h21.45.848,Hippopolis_4AFCT,2022.2.2,59.99716392154619,
Hippopolis,stimuli/subj_files/ST04_112822_cityA.csv,./stimuli/seattle.jpg,./stimuli/street_plate1.png,./stimuli/videos/hippopolis_part1.mp4,FEJSZE UTCA,stimuli/scenes/036a.jpg,scene,1,stimuli/scenes/044a.jpg,stimuli/objects/008b.jpg,stimuli/scenes/044a.jpg,stimuli/objects/008a.jpg,stimuli/scenes/044b.jpg,dist2,target,dist1,lure,0,0,0,0,0,67,67,43,,,,,,,290.6316729541868,291.6741464752704,291.6741464752704,291.6741464752704,291.6741464752704,291.6741464752704,291.6741464752704,291.6741464752704,291.6741464752704,291.6741464752704,291.6741464752704,291.6741464752704,291.6741464752704,295.12675189971924,k,4.0716581754386425,lure,None,,,,,,,,,,,,,,,,ST04_112822,2022-11-29_16h21.45.848,Hippopolis_4AFCT,2022.2.2,59.99716392154619,
Hippopolis,stimuli/subj_files/ST04_112822_cityA.csv,./stimuli/seattle.jpg,./stimuli/street_plate1.png,./stimuli/videos/hippopolis_part1.mp4,BÚJÓCSKA UTCA,stimuli/scenes/088a.jpg,scene,0,stimuli/scenes/088a.jpg,stimuli/scenes/088b.jpg,stimuli/scenes/037b.jpg,stimuli/scenes/037a.jpg,stimuli/scenes/088a.jpg,lure,dist2,dist1,target,0,0,0,0,0,68,68,79,,,,,,,295.7654647938907,296.80472530797124,296.80472530797124,296.80472530797124,296.80472530797124,296.80472530797124,296.80472530797124,296.80472530797124,296.80472530797124,296.80472530797124,296.80472530797124,296.80472530797124,296.80472530797124,300.2666770964861,None,,invalid,None,,,,,301.76561252214015,,,,,,,,,,,ST04_112822,2022-11-29_16h21.45.848,Hippopolis_4AFCT,2022.2.2,59.99716392154619,
Hippopolis,stimuli/subj_files/ST04_112822_cityA.csv,./stimuli/seattle.jpg,./stimuli/street_plate1.png,./stimuli/videos/hippopolis_part1.mp4,CUKOR UTCA,stimuli/scenes/073a.jpg,scene,2,stimuli/objects/091a.jpg,stimuli/objects/079a.jpg,stimuli/objects/091a.jpg,stimuli/objects/091b.jpg,stimuli/objects/079b.jpg,dist1,target,lure,dist2,0,0,0,0,0,69,69,66,,,,,,,301.78250670060515,302.84749988280237,302.84749988280237,302.84749988280237,302.84749988280237,302.84749988280237,302.84749988280237,302.84749988280237,302.84749988280237,302.84749988280237,302.84749988280237,302.84749988280237,302.84749988280237,,f,1.3147078063338995,target,None,,,,,,,,,,,,,,,,ST04_112822,2022-11-29_16h21.45.848,Hippopolis_4AFCT,2022.2.2,59.99716392154619,
Hippopolis,stimuli/subj_files/ST04_112822_cityA.csv,./stimuli/seattle.jpg,./stimuli/street_plate1.png,./stimuli/videos/hippopolis_part1.mp4,SIVATAG UTCA,stimuli/scenes/051a.jpg,scene,1,stimuli/scenes/079a.jpg,stimuli/objects/045a.jpg,stimuli/objects/045b.jpg,stimuli/scenes/079a.jpg,stimuli/scenes/079b.jpg,dist1,dist2,target,lure,0,0,0,0,0,70,70,46,,,,,,,304.19848427921534,305.24624522030354,305.24624522030354,305.24624522030354,305.24624522030354,305.24624522030354,305.24624522030354,305.24624522030354,305.24624522030354,305.24624522030354,305.24624522030354,305.24624522030354,305.24624522030354,,j,2.0355910770595074,target,None,,,,,,,,,,,,,,,,ST04_112822,2022-11-29_16h21.45.848,Hippopolis_4AFCT,2022.2.2,59.99716392154619,
Hippopolis,stimuli/subj_files/ST04_112822_cityA.csv,./stimuli/seattle.jpg,./stimuli/street_plate1.png,./stimuli/videos/hippopolis_part1.mp4,KOSÁR UTCA,stimuli/objects/111a.jpg,object,1,stimuli/objects/024a.jpg,stimuli/objects/024a.jpg,stimuli/objects/024b.jpg,stimuli/scenes/111a.jpg,stimuli/scenes/111b.jpg,target,lure,dist1,dist2,0,0,0,0,0,71,71,25,,,,,,,307.3061985448003,308.34718452207744,308.34718452207744,308.34718452207744,308.34718452207744,308.34718452207744,308.34718452207744,308.34718452207744,308.34718452207744,308.34718452207744,308.34718452207744,308.34718452207744,308.34718452207744,,j,1.4624454826116562,dist1,None,,,,,,,,,,,,,,,,ST04_112822,2022-11-29_16h21.45.848,Hippopolis_4AFCT,2022.2.2,59.99716392154619,
Hippopolis,stimuli/subj_files/ST04_112822_cityA.csv,./stimuli/seattle.jpg,./stimuli/street_plate1.png,./stimuli/videos/hippopolis_part1.mp4,TOLMÁCS UTCA,stimuli/objects/022a.jpg,object,2,stimuli/scenes/114a.jpg,stimuli/scenes/018b.jpg,stimuli/scenes/018a.jpg,stimuli/scenes/114b.jpg,stimuli/scenes/114a.jpg,dist2,dist1,lure,target,0,0,0,0,0,72,72,34,,,,,,,309.8321955688298,310.88329360820353,310.88329360820353,310.88329360820353,310.88329360820353,310.88329360820353,310.88329360820353,310.88329360820353,310.88329360820353,310.88329360820353,310.88329360820353,310.88329360820353,310.88329360820353,,k,2.1583689339458942,target,None,310.88329360820353,,,,,,,,,,,,,,,ST04_112822,2022-11-29_16h21.45.848,Hippopolis_4AFCT,2022.2.2,59.99716392154619,
Hippopolis,stimuli/subj_files/ST04_112822_cityA.csv,./stimuli/seattle.jpg,./stimuli/street_plate1.png,./stimuli/videos/hippopolis_part1.mp4,PETÁRDA UTCA,stimuli/scenes/015a.jpg,scene,1,stimuli/scenes/077a.jpg,stimuli/scenes/077b.jpg,stimuli/scenes/097b.jpg,stimuli/scenes/077a.jpg,stimuli/scenes/097a.jpg,lure,dist2,target,dist1,0,0,0,0,0,73,73,54,,,,,,,313.0647356696427,314.1056809052825,314.1056809052825,314.1056809052825,314.1056809052825,314.1056809052825,314.1056809052825,314.1056809052825,314.1056809052825,314.1056809052825,314.1056809052825,314.1056809052825,314.1056809052825,,j,2.9686600118875504,target,None,,,,,,,,,,,,,,,,ST04_112822,2022-11-29_16h21.45.848,Hippopolis_4AFCT,2022.2.2,59.99716392154619,
Hippopolis,stimuli/subj_files/ST04_112822_cityA.csv,./stimuli/seattle.jpg,./stimuli/street_plate1.png,./stimuli/videos/hippopolis_part1.mp4,KERET UTCA,stimuli/scenes/093a.jpg,scene,0,stimuli/scenes/093a.jpg,stimuli/scenes/098a.jpg,stimuli/scenes/093b.jpg,stimuli/scenes/098b.jpg,stimuli/scenes/093a.jpg,dist1,lure,dist2,target,0,0,0,0,0,74,74,40,,,,,,,317.09834115579724,318.14679004251957,318.14679004251957,318.14679004251957,318.14679004251957,318.14679004251957,318.14679004251957,318.14679004251957,318.14679004251957,318.14679004251957,318.14679004251957,318.14679004251957,318.14679004251957,,f,1.5201306380331516,lure,None,,,,,,,,,,,,,,,,ST04_112822,2022-11-29_16h21.45.848,Hippopolis_4AFCT,2022.2.2,59.99716392154619,
Hippopolis,stimuli/subj_files/ST04_112822_cityA.csv,./stimuli/seattle.jpg,./stimuli/street_plate1.png,./stimuli/videos/hippopolis_part1.mp4,BAGOLY UTCA,stimuli/scenes/108a.jpg,scene,0,stimuli/scenes/108a.jpg,stimuli/scenes/006b.jpg,stimuli/scenes/108b.jpg,stimuli/scenes/108a.jpg,stimuli/scenes/006a.jpg,dist2,lure,target,dist1,0,0,0,0,0,75,75,78,,,,,,,319.6981434170157,320.72134853713214,320.72134853713214,320.72134853713214,320.72134853713214,320.72134853713214,320.72134853713214,320.72134853713214,320.72134853713214,320.72134853713214,320.72134853713214,320.72134853713214,320.72134853713214,324.2032243292779,j,3.617028098553419,target,None,320.72134853713214,,,,,,,,,,,,,,,ST04_112822,2022-11-29_16h21.45.848,Hippopolis_4AFCT,2022.2.2,59.99716392154619,
Hippopolis,stimuli/subj_files/ST04_112822_cityA.csv,./stimuli/seattle.jpg,./stimuli/street_plate1.png,./stimuli/videos/hippopolis_part1.mp4,ZÁSZLÓ UTCA,stimuli/scenes/048a.jpg,scene,2,stimuli/objects/059a.jpg,stimuli/objects/059b.jpg,stimuli/objects/091a.jpg,stimuli/objects/059a.jpg,stimuli/objects/091b.jpg,lure,dist1,target,dist2,0,0,0,0,0,76,76,27,,,,,,,324.37480375543237,325.43515983223915,325.43515983223915,325.43515983223915,325.43515983223915,325.43515983223915,325.43515983223915,325.43515983223915,325.43515983223915,325.43515983223915,325.43515983223915,325.43515983223915,325.43515983223915,,d,2.4388739969581366,lure,None,,,,,,,,,,,,,,,,ST04_112822,2022-11-29_16h21.45.848,Hippopolis_4AFCT,2022.2.2,59.99716392154619,
Hippopolis,stimuli/subj_files/ST04_112822_cityA.csv,./stimuli/seattle.jpg,./stimuli/street_plate1.png,./stimuli/videos/hippopolis_part1.mp4,ASZTAL UTCA,stimuli/objects/103a.jpg,object,2,stimuli/scenes/067a.jpg,stimuli/scenes/067b.jpg,stimuli/scenes/021b.jpg,stimuli/scenes/067a.jpg,stimuli/scenes/021a.jpg,lure,dist2,target,dist1,0,0,0,0,0,77,77,36,,,,,,,327.89786052517593,328.9336483422667,328.9336483422667,328.9336483422667,328.9336483422667,328.9336483422667,328.9336483422667,328.9336483422667,328.9336483422667,328.9336483422667,328.9336483422667,328.9336483422667,328.9336483422667,,j,2.843653790652752,target,None,,,,,,,,,,,,,,,,ST04_112822,2022-11-29_16h21.45.848,Hippopolis_4AFCT,2022.2.2,59.99716392154619,
Hippopolis,stimuli/subj_files/ST04_112822_cityA.csv,./stimuli/seattle.jpg,./stimuli/street_plate1.png,./stimuli/videos/hippopolis_part1.mp4,KATONA UTCA,stimuli/scenes/101a.jpg,scene,2,stimuli/objects/120a.jpg,stimuli/objects/120b.jpg,stimuli/objects/120a.jpg,stimuli/objects/054b.jpg,stimuli/objects/054a.jpg,lure,target,dist2,dist1,0,0,0,0,0,78,78,53,,,,,,,331.808198004961,332.87565249204636,332.87565249204636,332.87565249204636,332.87565249204636,332.87565249204636,332.87565249204636,332.87565249204636,332.87565249204636,332.87565249204636,332.87565249204636,332.87565249204636,332.87565249204636,,f,1.7657833900302649,target,None,,,,,,,,,,,,,,,,ST04_112822,2022-11-29_16h21.45.848,Hippopolis_4AFCT,2022.2.2,59.99716392154619,
Hippopolis,stimuli/subj_files/ST04_112822_cityA.csv,./stimuli/seattle.jpg,./stimuli/street_plate1.png,./stimuli/videos/hippopolis_part1.mp4,FÜGE UTCA,stimuli/scenes/006a.jpg,scene,0,stimuli/scenes/006a.jpg,stimuli/scenes/006b.jpg,stimuli/scenes/108a.jpg,stimuli/scenes/108b.jpg,stimuli/scenes/006a.jpg,lure,dist1,dist2,target,0,0,0,0,0,79,79,7,,,,,,,334.6645438410342,335.7067427430302,335.7067427430302,335.7067427430302,335.7067427430302,335.7067427430302,335.7067427430302,335.7067427430302,335.7067427430302,335.7067427430302,335.7067427430302,335.7067427430302,335.7067427430302,,k,1.6235178709030151,target,None,,,,,,,,,,,,,,,,ST04_112822,2022-11-29_16h21.45.848,Hippopolis_4AFCT,2022.2.2,59.99716392154619,
Camponello,stimuli/subj_files/ST04_112822_cityB.csv,./stimuli/arnedillo.png,./stimuli/street_plate2.png,./stimuli/videos/camponello_part1.mp4,HEGEDŰ UTCA,stimuli/scenes/056a.jpg,scene,1,stimuli/scenes/064a.jpg,stimuli/scenes/064a.jpg,stimuli/scenes/064b.jpg,stimuli/scenes/027a.jpg,stimuli/scenes/027b.jpg,target,lure,dist1,dist2,0,1,1,1,0,0,0,62,,,,,341.4600154645741,341.4600154645741,344.43992258422077,345.4370650574565,345.4370650574565,345.4370650574565,345.4370650574565,345.4370650574565,345.4370650574565,345.4370650574565,345.4370650574565,345.4370650574565,345.4370650574565,345.4370650574565,345.4370650574565,,j,2.900957342237234,dist1,None,,,,,,59,6,12,2,337.36397793516517,337.36397793516517,space,3.998131912201643,,,ST04_112822,2022-11-29_16h21.45.848,Hippopolis_4AFCT,2022.2.2,59.99716392154619,
Camponello,stimuli/subj_files/ST04_112822_cityB.csv,./stimuli/arnedillo.png,./stimuli/street_plate2.png,./stimuli/videos/camponello_part1.mp4,AJÁNDÉK UTCA,stimuli/scenes/020a.jpg,scene,2,stimuli/objects/069a.jpg,stimuli/objects/003b.jpg,stimuli/objects/069b.jpg,stimuli/objects/003a.jpg,stimuli/objects/069a.jpg,dist2,lure,dist1,target,0,1,1,1,0,1,1,42,,,,,,,348.3805066794157,349.44817296229303,349.44817296229303,349.44817296229303,349.44817296229303,349.44817296229303,349.44817296229303,349.44817296229303,349.44817296229303,349.44817296229303,349.44817296229303,349.44817296229303,349.44817296229303,352.8922362867743,f,4.713872380554676,lure,None,,,,,,,,,,,,,,,,ST04_112822,2022-11-29_16h21.45.848,Hippopolis_4AFCT,2022.2.2,59.99716392154619,
Camponello,stimuli/subj_files/ST04_112822_cityB.csv,./stimuli/arnedillo.png,./stimuli/street_plate2.png,./stimuli/videos/camponello_part1.mp4,MUSTÁR UTCA,stimuli/scenes/094a.jpg,scene,1,stimuli/scenes/047a.jpg,stimuli/scenes/102b.jpg,stimuli/scenes/102a.jpg,stimuli/scenes/047a.jpg,stimuli/scenes/047b.jpg,dist2,dist1,target,lure,0,1,1,1,0,2,2,27,,,,,,,354.1886480804533,355.2495935149491,355.2495935149491,355.2495935149491,355.2495935149491,355.2495935149491,355.2495935149491,355.2495935149491,355.2495935149491,355.2495935149491,355.2495935149491,355.2495935149491,355.2495935149491,358.68160845153034,None,,invalid,None,,,,,,,,,,,,,,,,ST04_112822,2022-11-29_16h21.45.848,Hippopolis_4AFCT,2022.2.2,59.99716392154619,
Camponello,stimuli/subj_files/ST04_112822_cityB.csv,./stimuli/arnedillo.png,./stimuli/street_plate2.png,./stimuli/videos/camponello_part1.mp4,RÁDIÓ UTCA,stimuli/scenes/092a.jpg,scene,0,stimuli/scenes/092a.jpg,stimuli/scenes/092b.jpg,stimuli/scenes/091a.jpg,stimuli/scenes/091b.jpg,stimuli/scenes/092a.jpg,lure,dist1,dist2,target,0,1,1,1,0,3,3,48,,,,,,,360.2020499687642,361.28682377934456,361.28682377934456,361.28682377934456,361.28682377934456,361.28682377934456,361.28682377934456,361.28682377934456,361.28682377934456,361.28682377934456,361.28682377934456,361.28682377934456,361.28682377934456,,k,1.6584836971014738,target,None,,,,,,,,,,,,,,,,ST04_112822,2022-11-29_16h21.45.848,Hippopolis_4AFCT,2022.2.2,59.99716392154619,
Camponello,stimuli/subj_files/ST04_112822_cityB.csv,./stimuli/arnedillo.png,./stimuli/street_plate2.png,./stimuli/videos/camponello_part1.mp4,FÉSZEK UTCA,stimuli/scenes/059a.jpg,scene,0,stimuli/scenes/059a.jpg,stimuli/scenes/059a.jpg,stimuli/scenes/099a.jpg,stimuli/scenes/059b.jpg,stimuli/scenes/099b.jpg,target,dist1,lure,dist2,0,1,1,1,0,4,4,65,,,,,,,362.97982657141984,364.0046175122261,364.0046175122261,364.0046175122261,364.0046175122261,364.0046175122261,364.0046175122261,364.0046175122261,364.0046175122261,364.0046175122261,364.0046175122261,364.0046175122261,364.0046175122261,,d,2.828221032395959,target,None,,,,,,,,,,,,,,,,ST04_112822,2022-11-29_16h21.45.848,Hippopolis_4AFCT,2022.2.2,59.99716392154619,
Camponello,stimuli/subj_files/ST04_112822_cityB.csv,./stimuli/arnedillo.png,./stimuli/street_plate2.png,./stimuli/videos/camponello_part1.mp4,FÉNYKÉP UTCA,stimuli/objects/012a.jpg,object,0,stimuli/objects/012a.jpg,stimuli/objects/099b.jpg,stimuli/objects/012a.jpg,stimuli/objects/099a.jpg,stimuli/objects/012b.jpg,dist2,target,dist1,lure,0,1,1,1,0,5,5,21,,,,,,,366.86432408355176,367.92057829909027,367.92057829909027,367.92057829909027,367.92057829909027,367.92057829909027,367.92057829909027,367.92057829909027,367.92057829909027,367.92057829909027,367.92057829909027,367.92057829909027,367.92057829909027,,f,2.27280093729496,target,None,,,,,,,,,,,,,,,,ST04_112822,2022-11-29_16h21.45.848,Hippopolis_4AFCT,2022.2.2,59.99716392154619,
Camponello,stimuli/subj_files/ST04_112822_cityB.csv,./stimuli/arnedillo.png,./stimuli/street_plate2.png,./stimuli/videos/camponello_part1.mp4,KORONG UTCA,stimuli/scenes/065a.jpg,scene,0,stimuli/scenes/065a.jpg,stimuli/scenes/119a.jpg,stimuli/scenes/065b.jpg,stimuli/scenes/119b.jpg,stimuli/scenes/065a.jpg,dist1,lure,dist2,target,0,1,1,1,0,6,6,6,,,,,,,370.21600078232586,371.29546447098255,371.29546447098255,371.29546447098255,371.29546447098255,371.29546447098255,371.29546447098255,371.29546447098255,371.29546447098255,371.29546447098255,371.29546447098255,371.29546447098255,371.29546447098255,,k,1.9213136434555054,target,None,,,,,,,,,,,,,,,,ST04_112822,2022-11-29_16h21.45.848,Hippopolis_4AFCT,2022.2.2,59.99716392154619,
Camponello,stimuli/subj_files/ST04_112822_cityB.csv,./stimuli/arnedillo.png,./stimuli/street_plate2.png,./stimuli/videos/camponello_part1.mp4,TÉRKÉP UTCA,stimuli/objects/090a.jpg,object,1,stimuli/objects/089a.jpg,stimuli/objects/011a.jpg,stimuli/objects/011b.jpg,stimuli/objects/089b.jpg,stimuli/objects/089a.jpg,dist1,dist2,lure,target,0,1,1,1,0,7,7,71,,,,,,,373.25751920230687,374.3160966336727,374.3160966336727,374.3160966336727,374.3160966336727,374.3160966336727,374.3160966336727,374.3160966336727,374.3160966336727,374.3160966336727,374.3160966336727,374.3160966336727,374.3160966336727,,k,2.22954523563385,target,None,,,,,,,,,,,,,,,,ST04_112822,2022-11-29_16h21.45.848,Hippopolis_4AFCT,2022.2.2,59.99716392154619,
Camponello,stimuli/subj_files/ST04_112822_cityB.csv,./stimuli/arnedillo.png,./stimuli/street_plate2.png,./stimuli/videos/camponello_part1.mp4,SZAPPAN UTCA,stimuli/scenes/096a.jpg,scene,2,stimuli/objects/003a.jpg,stimuli/scenes/060b.jpg,stimuli/scenes/060a.jpg,stimuli/objects/003a.jpg,stimuli/objects/003b.jpg,dist2,dist1,target,lure,0,1,1,1,0,8,8,50,,,,,,,376.56425423175097,377.6095252558589,377.6095252558589,377.6095252558589,377.6095252558589,377.6095252558589,377.6095252558589,377.6095252558589,377.6095252558589,377.6095252558589,377.6095252558589,377.6095252558589,377.6095252558589,381.06160756759346,f,3.623829187825322,dist1,None,,,,,,,,,,,,,,,,ST04_112822,2022-11-29_16h21.45.848,Hippopolis_4AFCT,2022.2.2,59.99716392154619,
Camponello,stimuli/subj_files/ST04_112822_cityB.csv,./stimuli/arnedillo.png,./stimuli/street_plate2.png,./stimuli/videos/camponello_part1.mp4,MENTA UTCA,stimuli/objects/051a.jpg,object,0,stimuli/objects/051a.jpg,stimuli/objects/051b.jpg,stimuli/scenes/120a.jpg,stimuli/scenes/120b.jpg,stimuli/objects/051a.jpg,lure,dist1,dist2,target,0,1,1,1,0,9,9,79,,,,,,,381.27854696661234,382.3542322386056,382.3542322386056,382.3542322386056,382.3542322386056,382.3542322386056,382.3542322386056,382.3542322386056,382.3542322386056,382.3542322386056,382.3542322386056,382.3542322386056,382.3542322386056,,j,1.9348203390836716,dist2,None,,,,,,,,,,,,,,,,ST04_112822,2022-11-29_16h21.45.848,Hippopolis_4AFCT,2022.2.2,59.99716392154619,
Camponello,stimuli/subj_files/ST04_112822_cityB.csv,./stimuli/arnedillo.png,./stimuli/street_plate2.png,./stimuli/videos/camponello_part1.mp4,PADLÓ UTCA,stimuli/scenes/119a.jpg,scene,0,stimuli/scenes/119a.jpg,stimuli/scenes/119b.jpg,stimuli/scenes/115b.jpg,stimuli/scenes/115a.jpg,stimuli/scenes/119a.jpg,lure,dist2,dist1,target,0,1,1,1,0,10,10,43,,,,,,,384.3140424378216,385.3574268948287,385.3574268948287,385.3574268948287,385.3574268948287,385.3574268948287,385.3574268948287,385.3574268948287,385.3574268948287,385.3574268948287,385.3574268948287,385.3574268948287,385.3574268948287,,k,1.9554811157286167,target,None,,,,,,,,,,,,,,,,ST04_112822,2022-11-29_16h21.45.848,Hippopolis_4AFCT,2022.2.2,59.99716392154619,
Camponello,stimuli/subj_files/ST04_112822_cityB.csv,./stimuli/arnedillo.png,./stimuli/street_plate2.png,./stimuli/videos/camponello_part1.mp4,PAPAGÁJ UTCA,stimuli/scenes/035a.jpg,scene,0,stimuli/scenes/035a.jpg,stimuli/scenes/035b.jpg,stimuli/scenes/035a.jpg,stimuli/scenes/004b.jpg,stimuli/scenes/004a.jpg,lure,target,dist2,dist1,0,1,1,1,0,11,11,10,,,,,,,387.3519217707217,388.4017661437392,388.4017661437392,388.4017661437392,388.4017661437392,388.4017661437392,388.4017661437392,388.4017661437392,388.4017661437392,388.4017661437392,388.4017661437392,388.4017661437392,388.4017661437392,,f,1.5991990361362696,target,None,,,,,,,,,,,,,,,,ST04_112822,2022-11-29_16h21.45.848,Hippopolis_4AFCT,2022.2.2,59.99716392154619,
Camponello,stimuli/subj_files/ST04_112822_cityB.csv,./stimuli/arnedillo.png,./stimuli/street_plate2.png,./stimuli/videos/camponello_part1.mp4,VÖDÖR UTCA,stimuli/objects/030a.jpg,object,1,stimuli/objects/023a.jpg,stimuli/objects/100a.jpg,stimuli/objects/023a.jpg,stimuli/objects/100b.jpg,stimuli/objects/023b.jpg,dist1,target,dist2,lure,0,1,1,1,0,12,12,14,,,,,,,390.0319276060909,391.0797233786434,391.0797233786434,391.0797233786434,391.0797233786434,391.0797233786434,391.0797233786434,391.0797233786434,391.0797233786434,391.0797233786434,391.0797233786434,391.0797233786434,391.0797233786434,,d,2.2494089044630527,dist1,None,,,,,,,,,,,,,,,,ST04_112822,2022-11-29_16h21.45.848,Hippopolis_4AFCT,2022.2.2,59.99716392154619,
Camponello,stimuli/subj_files/ST04_112822_cityB.csv,./stimuli/arnedillo.png,./stimuli/street_plate2.png,./stimuli/videos/camponello_part1.mp4,LOVAGLÁS UTCA,stimuli/objects/037a.jpg,object,0,stimuli/objects/037a.jpg,stimuli/objects/037b.jpg,stimuli/objects/037a.jpg,stimuli/scenes/076a.jpg,stimuli/scenes/076b.jpg,lure,target,dist1,dist2,0,1,1,1,0,13,13,16,,,,,,,393.37561859190464,394.43250414915383,394.43250414915383,394.43250414915383,394.43250414915383,394.43250414915383,394.43250414915383,394.43250414915383,394.43250414915383,394.43250414915383,394.43250414915383,394.43250414915383,394.43250414915383,,f,3.0568070001900196,target,None,,,,,,,,,,,,,,,,ST04_112822,2022-11-29_16h21.45.848,Hippopolis_4AFCT,2022.2.2,59.99716392154619,
Camponello,stimuli/subj_files/ST04_112822_cityB.csv,./stimuli/arnedillo.png,./stimuli/street_plate2.png,./stimuli/videos/camponello_part1.mp4,CSILLAG UTCA,stimuli/objects/048a.jpg,object,0,stimuli/objects/048a.jpg,stimuli/scenes/066b.jpg,stimuli/objects/048b.jpg,stimuli/objects/048a.jpg,stimuli/scenes/066a.jpg,dist2,lure,target,dist1,0,1,1,1,0,14,14,52,,,,,,,397.50608950667083,398.54352254606783,398.54352254606783,398.54352254606783,398.54352254606783,398.54352254606783,398.54352254606783,398.54352254606783,398.54352254606783,398.54352254606783,398.54352254606783,398.54352254606783,398.54352254606783,,j,2.5770221035927534,target,None,,,,,,,,,,,,,,,,ST04_112822,2022-11-29_16h21.45.848,Hippopolis_4AFCT,2022.2.2,59.99716392154619,
Camponello,stimuli/subj_files/ST04_112822_cityB.csv,./stimuli/arnedillo.png,./stimuli/street_plate2.png,./stimuli/videos/camponello_part1.mp4,KOCSI UTCA,stimuli/scenes/061a.jpg,scene,0,stimuli/scenes/061a.jpg,stimuli/scenes/061b.jpg,stimuli/scenes/061a.jpg,stimuli/scenes/103a.jpg,stimuli/scenes/103b.jpg,lure,target,dist1,dist2,0,1,1,1,0,15,15,33,,,,,,,401.1518902350217,402.1786691304296,402.1786691304296,402.1786691304296,402.1786691304296,402.1786691304296,402.1786691304296,402.1786691304296,402.1786691304296,402.1786691304296,402.1786691304296,402.1786691304296,402.1786691304296,405.6476403325796,f,3.9023889042437077,target,None,,,,,,,,,,,,,,,,ST04_112822,2022-11-29_16h21.45.848,Hippopolis_4AFCT,2022.2.2,59.99716392154619,
Camponello,stimuli/subj_files/ST04_112822_cityB.csv,./stimuli/arnedillo.png,./stimuli/street_plate2.png,./stimuli/videos/camponello_part1.mp4,NARANCS UTCA,stimuli/objects/098a.jpg,object,2,stimuli/scenes/107a.jpg,stimuli/objects/069b.jpg,stimuli/objects/069a.jpg,stimuli/scenes/107a.jpg,stimuli/scenes/107b.jpg,dist2,dist1,target,lure,0,1,1,1,0,16,16,45,,,,,,,406.1092826705426,407.15454094298184,407.15454094298184,407.15454094298184,407.15454094298184,407.15454094298184,407.15454094298184,407.15454094298184,407.15454094298184,407.15454094298184,407.15454094298184,407.15454094298184,407.15454094298184,,j,3.29434435069561,target,None,,,,,,,,,,,,,,,,ST04_112822,2022-11-29_16h21.45.848,Hippopolis_4AFCT,2022.2.2,59.99716392154619,
Camponello,stimuli/subj_files/ST04_112822_cityB.csv,./stimuli/arnedillo.png,./stimuli/street_plate2.png,./stimuli/videos/camponello_part1.mp4,MAJOM UTCA,stimuli/objects/040a.jpg,object,0,stimuli/objects/040a.jpg,stimuli/objects/068a.jpg,stimuli/objects/040a.jpg,stimuli/objects/068b.jpg,stimuli/objects/040b.jpg,dist1,target,dist2,lure,0,1,1,1,0,17,17,26,,,,,,,410.48018547333777,411.5165971685201,411.5165971685201,411.5165971685201,411.5165971685201,411.5165971685201,411.5165971685201,411.5165971685201,411.5165971685201,411.5165971685201,411.5165971685201,411.5165971685201,411.5165971685201,,f,3.2358496468514204,target,None,,,,,,,,,,,,,,,,ST04_112822,2022-11-29_16h21.45.848,Hippopolis_4AFCT,2022.2.2,59.99716392154619,
Camponello,stimuli/subj_files/ST04_112822_cityB.csv,./stimuli/arnedillo.png,./stimuli/street_plate2.png,./stimuli/videos/camponello_part1.mp4,SZŐNYEG UTCA,stimuli/objects/077a.jpg,object,2,stimuli/scenes/005a.jpg,stimuli/objects/117b.jpg,stimuli/objects/117a.jpg,stimuli/scenes/005b.jpg,stimuli/scenes/005a.jpg,dist2,dist1,lure,target,0,1,1,1,0,18,18,37,,,,,,,414.78194346651435,415.85844233073294,415.85844233073294,415.85844233073294,415.85844233073294,415.85844233073294,415.85844233073294,415.85844233073294,415.85844233073294,415.85844233073294,415.85844233073294,415.85844233073294,415.85844233073294,,f,3.0538197830319405,dist1,None,,,,,,,,,,,,,,,,ST04_112822,2022-11-29_16h21.45.848,Hippopolis_4AFCT,2022.2.2,59.99716392154619,
Camponello,stimuli/subj_files/ST04_112822_cityB.csv,./stimuli/arnedillo.png,./stimuli/street_plate2.png,./stimuli/videos/camponello_part1.mp4,TERASZ UTCA,stimuli/objects/067a.jpg,object,0,stimuli/objects/067a.jpg,stimuli/scenes/057a.jpg,stimuli/scenes/057b.jpg,stimuli/objects/067a.jpg,stimuli/objects/067b.jpg,dist1,dist2,target,lure,0,1,1,1,0,19,19,30,,,,,,,418.9494204092771,420.0141868684441,420.0141868684441,420.0141868684441,420.0141868684441,420.0141868684441,420.0141868684441,420.0141868684441,420.0141868684441,420.0141868684441,420.0141868684441,420.0141868684441,420.0141868684441,,j,2.3223044481128454,target,None,,,,,,,,,,,,,,,,ST04_112822,2022-11-29_16h21.45.848,Hippopolis_4AFCT,2022.2.2,59.99716392154619,
Camponello,stimuli/subj_files/ST04_112822_cityB.csv,./stimuli/arnedillo.png,./stimuli/street_plate2.png,./stimuli/videos/camponello_part1.mp4,BANÁN UTCA,stimuli/objects/071a.jpg,object,0,stimuli/objects/071a.jpg,stimuli/objects/071a.jpg,stimuli/objects/071b.jpg,stimuli/objects/087b.jpg,stimuli/objects/087a.jpg,target,lure,dist2,dist1,0,1,1,1,0,20,20,3,,,,,,,422.3631319962442,423.40128812752664,423.40128812752664,423.40128812752664,423.40128812752664,423.40128812752664,423.40128812752664,423.40128812752664,423.40128812752664,423.40128812752664,423.40128812752664,423.40128812752664,423.40128812752664,,d,1.671784196048975,target,None,423.40128812752664,,,,,,,,,,,,,,,ST04_112822,2022-11-29_16h21.45.848,Hippopolis_4AFCT,2022.2.2,59.99716392154619,
Camponello,stimuli/subj_files/ST04_112822_cityB.csv,./stimuli/arnedillo.png,./stimuli/street_plate2.png,./stimuli/videos/camponello_part1.mp4,GYŰRŰ UTCA,stimuli/scenes/095a.jpg,scene,2,stimuli/objects/117a.jpg,stimuli/objects/020b.jpg,stimuli/objects/117a.jpg,stimuli/objects/117b.jpg,stimuli/objects/020a.jpg,dist2,target,lure,dist1,0,1,1,1,0,21,21,35,,,,,,,425.09496020525694,426.1531193330884,426.1531193330884,426.1531193330884,426.1531193330884,426.1531193330884,426.1531193330884,426.1531193330884,426.1531193330884,426.1531193330884,426.1531193330884,426.1531193330884,426.1531193330884,,k,2.6314497776329517,dist1,None,,,,,,,,,,,,,,,,ST04_112822,2022-11-29_16h21.45.848,Hippopolis_4AFCT,2022.2.2,59.99716392154619,
Camponello,stimuli/subj_files/ST04_112822_cityB.csv,./stimuli/arnedillo.png,./stimuli/street_plate2.png,./stimuli/videos/camponello_part1.mp4,PÉKSÉG UTCA,stimuli/objects/035a.jpg,object,0,stimuli/objects/035a.jpg,stimuli/objects/027b.jpg,stimuli/objects/027a.jpg,stimuli/objects/035b.jpg,stimuli/objects/035a.jpg,dist2,dist1,lure,target,0,1,1,1,0,22,22,36,,,,,,,428.8056216277182,429.8868151344359,429.8868151344359,429.8868151344359,429.8868151344359,429.8868151344359,429.8868151344359,429.8868151344359,429.8868151344359,429.8868151344359,429.8868151344359,429.8868151344359,429.8868151344359,,k,2.3218385595828295,target,None,429.8868151344359,,,,,,,,,,,,,,,ST04_112822,2022-11-29_16h21.45.848,Hippopolis_4AFCT,2022.2.2,59.99716392154619,
Camponello,stimuli/subj_files/ST04_112822_cityB.csv,./stimuli/arnedillo.png,./stimuli/street_plate2.png,./stimuli/videos/camponello_part1.mp4,TISZTÁS UTCA,stimuli/scenes/057a.jpg,scene,0,stimuli/scenes/057a.jpg,stimuli/scenes/057a.jpg,stimuli/objects/012b.jpg,stimuli/objects/012a.jpg,stimuli/scenes/057b.jpg,target,dist2,dist1,lure,0,1,1,1,0,23,23,78,,,,,,,432.23951348662376,433.29600095562637,433.29600095562637,433.29600095562637,433.29600095562637,433.29600095562637,433.29600095562637,433.29600095562637,433.29600095562637,433.29600095562637,433.29600095562637,433.29600095562637,433.29600095562637,,d,2.144757119938731,target,None,,,,,,,,,,,,,,,,ST04_112822,2022-11-29_16h21.45.848,Hippopolis_4AFCT,2022.2.2,59.99716392154619,
Camponello,stimuli/subj_files/ST04_112822_cityB.csv,./stimuli/arnedillo.png,./stimuli/street_plate2.png,./stimuli/videos/camponello_part1.mp4,KERÉK UTCA,stimuli/objects/068a.jpg,object,0,stimuli/objects/068a.jpg,stimuli/objects/068a.jpg,stimuli/objects/040b.jpg,stimuli/objects/040a.jpg,stimuli/objects/068b.jpg,target,dist2,dist1,lure,0,1,1,1,0,24,24,72,,,,,,,435.4691484775394,436.4970815163106,436.4970815163106,436.4970815163106,436.4970815163106,436.4970815163106,436.4970815163106,436.4970815163106,436.4970815163106,436.4970815163106,436.4970815163106,436.4970815163106,436.4970815163106,,d,2.671532902866602,target,None,,,,,,,,,,,,,,,,ST04_112822,2022-11-29_16h21.45.848,Hippopolis_4AFCT,2022.2.2,59.99716392154619,
Camponello,stimuli/subj_files/ST04_112822_cityB.csv,./stimuli/arnedillo.png,./stimuli/street_plate2.png,./stimuli/videos/camponello_part1.mp4,ECSET UTCA,stimuli/scenes/032a.jpg,scene,1,stimuli/scenes/027a.jpg,stimuli/scenes/027a.jpg,stimuli/objects/089b.jpg,stimuli/objects/089a.jpg,stimuli/scenes/027b.jpg,target,dist2,dist1,lure,0,1,1,1,0,25,25,60,,,,,,,439.2093561310321,440.26845449768007,440.26845449768007,440.26845449768007,440.26845449768007,440.26845449768007,440.26845449768007,440.26845449768007,440.26845449768007,440.26845449768007,440.26845449768007,440.26845449768007,440.26845449768007,,d,2.3081194460392,target,None,,,,,,,,,,,,,,,,ST04_112822,2022-11-29_16h21.45.848,Hippopolis_4AFCT,2022.2.2,59.99716392154619,
Camponello,stimuli/subj_files/ST04_112822_cityB.csv,./stimuli/arnedillo.png,./stimuli/street_plate2.png,./stimuli/videos/camponello_part1.mp4,FÜZET UTCA,stimuli/objects/066a.jpg,object,2,stimuli/scenes/033a.jpg,stimuli/scenes/033b.jpg,stimuli/scenes/033a.jpg,stimuli/scenes/005a.jpg,stimuli/scenes/005b.jpg,lure,target,dist1,dist2,0,1,1,1,0,26,26,41,,,,,,,442.6134893428534,443.65674659982324,443.65674659982324,443.65674659982324,443.65674659982324,443.65674659982324,443.65674659982324,443.65674659982324,443.65674659982324,443.65674659982324,443.65674659982324,443.65674659982324,443.65674659982324,,f,2.007875118404627,target,None,,,,,,,,,,,,,,,,ST04_112822,2022-11-29_16h21.45.848,Hippopolis_4AFCT,2022.2.2,59.99716392154619,
Camponello,stimuli/subj_files/ST04_112822_cityB.csv,./stimuli/arnedillo.png,./stimuli/street_plate2.png,./stimuli/videos/camponello_part1.mp4,KARTON UTCA,stimuli/scenes/085a.jpg,scene,0,stimuli/scenes/085a.jpg,stimuli/scenes/085a.jpg,stimuli/objects/067b.jpg,stimuli/objects/067a.jpg,stimuli/scenes/085b.jpg,target,dist2,dist1,lure,0,1,1,1,0,27,27,67,,,,,,,445.6993740685284,446.76947459951043,446.76947459951043,446.76947459951043,446.76947459951043,446.76947459951043,446.76947459951043,446.76947459951043,446.76947459951043,446.76947459951043,446.76947459951043,446.76947459951043,446.76947459951043,,d,2.862558936700225,target,None,,,,,,,,,,,,,,,,ST04_112822,2022-11-29_16h21.45.848,Hippopolis_4AFCT,2022.2.2,59.99716392154619,
Camponello,stimuli/subj_files/ST04_112822_cityB.csv,./stimuli/arnedillo.png,./stimuli/street_plate2.png,./stimuli/videos/camponello_part1.mp4,LEMEZ UTCA,stimuli/objects/099a.jpg,object,0,stimuli/objects/099a.jpg,stimuli/objects/064a.jpg,stimuli/objects/099a.jpg,stimuli/objects/099b.jpg,stimuli/objects/064b.jpg,dist1,target,lure,dist2,0,1,1,1,0,28,28,13,,,,,,,449.67697912082076,450.73900219239295,450.73900219239295,450.73900219239295,450.73900219239295,450.73900219239295,450.73900219239295,450.73900219239295,450.73900219239295,450.73900219239295,450.73900219239295,450.73900219239295,450.73900219239295,,f,1.9971236288547516,target,None,,,,,,,,,,,,,,,,ST04_112822,2022-11-29_16h21.45.848,Hippopolis_4AFCT,2022.2.2,59.99716392154619,
Camponello,stimuli/subj_files/ST04_112822_cityB.csv,./stimuli/arnedillo.png,./stimuli/street_plate2.png,./stimuli/videos/camponello_part1.mp4,PAPRIKA UTCA,stimuli/scenes/099a.jpg,scene,0,stimuli/scenes/099a.jpg,stimuli/scenes/065b.jpg,stimuli/scenes/099b.jpg,stimuli/scenes/065a.jpg,stimuli/scenes/099a.jpg,dist2,lure,dist1,target,0,1,1,1,0,29,29,77,,,,,,,452.7632078193128,453.7987073343247,453.7987073343247,453.7987073343247,453.7987073343247,453.7987073343247,453.7987073343247,453.7987073343247,453.7987073343247,453.7987073343247,453.7987073343247,453.7987073343247,453.7987073343247,,k,1.4978893268853426,target,None,,,,,,,,,,,,,,,,ST04_112822,2022-11-29_16h21.45.848,Hippopolis_4AFCT,2022.2.2,59.99716392154619,
Camponello,stimuli/subj_files/ST04_112822_cityB.csv,./stimuli/arnedillo.png,./stimuli/street_plate2.png,./stimuli/videos/camponello_part1.mp4,MOGYORÓ UTCA,stimuli/scenes/066a.jpg,scene,0,stimuli/scenes/066a.jpg,stimuli/scenes/066a.jpg,stimuli/scenes/022a.jpg,stimuli/scenes/066b.jpg,stimuli/scenes/022b.jpg,target,dist1,lure,dist2,0,1,1,1,0,30,30,55,,,,,,,455.31309262290597,456.349393600598,456.349393600598,456.349393600598,456.349393600598,456.349393600598,456.349393600598,456.349393600598,456.349393600598,456.349393600598,456.349393600598,456.349393600598,456.349393600598,459.8137261439115,d,4.3227466978132725,target,None,,,,,,,,,,,,,,,,ST04_112822,2022-11-29_16h21.45.848,Hippopolis_4AFCT,2022.2.2,59.99716392154619,
Camponello,stimuli/subj_files/ST04_112822_cityB.csv,./stimuli/arnedillo.png,./stimuli/street_plate2.png,./stimuli/videos/camponello_part1.mp4,FÉSŰ UTCA,stimuli/objects/063a.jpg,object,0,stimuli/objects/063a.jpg,stimuli/objects/115a.jpg,stimuli/objects/063b.jpg,stimuli/objects/063a.jpg,stimuli/objects/115b.jpg,dist1,lure,target,dist2,0,1,1,1,0,31,31,51,,,,,,,460.6967917829752,461.7759338915348,461.7759338915348,461.7759338915348,461.7759338915348,461.7759338915348,461.7759338915348,461.7759338915348,461.7759338915348,461.7759338915348,461.7759338915348,461.7759338915348,461.7759338915348,,j,1.6799832582473755,target,None,,,,,,,,,,,,,,,,ST04_112822,2022-11-29_16h21.45.848,Hippopolis_4AFCT,2022.2.2,59.99716392154619,
Camponello,stimuli/subj_files/ST04_112822_cityB.csv,./stimuli/arnedillo.png,./stimuli/street_plate2.png,./stimuli/videos/camponello_part1.mp4,HENTES UTCA,stimuli/scenes/115a.jpg,scene,0,stimuli/scenes/115a.jpg,stimuli/scenes/115a.jpg,stimuli/objects/053a.jpg,stimuli/objects/053b.jpg,stimuli/scenes/115b.jpg,target,dist1,dist2,lure,0,1,1,1,0,32,32,74,,,,,,,463.4900468625128,464.5250173546374,464.5250173546374,464.5250173546374,464.5250173546374,464.5250173546374,464.5250173546374,464.5250173546374,464.5250173546374,464.5250173546374,464.5250173546374,464.5250173546374,464.5250173546374,,d,2.2110863849520683,target,None,,,,,,,,,,,,,,,,ST04_112822,2022-11-29_16h21.45.848,Hippopolis_4AFCT,2022.2.2,59.99716392154619,
Camponello,stimuli/subj_files/ST04_112822_cityB.csv,./stimuli/arnedillo.png,./stimuli/street_plate2.png,./stimuli/videos/camponello_part1.mp4,HERNYÓ UTCA,stimuli/objects/049a.jpg,object,2,stimuli/scenes/007a.jpg,stimuli/scenes/007a.jpg,stimuli/objects/046b.jpg,stimuli/objects/046a.jpg,stimuli/scenes/007b.jpg,target,dist2,dist1,lure,0,1,1,1,0,33,33,46,,,,,,,466.777490478009,467.8376170322299,467.8376170322299,467.8376170322299,467.8376170322299,467.8376170322299,467.8376170322299,467.8376170322299,467.8376170322299,467.8376170322299,467.8376170322299,467.8376170322299,467.8376170322299,,j,3.250706423074007,dist1,None,,,,,,,,,,,,,,,,ST04_112822,2022-11-29_16h21.45.848,Hippopolis_4AFCT,2022.2.2,59.99716392154619,
Camponello,stimuli/subj_files/ST04_112822_cityB.csv,./stimuli/arnedillo.png,./stimuli/street_plate2.png,./stimuli/videos/camponello_part1.mp4,MÁLNA UTCA,stimuli/scenes/038a.jpg,scene,0,stimuli/scenes/038a.jpg,stimuli/objects/005a.jpg,stimuli/scenes/038a.jpg,stimuli/scenes/038b.jpg,stimuli/objects/005b.jpg,dist1,target,lure,dist2,0,1,1,1,0,34,34,66,,,,,,,471.1247200947255,472.1869042683393,472.1869042683393,472.1869042683393,472.1869042683393,472.1869042683393,472.1869042683393,472.1869042683393,472.1869042683393,472.1869042683393,472.1869042683393,472.1869042683393,472.1869042683393,,f,2.1488698665052652,target,None,,,,,,,,,,,,,,,,ST04_112822,2022-11-29_16h21.45.848,Hippopolis_4AFCT,2022.2.2,59.99716392154619,
Camponello,stimuli/subj_files/ST04_112822_cityB.csv,./stimuli/arnedillo.png,./stimuli/street_plate2.png,./stimuli/videos/camponello_part1.mp4,SAJTÓ UTCA,stimuli/scenes/103a.jpg,scene,0,stimuli/scenes/103a.jpg,stimuli/scenes/105b.jpg,stimuli/scenes/103a.jpg,stimuli/scenes/103b.jpg,stimuli/scenes/105a.jpg,dist2,target,lure,dist1,0,1,1,1,0,35,35,75,,,,,,,474.3632707055658,475.4099997263402,475.4099997263402,475.4099997263402,475.4099997263402,475.4099997263402,475.4099997263402,475.4099997263402,475.4099997263402,475.4099997263402,475.4099997263402,475.4099997263402,475.4099997263402,,f,1.6779072899371386,target,None,,,,,,,,,,,,,,,,ST04_112822,2022-11-29_16h21.45.848,Hippopolis_4AFCT,2022.2.2,59.99716392154619,
Camponello,stimuli/subj_files/ST04_112822_cityB.csv,./stimuli/arnedillo.png,./stimuli/street_plate2.png,./stimuli/videos/camponello_part1.mp4,VITORLA UTCA,stimuli/scenes/068a.jpg,scene,2,stimuli/objects/020a.jpg,stimuli/objects/020b.jpg,stimuli/scenes/007a.jpg,stimuli/objects/020a.jpg,stimuli/scenes/007b.jpg,lure,dist1,target,dist2,0,1,1,1,0,36,36,11,,,,,,,477.11302905343473,478.1664817221463,478.1664817221463,478.1664817221463,478.1664817221463,478.1664817221463,478.1664817221463,478.1664817221463,478.1664817221463,478.1664817221463,478.1664817221463,478.1664817221463,478.1664817221463,,f,3.1613328270614147,dist1,None,,,,,,,,,,,,,,,,ST04_112822,2022-11-29_16h21.45.848,Hippopolis_4AFCT,2022.2.2,59.99716392154619,
Camponello,stimuli/subj_files/ST04_112822_cityB.csv,./stimuli/arnedillo.png,./stimuli/street_plate2.png,./stimuli/videos/camponello_part1.mp4,TOBOZ UTCA,stimuli/objects/032a.jpg,object,0,stimuli/objects/032a.jpg,stimuli/objects/032b.jpg,stimuli/objects/113a.jpg,stimuli/objects/113b.jpg,stimuli/objects/032a.jpg,lure,dist1,dist2,target,0,1,1,1,0,37,37,70,,,,,,,481.34749677218497,482.412317968905,482.412317968905,482.412317968905,482.412317968905,482.412317968905,482.412317968905,482.412317968905,482.412317968905,482.412317968905,482.412317968905,482.412317968905,482.412317968905,,k,2.563343420624733,target,None,,,,,,,,,,,,,,,,ST04_112822,2022-11-29_16h21.45.848,Hippopolis_4AFCT,2022.2.2,59.99716392154619,
Camponello,stimuli/subj_files/ST04_112822_cityB.csv,./stimuli/arnedillo.png,./stimuli/street_plate2.png,./stimuli/videos/camponello_part1.mp4,SZOMSZÉD UTCA,stimuli/objects/113a.jpg,object,0,stimuli/objects/113a.jpg,stimuli/objects/113a.jpg,stimuli/scenes/049b.jpg,stimuli/scenes/049a.jpg,stimuli/objects/113b.jpg,target,dist2,dist1,lure,0,1,1,1,0,38,38,0,,,,,,,485.0070632677525,486.0432497933507,486.0432497933507,486.0432497933507,486.0432497933507,486.0432497933507,486.0432497933507,486.0432497933507,486.0432497933507,486.0432497933507,486.0432497933507,486.0432497933507,486.0432497933507,,d,1.7483545914292336,target,None,,,,,,,,,,,,,,,,ST04_112822,2022-11-29_16h21.45.848,Hippopolis_4AFCT,2022.2.2,59.99716392154619,
Camponello,stimuli/subj_files/ST04_112822_cityB.csv,./stimuli/arnedillo.png,./stimuli/street_plate2.png,./stimuli/videos/camponello_part1.mp4,SÜTŐ UTCA,stimuli/objects/070a.jpg,object,1,stimuli/objects/011a.jpg,stimuli/objects/011a.jpg,stimuli/scenes/001a.jpg,stimuli/scenes/001b.jpg,stimuli/objects/011b.jpg,target,dist1,dist2,lure,0,1,1,1,0,39,39,39,,,,,,,487.8129918575287,488.87613921798766,488.87613921798766,488.87613921798766,488.87613921798766,488.87613921798766,488.87613921798766,488.87613921798766,488.87613921798766,488.87613921798766,488.87613921798766,488.87613921798766,488.87613921798766,,f,1.7000139355659485,dist1,None,,,,,,,,,,,,,,,,ST04_112822,2022-11-29_16h21.45.848,Hippopolis_4AFCT,2022.2.2,59.99716392154619,
Camponello,stimuli/subj_files/ST04_112822_cityB.csv,./stimuli/arnedillo.png,./stimuli/street_plate2.png,./stimuli/videos/camponello_part1.mp4,AKÁC UTCA,stimuli/scenes/008a.jpg,scene,2,stimuli/objects/046a.jpg,stimuli/objects/046a.jpg,stimuli/objects/009a.jpg,stimuli/objects/046b.jpg,stimuli/objects/009b.jpg,target,dist1,lure,dist2,0,1,1,1,0,40,40,44,,,,,,,490.59612616710365,491.64695674180984,491.64695674180984,491.64695674180984,491.64695674180984,491.64695674180984,491.64695674180984,491.64695674180984,491.64695674180984,491.64695674180984,491.64695674180984,491.64695674180984,491.64695674180984,,f,3.392820794135332,dist1,None,,,,,,,,,,,,,,,,ST04_112822,2022-11-29_16h21.45.848,Hippopolis_4AFCT,2022.2.2,59.99716392154619,
Camponello,stimuli/subj_files/ST04_112822_cityB.csv,./stimuli/arnedillo.png,./stimuli/street_plate2.png,./stimuli/videos/camponello_part1.mp4,PÁFRÁNY UTCA,stimuli/scenes/083a.jpg,scene,0,stimuli/scenes/083a.jpg,stimuli/scenes/019b.jpg,stimuli/scenes/083a.jpg,stimuli/scenes/083b.jpg,stimuli/scenes/019a.jpg,dist2,target,lure,dist1,0,1,1,1,0,41,41,29,,,,,,,495.0646122004837,496.12527897395194,496.12527897395194,496.12527897395194,496.12527897395194,496.12527897395194,496.12527897395194,496.12527897395194,496.12527897395194,496.12527897395194,496.12527897395194,496.12527897395194,496.12527897395194,,f,3.0108729116618633,target,None,,,,,,,,,,,,,,,,ST04_112822,2022-11-29_16h21.45.848,Hippopolis_4AFCT,2022.2.2,59.99716392154619,
Camponello,stimuli/subj_files/ST04_112822_cityB.csv,./stimuli/arnedillo.png,./stimuli/street_plate2.png,./stimuli/videos/camponello_part1.mp4,HEGESZTŐ UTCA,stimuli/objects/016a.jpg,object,2,stimuli/scenes/060a.jpg,stimuli/scenes/084a.jpg,stimuli/scenes/060b.jpg,stimuli/scenes/060a.jpg,stimuli/scenes/084b.jpg,dist1,lure,target,dist2,0,1,1,1,0,42,42,32,,,,,,,499.1539714895189,500.1991594750434,500.1991594750434,500.1991594750434,500.1991594750434,500.1991594750434,500.1991594750434,500.1991594750434,500.1991594750434,500.1991594750434,500.1991594750434,500.1991594750434,500.1991594750434,503.6474661696702,j,3.672546783462167,target,None,,,,,,,,,,,,,,,,ST04_112822,2022-11-29_16h21.45.848,Hippopolis_4AFCT,2022.2.2,59.99716392154619,
Camponello,stimuli/subj_files/ST04_112822_cityB.csv,./stimuli/arnedillo.png,./stimuli/street_plate2.png,./stimuli/videos/camponello_part1.mp4,MOTOR UTCA,stimuli/objects/073a.jpg,object,0,stimuli/objects/073a.jpg,stimuli/objects/028a.jpg,stimuli/objects/073b.jpg,stimuli/objects/073a.jpg,stimuli/objects/028b.jpg,dist1,lure,target,dist2,0,1,1,1,0,43,43,7,,,,,,,503.90344215743244,504.9626913629472,504.9626913629472,504.9626913629472,504.9626913629472,504.9626913629472,504.9626913629472,504.9626913629472,504.9626913629472,504.9626913629472,504.9626913629472,504.9626913629472,504.9626913629472,,j,2.445197068154812,target,None,,,,,,,,,,,,,,,,ST04_112822,2022-11-29_16h21.45.848,Hippopolis_4AFCT,2022.2.2,59.99716392154619,
Camponello,stimuli/subj_files/ST04_112822_cityB.csv,./stimuli/arnedillo.png,./stimuli/street_plate2.png,./stimuli/videos/camponello_part1.mp4,PÁLMAFA UTCA,stimuli/scenes/043a.jpg,scene,1,stimuli/scenes/001a.jpg,stimuli/scenes/001a.jpg,stimuli/objects/001b.jpg,stimuli/objects/001a.jpg,stimuli/scenes/001b.jpg,target,dist2,dist1,lure,0,1,1,1,0,44,44,68,,,,,,,507.4509698431939,508.4998678229749,508.4998678229749,508.4998678229749,508.4998678229749,508.4998678229749,508.4998678229749,508.4998678229749,508.4998678229749,508.4998678229749,508.4998678229749,508.4998678229749,508.4998678229749,,j,2.251449106261134,dist1,space,,510.77577403374016,510.77577403374016,3.559622850269079,,,,,,,,,,,,ST04_112822,2022-11-29_16h21.45.848,Hippopolis_4AFCT,2022.2.2,59.99716392154619,
Camponello,stimuli/subj_files/ST04_112822_cityB.csv,./stimuli/arnedillo.png,./stimuli/street_plate2.png,./stimuli/videos/camponello_part1.mp4,TERÍTŐ UTCA,stimuli/objects/006a.jpg,object,0,stimuli/objects/006a.jpg,stimuli/objects/006b.jpg,stimuli/objects/006a.jpg,stimuli/scenes/035b.jpg,stimuli/scenes/035a.jpg,lure,target,dist2,dist1,0,1,1,1,0,45,45,12,,,,,,,514.3586354665458,515.4402143098414,515.4402143098414,515.4402143098414,515.4402143098414,515.4402143098414,515.4402143098414,515.4402143098414,515.4402143098414,515.4402143098414,515.4402143098414,515.4402143098414,515.4402143098414,,f,1.615223329514265,target,None,,,,,,,,,,,,,,,,ST04_112822,2022-11-29_16h21.45.848,Hippopolis_4AFCT,2022.2.2,59.99716392154619,
Camponello,stimuli/subj_files/ST04_112822_cityB.csv,./stimuli/arnedillo.png,./stimuli/street_plate2.png,./stimuli/videos/camponello_part1.mp4,PALACK UTCA,stimuli/objects/096a.jpg,object,0,stimuli/objects/096a.jpg,stimuli/scenes/078b.jpg,stimuli/scenes/078a.jpg,stimuli/objects/096b.jpg,stimuli/objects/096a.jpg,dist2,dist1,lure,target,0,1,1,1,0,46,46,59,,,,,,,517.0763386972249,518.149376058951,518.149376058951,518.149376058951,518.149376058951,518.149376058951,518.149376058951,518.149376058951,518.149376058951,518.149376058951,518.149376058951,518.149376058951,518.149376058951,,k,1.5946172904223204,target,None,,,,,,,,,,,,,,,,ST04_112822,2022-11-29_16h21.45.848,Hippopolis_4AFCT,2022.2.2,59.99716392154619,
Camponello,stimuli/subj_files/ST04_112822_cityB.csv,./stimuli/arnedillo.png,./stimuli/street_plate2.png,./stimuli/videos/camponello_part1.mp4,OLDAL UTCA,stimuli/objects/083a.jpg,object,2,stimuli/scenes/084a.jpg,stimuli/scenes/084a.jpg,stimuli/scenes/084b.jpg,stimuli/scenes/107b.jpg,stimuli/scenes/107a.jpg,target,lure,dist2,dist1,0,1,1,1,0,47,47,57,,,,,,,519.7791080214083,520.8038687966764,520.8038687966764,520.8038687966764,520.8038687966764,520.8038687966764,520.8038687966764,520.8038687966764,520.8038687966764,520.8038687966764,520.8038687966764,520.8038687966764,520.8038687966764,,d,3.067426623776555,target,None,,,,,,,,,,,,,,,,ST04_112822,2022-11-29_16h21.45.848,Hippopolis_4AFCT,2022.2.2,59.99716392154619,
Camponello,stimuli/subj_files/ST04_112822_cityB.csv,./stimuli/arnedillo.png,./stimuli/street_plate2.png,./stimuli/videos/camponello_part1.mp4,LEVÉL UTCA,stimuli/objects/005a.jpg,object,0,stimuli/objects/005a.jpg,stimuli/objects/006b.jpg,stimuli/objects/006a.jpg,stimuli/objects/005a.jpg,stimuli/objects/005b.jpg,dist2,dist1,target,lure,0,1,1,1,0,48,48,34,,,,,,,523.8911779318005,524.9618550669402,524.9618550669402,524.9618550669402,524.9618550669402,524.9618550669402,524.9618550669402,524.9618550669402,524.9618550669402,524.9618550669402,524.9618550669402,524.9618550669402,524.9618550669402,,j,1.886011617258191,target,None,,,,,,,,,,,,,,,,ST04_112822,2022-11-29_16h21.45.848,Hippopolis_4AFCT,2022.2.2,59.99716392154619,
Camponello,stimuli/subj_files/ST04_112822_cityB.csv,./stimuli/arnedillo.png,./stimuli/street_plate2.png,./stimuli/videos/camponello_part1.mp4,TORONY UTCA,stimuli/scenes/022a.jpg,scene,0,stimuli/scenes/022a.jpg,stimuli/objects/073a.jpg,stimuli/scenes/022a.jpg,stimuli/objects/073b.jpg,stimuli/scenes/022b.jpg,dist1,target,dist2,lure,0,1,1,1,0,49,49,31,,,,,,,526.8742728680372,527.9301349036396,527.9301349036396,527.9301349036396,527.9301349036396,527.9301349036396,527.9301349036396,527.9301349036396,527.9301349036396,527.9301349036396,527.9301349036396,527.9301349036396,527.9301349036396,,f,1.7813868913799524,target,None,,,,,,,,,,,,,,,,ST04_112822,2022-11-29_16h21.45.848,Hippopolis_4AFCT,2022.2.2,59.99716392154619,
Camponello,stimuli/subj_files/ST04_112822_cityB.csv,./stimuli/arnedillo.png,./stimuli/street_plate2.png,./stimuli/videos/camponello_part1.mp4,SZŐLŐ UTCA,stimuli/objects/060a.jpg,object,1,stimuli/objects/108a.jpg,stimuli/objects/108a.jpg,stimuli/objects/108b.jpg,stimuli/scenes/064a.jpg,stimuli/scenes/064b.jpg,target,lure,dist1,dist2,0,1,1,1,0,50,50,56,,,,,,,529.7326909396797,530.7826357670128,530.7826357670128,530.7826357670128,530.7826357670128,530.7826357670128,530.7826357670128,530.7826357670128,530.7826357670128,530.7826357670128,530.7826357670128,530.7826357670128,530.7826357670128,,d,1.6487516835331917,target,None,530.7826357670128,,,,,,,,,,,,,,,ST04_112822,2022-11-29_16h21.45.848,Hippopolis_4AFCT,2022.2.2,59.99716392154619,
Camponello,stimuli/subj_files/ST04_112822_cityB.csv,./stimuli/arnedillo.png,./stimuli/street_plate2.png,./stimuli/videos/camponello_part1.mp4,KOCKA UTCA,stimuli/objects/053a.jpg,object,0,stimuli/objects/053a.jpg,stimuli/objects/053b.jpg,stimuli/scenes/092a.jpg,stimuli/objects/053a.jpg,stimuli/scenes/092b.jpg,lure,dist1,target,dist2,0,1,1,1,0,51,51,47,,,,,,,532.4638955798,533.5112164467573,533.5112164467573,533.5112164467573,533.5112164467573,533.5112164467573,533.5112164467573,533.5112164467573,533.5112164467573,533.5112164467573,533.5112164467573,533.5112164467573,533.5112164467573,,j,2.0880774464458227,target,None,,,,,,,,,,,,,,,,ST04_112822,2022-11-29_16h21.45.848,Hippopolis_4AFCT,2022.2.2,59.99716392154619,
Camponello,stimuli/subj_files/ST04_112822_cityB.csv,./stimuli/arnedillo.png,./stimuli/street_plate2.png,./stimuli/videos/camponello_part1.mp4,FÓKA UTCA,stimuli/scenes/014a.jpg,scene,0,stimuli/scenes/014a.jpg,stimuli/scenes/014a.jpg,stimuli/scenes/014b.jpg,stimuli/objects/063a.jpg,stimuli/objects/063b.jpg,target,lure,dist1,dist2,0,1,1,1,0,52,52,64,,,,,,,535.641401855275,536.6907221823931,536.6907221823931,536.6907221823931,536.6907221823931,536.6907221823931,536.6907221823931,536.6907221823931,536.6907221823931,536.6907221823931,536.6907221823931,536.6907221823931,536.6907221823931,,d,1.7569744437932968,target,None,,,,,,,,,,,,,,,,ST04_112822,2022-11-29_16h21.45.848,Hippopolis_4AFCT,2022.2.2,59.99716392154619,
Camponello,stimuli/subj_files/ST04_112822_cityB.csv,./stimuli/arnedillo.png,./stimuli/street_plate2.png,./stimuli/videos/camponello_part1.mp4,HORDÓ UTCA,stimuli/scenes/120a.jpg,scene,0,stimuli/scenes/120a.jpg,stimuli/objects/118b.jpg,stimuli/objects/118a.jpg,stimuli/scenes/120b.jpg,stimuli/scenes/120a.jpg,dist2,dist1,lure,target,0,1,1,1,0,53,53,54,,,,,,,538.4819236863405,539.5213008280843,539.5213008280843,539.5213008280843,539.5213008280843,539.5213008280843,539.5213008280843,539.5213008280843,539.5213008280843,539.5213008280843,539.5213008280843,539.5213008280843,539.5213008280843,,k,2.9736354928463697,target,None,,,,,,,,,,,,,,,,ST04_112822,2022-11-29_16h21.45.848,Hippopolis_4AFCT,2022.2.2,59.99716392154619,
Camponello,stimuli/subj_files/ST04_112822_cityB.csv,./stimuli/arnedillo.png,./stimuli/street_plate2.png,./stimuli/videos/camponello_part1.mp4,TULIPÁN UTCA,stimuli/scenes/078a.jpg,scene,0,stimuli/scenes/078a.jpg,stimuli/scenes/002b.jpg,stimuli/scenes/002a.jpg,stimuli/scenes/078a.jpg,stimuli/scenes/078b.jpg,dist2,dist1,target,lure,0,1,1,1,0,54,54,61,,,,,,,542.5225744005293,543.5842933077365,543.5842933077365,543.5842933077365,543.5842933077365,543.5842933077365,543.5842933077365,543.5842933077365,543.5842933077365,543.5842933077365,543.5842933077365,543.5842933077365,543.5842933077365,,j,1.7425114046782255,target,None,,,,,,,,,,,,,,,,ST04_112822,2022-11-29_16h21.45.848,Hippopolis_4AFCT,2022.2.2,59.99716392154619,
