CityName,StimuliFile,CityImage,StreetSign,Cue,Image,Category,Novelty,UpdateImage,TestImage1,TestImage2,TestImage3,TestImage4,TestImage1Type,TestImage2Type,TestImage3Type,TestImage4Type,CityBlock.thisRepN,CityBlock.thisTrialN,CityBlock.thisN,CityBlock.thisIndex,LearningTrials.thisRepN,LearningTrials.thisTrialN,LearningTrials.thisN,LearningTrials.thisIndex,learning_instructions_text.started,intro_key.started,intro_key.keys,intro_key.rt,cityname_text.started,city_image.started,fx_cross.started,plate_updating.started,city_text_updating.started,street_text_updating.started,test_image1.started,test_image2.started,test_image3.started,test_image4.started,button_d.started,button_f.started,button_j.started,button_k.started,key_resp.started,key_resp.keys,key_resp.rt,test_resp,short_break_key.keys,clock0.started,fx_cross.stopped,short_break_text.started,short_break_key.started,short_break_key.rt,n_targets,n_lures,n_dist1s,n_dist2s,break_text.started,break_key_resp.started,break_key_resp.keys,break_key_resp.rt,end_text.started,participant,date,expName,psychopyVersion,frameRate,
,,,,,,,,,,,,,,,,,,,,,,,,,14.913228284567595,14.913228284567595,space,53.69824991375208,,,,,,,,,,,,,,,,,,,,,,,,,,,,,,,,,,student1,2022-10-21_15h16.27.082,Hippopolis_4AFCT,2022.2.2,59.938558811190426,
Hippopolis,stimuli/subj_files/student1_cityA.csv,./stimuli/frankfurt.jpg,./stimuli/street_plate1.png,MUNKA UTCA,stimuli/scenes/039a.jpg,scene,2,stimuli/objects/067a.jpg,stimuli/scenes/097a.jpg,stimuli/objects/067b.jpg,stimuli/objects/067a.jpg,stimuli/scenes/097b.jpg,dist1,lure,target,dist2,0,0,0,0,0,0,0,4,,,,,68.70152561180294,68.70152561180294,71.66495250351727,72.7003919929266,72.7003919929266,72.7003919929266,72.7003919929266,72.7003919929266,72.7003919929266,72.7003919929266,72.7003919929266,72.7003919929266,72.7003919929266,72.7003919929266,72.7003919929266,j,3.1107451543211937,target,None,,,,,,,,,,,,,,,student1,2022-10-21_15h16.27.082,Hippopolis_4AFCT,2022.2.2,59.938558811190426,
Hippopolis,stimuli/subj_files/student1_cityA.csv,./stimuli/frankfurt.jpg,./stimuli/street_plate1.png,TALICSKA UTCA,stimuli/objects/014a.jpg,object,1,stimuli/objects/108a.jpg,stimuli/objects/109a.jpg,stimuli/objects/109b.jpg,stimuli/objects/108a.jpg,stimuli/objects/108b.jpg,dist1,dist2,target,lure,0,0,0,0,0,1,1,13,,,,,,,75.83673719502985,76.8909428101033,76.8909428101033,76.8909428101033,76.8909428101033,76.8909428101033,76.8909428101033,76.8909428101033,76.8909428101033,76.8909428101033,76.8909428101033,76.8909428101033,76.8909428101033,j,3.2561670765280724,target,None,,,,,,,,,,,,,,,student1,2022-10-21_15h16.27.082,Hippopolis_4AFCT,2022.2.2,59.938558811190426,
Hippopolis,stimuli/subj_files/student1_cityA.csv,./stimuli/frankfurt.jpg,./stimuli/street_plate1.png,MARTINI UTCA,stimuli/objects/060a.jpg,object,1,stimuli/objects/011a.jpg,stimuli/objects/075b.jpg,stimuli/objects/075a.jpg,stimuli/objects/011b.jpg,stimuli/objects/011a.jpg,dist2,dist1,lure,target,0,0,0,0,0,2,2,60,,,,,,,80.17812735587358,81.24324742890894,81.24324742890894,81.24324742890894,81.24324742890894,81.24324742890894,81.24324742890894,81.24324742890894,81.24324742890894,81.24324742890894,81.24324742890894,81.24324742890894,81.24324742890894,f,3.1435868069529533,dist1,None,,,,,,,,,,,,,,,student1,2022-10-21_15h16.27.082,Hippopolis_4AFCT,2022.2.2,59.938558811190426,
Hippopolis,stimuli/subj_files/student1_cityA.csv,./stimuli/frankfurt.jpg,./stimuli/street_plate1.png,KORONG UTCA,stimuli/scenes/065a.jpg,scene,1,stimuli/scenes/004a.jpg,stimuli/scenes/004a.jpg,stimuli/scenes/011b.jpg,stimuli/scenes/011a.jpg,stimuli/scenes/004b.jpg,target,dist2,dist1,lure,0,0,0,0,0,3,3,53,,,,,,,84.41690251417458,85.46964173391461,85.46964173391461,85.46964173391461,85.46964173391461,85.46964173391461,85.46964173391461,85.46964173391461,85.46964173391461,85.46964173391461,85.46964173391461,85.46964173391461,85.46964173391461,k,2.8701335042715073,lure,None,,,,,,,,,,,,,,,student1,2022-10-21_15h16.27.082,Hippopolis_4AFCT,2022.2.2,59.938558811190426,
Hippopolis,stimuli/subj_files/student1_cityA.csv,./stimuli/frankfurt.jpg,./stimuli/street_plate1.png,BOLYGÓ UTCA,stimuli/scenes/118a.jpg,scene,1,stimuli/scenes/087a.jpg,stimuli/objects/011a.jpg,stimuli/scenes/087b.jpg,stimuli/objects/011b.jpg,stimuli/scenes/087a.jpg,dist1,lure,dist2,target,0,0,0,0,0,4,4,31,,,,,,,88.36684883385897,89.41995970718563,89.41995970718563,89.41995970718563,89.41995970718563,89.41995970718563,89.41995970718563,89.41995970718563,89.41995970718563,89.41995970718563,89.41995970718563,89.41995970718563,89.41995970718563,d,3.2389363907277584,dist1,None,,,,,,,,,,,,,,,student1,2022-10-21_15h16.27.082,Hippopolis_4AFCT,2022.2.2,59.938558811190426,
Hippopolis,stimuli/subj_files/student1_cityA.csv,./stimuli/frankfurt.jpg,./stimuli/street_plate1.png,PÉKSÉG UTCA,stimuli/scenes/073a.jpg,scene,2,stimuli/objects/059a.jpg,stimuli/objects/059a.jpg,stimuli/objects/046b.jpg,stimuli/objects/059b.jpg,stimuli/objects/046a.jpg,target,dist2,lure,dist1,0,0,0,0,0,5,5,61,,,,,,,92.68339020572603,93.75082852132618,93.75082852132618,93.75082852132618,93.75082852132618,93.75082852132618,93.75082852132618,93.75082852132618,93.75082852132618,93.75082852132618,93.75082852132618,93.75082852132618,93.75082852132618,d,2.092147283256054,target,None,,,,,,,,,,,,,,,student1,2022-10-21_15h16.27.082,Hippopolis_4AFCT,2022.2.2,59.938558811190426,
Hippopolis,stimuli/subj_files/student1_cityA.csv,./stimuli/frankfurt.jpg,./stimuli/street_plate1.png,KOKTÉL UTCA,stimuli/scenes/008a.jpg,scene,2,stimuli/objects/012a.jpg,stimuli/objects/036b.jpg,stimuli/objects/012b.jpg,stimuli/objects/036a.jpg,stimuli/objects/012a.jpg,dist2,lure,dist1,target,0,0,0,0,0,6,6,46,,,,,,,95.88300343975425,96.95683884434402,96.95683884434402,96.95683884434402,96.95683884434402,96.95683884434402,96.95683884434402,96.95683884434402,96.95683884434402,96.95683884434402,96.95683884434402,96.95683884434402,96.95683884434402,f,2.7417360693216324,lure,None,,,,,,,,,,,,,,,student1,2022-10-21_15h16.27.082,Hippopolis_4AFCT,2022.2.2,59.938558811190426,
Hippopolis,stimuli/subj_files/student1_cityA.csv,./stimuli/frankfurt.jpg,./stimuli/street_plate1.png,CUKOR UTCA,stimuli/objects/111a.jpg,object,0,stimuli/objects/111a.jpg,stimuli/objects/089b.jpg,stimuli/objects/111b.jpg,stimuli/objects/111a.jpg,stimuli/objects/089a.jpg,dist2,lure,target,dist1,0,0,0,0,0,7,7,30,,,,,,,99.73624480888247,100.80459312908351,100.80459312908351,100.80459312908351,100.80459312908351,100.80459312908351,100.80459312908351,100.80459312908351,100.80459312908351,100.80459312908351,100.80459312908351,100.80459312908351,100.80459312908351,j,3.630072647705674,target,None,104.2414050269872,,,,,,,,,,,,,,student1,2022-10-21_15h16.27.082,Hippopolis_4AFCT,2022.2.2,59.938558811190426,
Hippopolis,stimuli/subj_files/student1_cityA.csv,./stimuli/frankfurt.jpg,./stimuli/street_plate1.png,KÖNYVTÁR UTCA,stimuli/objects/113a.jpg,object,1,stimuli/objects/109a.jpg,stimuli/objects/109a.jpg,stimuli/objects/109b.jpg,stimuli/scenes/067a.jpg,stimuli/scenes/067b.jpg,target,lure,dist1,dist2,0,0,0,0,0,8,8,42,,,,,,,104.46643899008632,105.52542601712048,105.52542601712048,105.52542601712048,105.52542601712048,105.52542601712048,105.52542601712048,105.52542601712048,105.52542601712048,105.52542601712048,105.52542601712048,105.52542601712048,105.52542601712048,d,2.92499440908432,target,None,,,,,,,,,,,,,,,student1,2022-10-21_15h16.27.082,Hippopolis_4AFCT,2022.2.2,59.938558811190426,
Hippopolis,stimuli/subj_files/student1_cityA.csv,./stimuli/frankfurt.jpg,./stimuli/street_plate1.png,EGÉR UTCA,stimuli/scenes/071a.jpg,scene,1,stimuli/scenes/116a.jpg,stimuli/scenes/116b.jpg,stimuli/scenes/116a.jpg,stimuli/scenes/009b.jpg,stimuli/scenes/009a.jpg,lure,target,dist2,dist1,0,0,0,0,0,9,9,29,,,,,,,108.48329366929829,109.55421276949346,109.55421276949346,109.55421276949346,109.55421276949346,109.55421276949346,109.55421276949346,109.55421276949346,109.55421276949346,109.55421276949346,109.55421276949346,109.55421276949346,109.55421276949346,f,1.7932763621211052,target,None,,,,,,,,,,,,,,,student1,2022-10-21_15h16.27.082,Hippopolis_4AFCT,2022.2.2,59.938558811190426,
Hippopolis,stimuli/subj_files/student1_cityA.csv,./stimuli/frankfurt.jpg,./stimuli/street_plate1.png,KÖTÉL UTCA,stimuli/objects/051a.jpg,object,0,stimuli/objects/051a.jpg,stimuli/scenes/024b.jpg,stimuli/objects/051b.jpg,stimuli/scenes/024a.jpg,stimuli/objects/051a.jpg,dist2,lure,dist1,target,0,0,0,0,0,10,10,7,,,,,,,111.3664563447237,112.42490159720182,112.42490159720182,112.42490159720182,112.42490159720182,112.42490159720182,112.42490159720182,112.42490159720182,112.42490159720182,112.42490159720182,112.42490159720182,112.42490159720182,112.42490159720182,k,3.8498540222644806,target,None,115.87351836636662,,,,,,,,,,,,,,student1,2022-10-21_15h16.27.082,Hippopolis_4AFCT,2022.2.2,59.938558811190426,
Hippopolis,stimuli/subj_files/student1_cityA.csv,./stimuli/frankfurt.jpg,./stimuli/street_plate1.png,PÁLMAFA UTCA,stimuli/objects/090a.jpg,object,1,stimuli/objects/007a.jpg,stimuli/objects/053a.jpg,stimuli/objects/007a.jpg,stimuli/objects/053b.jpg,stimuli/objects/007b.jpg,dist1,target,dist2,lure,0,0,0,0,0,11,11,12,,,,,,,116.2966338545084,117.3688199929893,117.3688199929893,117.3688199929893,117.3688199929893,117.3688199929893,117.3688199929893,117.3688199929893,117.3688199929893,117.3688199929893,117.3688199929893,117.3688199929893,117.3688199929893,f,3.0816576592624187,target,None,,,,,,,,,,,,,,,student1,2022-10-21_15h16.27.082,Hippopolis_4AFCT,2022.2.2,59.938558811190426,
Hippopolis,stimuli/subj_files/student1_cityA.csv,./stimuli/frankfurt.jpg,./stimuli/street_plate1.png,KERET UTCA,stimuli/scenes/027a.jpg,scene,0,stimuli/scenes/027a.jpg,stimuli/objects/100a.jpg,stimuli/objects/100b.jpg,stimuli/scenes/027a.jpg,stimuli/scenes/027b.jpg,dist1,dist2,target,lure,0,0,0,0,0,12,12,3,,,,,,,120.48298359662294,121.54011702537537,121.54011702537537,121.54011702537537,121.54011702537537,121.54011702537537,121.54011702537537,121.54011702537537,121.54011702537537,121.54011702537537,121.54011702537537,121.54011702537537,121.54011702537537,j,2.622908614575863,target,None,,,,,,,,,,,,,,,student1,2022-10-21_15h16.27.082,Hippopolis_4AFCT,2022.2.2,59.938558811190426,
Hippopolis,stimuli/subj_files/student1_cityA.csv,./stimuli/frankfurt.jpg,./stimuli/street_plate1.png,TOJÁS UTCA,stimuli/objects/021a.jpg,object,2,stimuli/scenes/034a.jpg,stimuli/scenes/034a.jpg,stimuli/objects/059a.jpg,stimuli/objects/059b.jpg,stimuli/scenes/034b.jpg,target,dist1,dist2,lure,0,0,0,0,0,13,13,37,,,,,,,124.19592096470296,125.23920870013535,125.23920870013535,125.23920870013535,125.23920870013535,125.23920870013535,125.23920870013535,125.23920870013535,125.23920870013535,125.23920870013535,125.23920870013535,125.23920870013535,125.23920870013535,d,2.3151746317744255,target,None,,,,,,,,,,,,,,,student1,2022-10-21_15h16.27.082,Hippopolis_4AFCT,2022.2.2,59.938558811190426,
Hippopolis,stimuli/subj_files/student1_cityA.csv,./stimuli/frankfurt.jpg,./stimuli/street_plate1.png,OROSZLÁN UTCA,stimuli/scenes/072a.jpg,scene,0,stimuli/scenes/072a.jpg,stimuli/scenes/072a.jpg,stimuli/scenes/072b.jpg,stimuli/scenes/027b.jpg,stimuli/scenes/027a.jpg,target,lure,dist2,dist1,0,0,0,0,0,14,14,66,,,,,,,127.57397566922009,128.61809285916388,128.61809285916388,128.61809285916388,128.61809285916388,128.61809285916388,128.61809285916388,128.61809285916388,128.61809285916388,128.61809285916388,128.61809285916388,128.61809285916388,128.61809285916388,d,2.6326424907892942,target,None,,,,,,,,,,,,,,,student1,2022-10-21_15h16.27.082,Hippopolis_4AFCT,2022.2.2,59.938558811190426,
Hippopolis,stimuli/subj_files/student1_cityA.csv,./stimuli/frankfurt.jpg,./stimuli/street_plate1.png,TOLLTARTÓ UTCA,stimuli/objects/032a.jpg,object,2,stimuli/scenes/119a.jpg,stimuli/scenes/119a.jpg,stimuli/scenes/104b.jpg,stimuli/scenes/104a.jpg,stimuli/scenes/119b.jpg,target,dist2,dist1,lure,0,0,0,0,0,15,15,67,,,,,,,131.27017622999847,132.30669988691807,132.30669988691807,132.30669988691807,132.30669988691807,132.30669988691807,132.30669988691807,132.30669988691807,132.30669988691807,132.30669988691807,132.30669988691807,132.30669988691807,132.30669988691807,d,2.2722756527364254,target,None,,132.30669988691807,,,,,,,,,,,,,student1,2022-10-21_15h16.27.082,Hippopolis_4AFCT,2022.2.2,59.938558811190426,
Hippopolis,stimuli/subj_files/student1_cityA.csv,./stimuli/frankfurt.jpg,./stimuli/street_plate1.png,TRIATLON UTCA,stimuli/objects/024a.jpg,object,0,stimuli/objects/024a.jpg,stimuli/objects/024b.jpg,stimuli/objects/080a.jpg,stimuli/objects/024a.jpg,stimuli/objects/080b.jpg,lure,dist1,target,dist2,0,0,0,0,0,16,16,2,,,,,,,134.623783653602,135.68666074983776,135.68666074983776,135.68666074983776,135.68666074983776,135.68666074983776,135.68666074983776,135.68666074983776,135.68666074983776,135.68666074983776,135.68666074983776,135.68666074983776,135.68666074983776,j,2.0596803929656744,target,None,,,,,,,,,,,,,,,student1,2022-10-21_15h16.27.082,Hippopolis_4AFCT,2022.2.2,59.938558811190426,
Hippopolis,stimuli/subj_files/student1_cityA.csv,./stimuli/frankfurt.jpg,./stimuli/street_plate1.png,POGÁCSA UTCA,stimuli/scenes/046a.jpg,scene,0,stimuli/scenes/046a.jpg,stimuli/scenes/042a.jpg,stimuli/scenes/046a.jpg,stimuli/scenes/046b.jpg,stimuli/scenes/042b.jpg,dist1,target,lure,dist2,0,0,0,0,0,17,17,49,,,,,,,137.77809569612145,138.8244906961918,138.8244906961918,138.8244906961918,138.8244906961918,138.8244906961918,138.8244906961918,138.8244906961918,138.8244906961918,138.8244906961918,138.8244906961918,138.8244906961918,138.8244906961918,f,2.698366852477193,target,None,,,,,,,,,,,,,,,student1,2022-10-21_15h16.27.082,Hippopolis_4AFCT,2022.2.2,59.938558811190426,
Hippopolis,stimuli/subj_files/student1_cityA.csv,./stimuli/frankfurt.jpg,./stimuli/street_plate1.png,PAPUCS UTCA,stimuli/scenes/051a.jpg,scene,0,stimuli/scenes/051a.jpg,stimuli/scenes/051b.jpg,stimuli/scenes/051a.jpg,stimuli/scenes/090a.jpg,stimuli/scenes/090b.jpg,lure,target,dist1,dist2,0,0,0,0,0,18,18,68,,,,,,,141.56155189685524,142.624986005947,142.624986005947,142.624986005947,142.624986005947,142.624986005947,142.624986005947,142.624986005947,142.624986005947,142.624986005947,142.624986005947,142.624986005947,142.624986005947,f,2.4492196310311556,target,None,,,,,,,,,,,,,,,student1,2022-10-21_15h16.27.082,Hippopolis_4AFCT,2022.2.2,59.938558811190426,
Hippopolis,stimuli/subj_files/student1_cityA.csv,./stimuli/frankfurt.jpg,./stimuli/street_plate1.png,ÁRNYÉK UTCA,stimuli/objects/020a.jpg,object,1,stimuli/objects/027a.jpg,stimuli/scenes/004a.jpg,stimuli/objects/027b.jpg,stimuli/objects/027a.jpg,stimuli/scenes/004b.jpg,dist1,lure,target,dist2,0,0,0,0,0,19,19,52,,,,,,,145.09966573119164,146.1512001119554,146.1512001119554,146.1512001119554,146.1512001119554,146.1512001119554,146.1512001119554,146.1512001119554,146.1512001119554,146.1512001119554,146.1512001119554,146.1512001119554,146.1512001119554,j,2.107107002288103,target,None,,146.1512001119554,,,,,,,,,,,,,student1,2022-10-21_15h16.27.082,Hippopolis_4AFCT,2022.2.2,59.938558811190426,
Hippopolis,stimuli/subj_files/student1_cityA.csv,./stimuli/frankfurt.jpg,./stimuli/street_plate1.png,CITROM UTCA,stimuli/scenes/036a.jpg,scene,2,stimuli/objects/043a.jpg,stimuli/objects/043b.jpg,stimuli/objects/067a.jpg,stimuli/objects/043a.jpg,stimuli/objects/067b.jpg,lure,dist1,target,dist2,0,0,0,0,0,20,20,26,,,,,,,148.28536049462855,149.34896161220968,149.34896161220968,149.34896161220968,149.34896161220968,149.34896161220968,149.34896161220968,149.34896161220968,149.34896161220968,149.34896161220968,149.34896161220968,149.34896161220968,149.34896161220968,j,2.029486646875739,target,None,,,,,,,,,,,,,,,student1,2022-10-21_15h16.27.082,Hippopolis_4AFCT,2022.2.2,59.938558811190426,
Hippopolis,stimuli/subj_files/student1_cityA.csv,./stimuli/frankfurt.jpg,./stimuli/street_plate1.png,KÖMÉNYMAG UTCA,stimuli/objects/068a.jpg,object,1,stimuli/objects/045a.jpg,stimuli/objects/045a.jpg,stimuli/objects/045b.jpg,stimuli/objects/071a.jpg,stimuli/objects/071b.jpg,target,lure,dist1,dist2,0,0,0,0,0,21,21,18,,,,,,,151.39923206344247,152.46237413585186,152.46237413585186,152.46237413585186,152.46237413585186,152.46237413585186,152.46237413585186,152.46237413585186,152.46237413585186,152.46237413585186,152.46237413585186,152.46237413585186,152.46237413585186,d,2.819812359288335,target,None,,,,,,,,,,,,,,,student1,2022-10-21_15h16.27.082,Hippopolis_4AFCT,2022.2.2,59.938558811190426,
Hippopolis,stimuli/subj_files/student1_cityA.csv,./stimuli/frankfurt.jpg,./stimuli/street_plate1.png,HORDÓ UTCA,stimuli/scenes/095a.jpg,scene,0,stimuli/scenes/095a.jpg,stimuli/scenes/095a.jpg,stimuli/scenes/046a.jpg,stimuli/scenes/095b.jpg,stimuli/scenes/046b.jpg,target,dist1,lure,dist2,0,0,0,0,0,22,22,27,,,,,,,155.30233895592391,156.35518298484385,156.35518298484385,156.35518298484385,156.35518298484385,156.35518298484385,156.35518298484385,156.35518298484385,156.35518298484385,156.35518298484385,156.35518298484385,156.35518298484385,156.35518298484385,d,2.015176309272647,target,None,,,,,,,,,,,,,,,student1,2022-10-21_15h16.27.082,Hippopolis_4AFCT,2022.2.2,59.938558811190426,
Hippopolis,stimuli/subj_files/student1_cityA.csv,./stimuli/frankfurt.jpg,./stimuli/street_plate1.png,CSILLAG UTCA,stimuli/scenes/083a.jpg,scene,1,stimuli/scenes/117a.jpg,stimuli/scenes/117a.jpg,stimuli/scenes/117b.jpg,stimuli/objects/041a.jpg,stimuli/objects/041b.jpg,target,lure,dist1,dist2,0,0,0,0,0,23,23,15,,,,,,,158.41034183464944,159.4722874648869,159.4722874648869,159.4722874648869,159.4722874648869,159.4722874648869,159.4722874648869,159.4722874648869,159.4722874648869,159.4722874648869,159.4722874648869,159.4722874648869,159.4722874648869,d,2.6584410946816206,target,None,,,,,,,,,,,,,,,student1,2022-10-21_15h16.27.082,Hippopolis_4AFCT,2022.2.2,59.938558811190426,
Hippopolis,stimuli/subj_files/student1_cityA.csv,./stimuli/frankfurt.jpg,./stimuli/street_plate1.png,FÉNYKÉP UTCA,stimuli/scenes/010a.jpg,scene,1,stimuli/scenes/078a.jpg,stimuli/scenes/088a.jpg,stimuli/scenes/078a.jpg,stimuli/scenes/088b.jpg,stimuli/scenes/078b.jpg,dist1,target,dist2,lure,0,0,0,0,0,24,24,32,,,,,,,162.1491462253034,163.18921660073102,163.18921660073102,163.18921660073102,163.18921660073102,163.18921660073102,163.18921660073102,163.18921660073102,163.18921660073102,163.18921660073102,163.18921660073102,163.18921660073102,163.18921660073102,f,3.548614475876093,target,None,166.65493623167276,,,,,,,,,,,,,,student1,2022-10-21_15h16.27.082,Hippopolis_4AFCT,2022.2.2,59.938558811190426,
Hippopolis,stimuli/subj_files/student1_cityA.csv,./stimuli/frankfurt.jpg,./stimuli/street_plate1.png,MÁLNA UTCA,stimuli/objects/069a.jpg,object,2,stimuli/scenes/053a.jpg,stimuli/objects/073a.jpg,stimuli/objects/073b.jpg,stimuli/scenes/053b.jpg,stimuli/scenes/053a.jpg,dist1,dist2,lure,target,0,0,0,0,0,25,25,14,,,,,,,166.76582556031644,167.8266727179289,167.8266727179289,167.8266727179289,167.8266727179289,167.8266727179289,167.8266727179289,167.8266727179289,167.8266727179289,167.8266727179289,167.8266727179289,167.8266727179289,167.8266727179289,d,1.8390714284032583,dist1,None,,,,,,,,,,,,,,,student1,2022-10-21_15h16.27.082,Hippopolis_4AFCT,2022.2.2,59.938558811190426,
Hippopolis,stimuli/subj_files/student1_cityA.csv,./stimuli/frankfurt.jpg,./stimuli/street_plate1.png,HÁRFA UTCA,stimuli/objects/083a.jpg,object,2,stimuli/scenes/028a.jpg,stimuli/scenes/028b.jpg,stimuli/objects/012b.jpg,stimuli/objects/012a.jpg,stimuli/scenes/028a.jpg,lure,dist2,dist1,target,0,0,0,0,0,26,26,16,,,,,,,169.69924189150333,170.7531324569136,170.7531324569136,170.7531324569136,170.7531324569136,170.7531324569136,170.7531324569136,170.7531324569136,170.7531324569136,170.7531324569136,170.7531324569136,170.7531324569136,170.7531324569136,f,2.865229867398739,dist2,None,,,,,,,,,,,,,,,student1,2022-10-21_15h16.27.082,Hippopolis_4AFCT,2022.2.2,59.938558811190426,
Hippopolis,stimuli/subj_files/student1_cityA.csv,./stimuli/frankfurt.jpg,./stimuli/street_plate1.png,MOTOR UTCA,stimuli/objects/097a.jpg,object,1,stimuli/objects/071a.jpg,stimuli/objects/015b.jpg,stimuli/objects/071b.jpg,stimuli/objects/071a.jpg,stimuli/objects/015a.jpg,dist2,lure,target,dist1,0,0,0,0,0,27,27,36,,,,,,,173.65184638276696,174.71398141793907,174.71398141793907,174.71398141793907,174.71398141793907,174.71398141793907,174.71398141793907,174.71398141793907,174.71398141793907,174.71398141793907,174.71398141793907,174.71398141793907,174.71398141793907,j,2.0887336768209934,target,None,,,,,,,,,,,,,,,student1,2022-10-21_15h16.27.082,Hippopolis_4AFCT,2022.2.2,59.938558811190426,
Hippopolis,stimuli/subj_files/student1_cityA.csv,./stimuli/frankfurt.jpg,./stimuli/street_plate1.png,PULÓVER UTCA,stimuli/objects/114a.jpg,object,0,stimuli/objects/114a.jpg,stimuli/scenes/050b.jpg,stimuli/scenes/050a.jpg,stimuli/objects/114b.jpg,stimuli/objects/114a.jpg,dist2,dist1,lure,target,0,0,0,0,0,28,28,43,,,,,,,176.8326673656702,177.90940694883466,177.90940694883466,177.90940694883466,177.90940694883466,177.90940694883466,177.90940694883466,177.90940694883466,177.90940694883466,177.90940694883466,177.90940694883466,177.90940694883466,177.90940694883466,k,2.2043770495802164,target,None,,,,,,,,,,,,,,,student1,2022-10-21_15h16.27.082,Hippopolis_4AFCT,2022.2.2,59.938558811190426,
Hippopolis,stimuli/subj_files/student1_cityA.csv,./stimuli/frankfurt.jpg,./stimuli/street_plate1.png,LIGET UTCA,stimuli/objects/038a.jpg,object,2,stimuli/scenes/109a.jpg,stimuli/scenes/109a.jpg,stimuli/objects/055a.jpg,stimuli/scenes/109b.jpg,stimuli/objects/055b.jpg,target,dist1,lure,dist2,0,0,0,0,0,29,29,62,,,,,,,180.1518669091165,181.20558144524693,181.20558144524693,181.20558144524693,181.20558144524693,181.20558144524693,181.20558144524693,181.20558144524693,181.20558144524693,181.20558144524693,181.20558144524693,181.20558144524693,181.20558144524693,f,2.316448824480176,dist1,None,,,,,,,,,,,,,,,student1,2022-10-21_15h16.27.082,Hippopolis_4AFCT,2022.2.2,59.938558811190426,
Hippopolis,stimuli/subj_files/student1_cityA.csv,./stimuli/frankfurt.jpg,./stimuli/street_plate1.png,ZSEMLE UTCA,stimuli/objects/115a.jpg,object,1,stimuli/objects/053a.jpg,stimuli/objects/007a.jpg,stimuli/objects/053a.jpg,stimuli/objects/007b.jpg,stimuli/objects/053b.jpg,dist1,target,dist2,lure,0,0,0,0,0,30,30,47,,,,,,,183.5447146333754,184.6228490807116,184.6228490807116,184.6228490807116,184.6228490807116,184.6228490807116,184.6228490807116,184.6228490807116,184.6228490807116,184.6228490807116,184.6228490807116,184.6228490807116,184.6228490807116,f,2.2915188632905483,target,None,,,,,,,,,,,,,,,student1,2022-10-21_15h16.27.082,Hippopolis_4AFCT,2022.2.2,59.938558811190426,
Hippopolis,stimuli/subj_files/student1_cityA.csv,./stimuli/frankfurt.jpg,./stimuli/street_plate1.png,FÓKA UTCA,stimuli/scenes/058a.jpg,scene,0,stimuli/scenes/058a.jpg,stimuli/scenes/058a.jpg,stimuli/scenes/058b.jpg,stimuli/objects/111b.jpg,stimuli/objects/111a.jpg,target,lure,dist2,dist1,0,0,0,0,0,31,31,51,,,,,,,186.93265498802066,187.99393848516047,187.99393848516047,187.99393848516047,187.99393848516047,187.99393848516047,187.99393848516047,187.99393848516047,187.99393848516047,187.99393848516047,187.99393848516047,187.99393848516047,187.99393848516047,d,2.231619965285063,target,None,,,,,,,,,,,,,,,student1,2022-10-21_15h16.27.082,Hippopolis_4AFCT,2022.2.2,59.938558811190426,
Hippopolis,stimuli/subj_files/student1_cityA.csv,./stimuli/frankfurt.jpg,./stimuli/street_plate1.png,PAPAGÁJ UTCA,stimuli/objects/093a.jpg,object,2,stimuli/scenes/097a.jpg,stimuli/scenes/097a.jpg,stimuli/scenes/109b.jpg,stimuli/scenes/109a.jpg,stimuli/scenes/097b.jpg,target,dist2,dist1,lure,0,0,0,0,0,32,32,55,,,,,,,190.26447019539773,191.31863537989557,191.31863537989557,191.31863537989557,191.31863537989557,191.31863537989557,191.31863537989557,191.31863537989557,191.31863537989557,191.31863537989557,191.31863537989557,191.31863537989557,191.31863537989557,j,3.5950237810611725,dist1,None,194.7593718674034,,,,,,,,,,,,,,student1,2022-10-21_15h16.27.082,Hippopolis_4AFCT,2022.2.2,59.938558811190426,
Hippopolis,stimuli/subj_files/student1_cityA.csv,./stimuli/frankfurt.jpg,./stimuli/street_plate1.png,HEGESZTŐ UTCA,stimuli/scenes/043a.jpg,scene,0,stimuli/scenes/043a.jpg,stimuli/scenes/043b.jpg,stimuli/scenes/043a.jpg,stimuli/objects/062a.jpg,stimuli/objects/062b.jpg,lure,target,dist1,dist2,0,0,0,0,0,33,33,77,,,,,,,194.93505160324275,196.01078259199858,196.01078259199858,196.01078259199858,196.01078259199858,196.01078259199858,196.01078259199858,196.01078259199858,196.01078259199858,196.01078259199858,196.01078259199858,196.01078259199858,196.01078259199858,f,3.607200302183628,target,None,199.4390321727842,,,,,,,,,,,,,,student1,2022-10-21_15h16.27.082,Hippopolis_4AFCT,2022.2.2,59.938558811190426,
Hippopolis,stimuli/subj_files/student1_cityA.csv,./stimuli/frankfurt.jpg,./stimuli/street_plate1.png,KECSKE UTCA,stimuli/scenes/085a.jpg,scene,2,stimuli/objects/022a.jpg,stimuli/objects/022b.jpg,stimuli/objects/022a.jpg,stimuli/scenes/053a.jpg,stimuli/scenes/053b.jpg,lure,target,dist1,dist2,0,0,0,0,0,34,34,6,,,,,,,199.64878110401332,200.70281722024083,200.70281722024083,200.70281722024083,200.70281722024083,200.70281722024083,200.70281722024083,200.70281722024083,200.70281722024083,200.70281722024083,200.70281722024083,200.70281722024083,200.70281722024083,f,2.099094232544303,target,None,,,,,,,,,,,,,,,student1,2022-10-21_15h16.27.082,Hippopolis_4AFCT,2022.2.2,59.938558811190426,
Hippopolis,stimuli/subj_files/student1_cityA.csv,./stimuli/frankfurt.jpg,./stimuli/street_plate1.png,RÓZSA UTCA,stimuli/objects/091a.jpg,object,0,stimuli/objects/091a.jpg,stimuli/objects/091b.jpg,stimuli/objects/078b.jpg,stimuli/objects/078a.jpg,stimuli/objects/091a.jpg,lure,dist2,dist1,target,0,0,0,0,0,35,35,45,,,,,,,202.82316301018,203.88175661489367,203.88175661489367,203.88175661489367,203.88175661489367,203.88175661489367,203.88175661489367,203.88175661489367,203.88175661489367,203.88175661489367,203.88175661489367,203.88175661489367,203.88175661489367,k,2.4717392921447754,target,None,,,,,,,,,,,,,,,student1,2022-10-21_15h16.27.082,Hippopolis_4AFCT,2022.2.2,59.938558811190426,
Hippopolis,stimuli/subj_files/student1_cityA.csv,./stimuli/frankfurt.jpg,./stimuli/street_plate1.png,MOGYORÓ UTCA,stimuli/objects/106a.jpg,object,1,stimuli/objects/103a.jpg,stimuli/scenes/116a.jpg,stimuli/objects/103b.jpg,stimuli/objects/103a.jpg,stimuli/scenes/116b.jpg,dist1,lure,target,dist2,0,0,0,0,0,36,36,54,,,,,,,206.39012486301363,207.44814652763307,207.44814652763307,207.44814652763307,207.44814652763307,207.44814652763307,207.44814652763307,207.44814652763307,207.44814652763307,207.44814652763307,207.44814652763307,207.44814652763307,207.44814652763307,j,2.5216340478509665,target,None,,,,,,,,,,,,,,,student1,2022-10-21_15h16.27.082,Hippopolis_4AFCT,2022.2.2,59.938558811190426,
Hippopolis,stimuli/subj_files/student1_cityA.csv,./stimuli/frankfurt.jpg,./stimuli/street_plate1.png,PADLÓ UTCA,stimuli/objects/100a.jpg,object,0,stimuli/objects/100a.jpg,stimuli/scenes/058a.jpg,stimuli/scenes/058b.jpg,stimuli/objects/100a.jpg,stimuli/objects/100b.jpg,dist1,dist2,target,lure,0,0,0,0,0,37,37,59,,,,,,,209.99883154965937,211.0525871384889,211.0525871384889,211.0525871384889,211.0525871384889,211.0525871384889,211.0525871384889,211.0525871384889,211.0525871384889,211.0525871384889,211.0525871384889,211.0525871384889,211.0525871384889,j,1.8932468760758638,target,None,,,,,,,,,,,,,,,student1,2022-10-21_15h16.27.082,Hippopolis_4AFCT,2022.2.2,59.938558811190426,
Hippopolis,stimuli/subj_files/student1_cityA.csv,./stimuli/frankfurt.jpg,./stimuli/street_plate1.png,RÁDIÓ UTCA,stimuli/scenes/068a.jpg,scene,1,stimuli/scenes/067a.jpg,stimuli/scenes/018b.jpg,stimuli/scenes/067a.jpg,stimuli/scenes/067b.jpg,stimuli/scenes/018a.jpg,dist2,target,lure,dist1,0,0,0,0,0,38,38,44,,,,,,,212.9754976723343,214.0204838141799,214.0204838141799,214.0204838141799,214.0204838141799,214.0204838141799,214.0204838141799,214.0204838141799,214.0204838141799,214.0204838141799,214.0204838141799,214.0204838141799,214.0204838141799,f,3.6454752385616302,target,None,217.4590951949358,,,,,,,,,,,,,,student1,2022-10-21_15h16.27.082,Hippopolis_4AFCT,2022.2.2,59.938558811190426,
Hippopolis,stimuli/subj_files/student1_cityA.csv,./stimuli/frankfurt.jpg,./stimuli/street_plate1.png,HEGEDŰ UTCA,stimuli/scenes/113a.jpg,scene,2,stimuli/objects/036a.jpg,stimuli/objects/036b.jpg,stimuli/scenes/059b.jpg,stimuli/scenes/059a.jpg,stimuli/objects/036a.jpg,lure,dist2,dist1,target,0,0,0,0,0,39,39,69,,,,,,,217.69825537875295,218.75257917679846,218.75257917679846,218.75257917679846,218.75257917679846,218.75257917679846,218.75257917679846,218.75257917679846,218.75257917679846,218.75257917679846,218.75257917679846,218.75257917679846,218.75257917679846,k,2.897101489827037,target,None,,,,,,,,,,,,,,,student1,2022-10-21_15h16.27.082,Hippopolis_4AFCT,2022.2.2,59.938558811190426,
Hippopolis,stimuli/subj_files/student1_cityA.csv,./stimuli/frankfurt.jpg,./stimuli/street_plate1.png,BONBON UTCA,stimuli/objects/095a.jpg,object,2,stimuli/scenes/007a.jpg,stimuli/objects/028b.jpg,stimuli/objects/028a.jpg,stimuli/scenes/007a.jpg,stimuli/scenes/007b.jpg,dist2,dist1,target,lure,0,0,0,0,0,40,40,72,,,,,,,221.6764270849526,222.75549797154963,222.75549797154963,222.75549797154963,222.75549797154963,222.75549797154963,222.75549797154963,222.75549797154963,222.75549797154963,222.75549797154963,222.75549797154963,222.75549797154963,222.75549797154963,j,2.6536683905869722,target,None,,,,,,,,,,,,,,,student1,2022-10-21_15h16.27.082,Hippopolis_4AFCT,2022.2.2,59.938558811190426,
Hippopolis,stimuli/subj_files/student1_cityA.csv,./stimuli/frankfurt.jpg,./stimuli/street_plate1.png,HARMONIKA UTCA,stimuli/scenes/024a.jpg,scene,0,stimuli/scenes/024a.jpg,stimuli/scenes/101b.jpg,stimuli/scenes/024b.jpg,stimuli/scenes/101a.jpg,stimuli/scenes/024a.jpg,dist2,lure,dist1,target,0,0,0,0,0,41,41,25,,,,,,,225.44489993155003,226.48457439430058,226.48457439430058,226.48457439430058,226.48457439430058,226.48457439430058,226.48457439430058,226.48457439430058,226.48457439430058,226.48457439430058,226.48457439430058,226.48457439430058,226.48457439430058,k,1.6447916459292173,target,None,,,,,,,,,,,,,,,student1,2022-10-21_15h16.27.082,Hippopolis_4AFCT,2022.2.2,59.938558811190426,
Hippopolis,stimuli/subj_files/student1_cityA.csv,./stimuli/frankfurt.jpg,./stimuli/street_plate1.png,BÖGRE UTCA,stimuli/objects/050a.jpg,object,1,stimuli/objects/076a.jpg,stimuli/scenes/037a.jpg,stimuli/objects/076a.jpg,stimuli/objects/076b.jpg,stimuli/scenes/037b.jpg,dist1,target,lure,dist2,0,0,0,0,0,42,42,41,,,,,,,228.15741091035306,229.2081665303558,229.2081665303558,229.2081665303558,229.2081665303558,229.2081665303558,229.2081665303558,229.2081665303558,229.2081665303558,229.2081665303558,229.2081665303558,229.2081665303558,229.2081665303558,f,1.6576669998466969,target,None,,,,,,,,,,,,,,,student1,2022-10-21_15h16.27.082,Hippopolis_4AFCT,2022.2.2,59.938558811190426,
Hippopolis,stimuli/subj_files/student1_cityA.csv,./stimuli/frankfurt.jpg,./stimuli/street_plate1.png,PIZSAMA UTCA,stimuli/scenes/060a.jpg,scene,2,stimuli/objects/006a.jpg,stimuli/scenes/007b.jpg,stimuli/scenes/007a.jpg,stimuli/objects/006b.jpg,stimuli/objects/006a.jpg,dist2,dist1,lure,target,0,0,0,0,0,43,43,79,,,,,,,230.8997103907168,231.95882617495954,231.95882617495954,231.95882617495954,231.95882617495954,231.95882617495954,231.95882617495954,231.95882617495954,231.95882617495954,231.95882617495954,231.95882617495954,231.95882617495954,231.95882617495954,k,2.202277133241296,target,None,,,,,,,,,,,,,,,student1,2022-10-21_15h16.27.082,Hippopolis_4AFCT,2022.2.2,59.938558811190426,
Hippopolis,stimuli/subj_files/student1_cityA.csv,./stimuli/frankfurt.jpg,./stimuli/street_plate1.png,TERASZ UTCA,stimuli/objects/063a.jpg,object,2,stimuli/scenes/104a.jpg,stimuli/scenes/104a.jpg,stimuli/scenes/056a.jpg,stimuli/scenes/104b.jpg,stimuli/scenes/056b.jpg,target,dist1,lure,dist2,0,0,0,0,0,44,44,48,,,,,,,234.18044684268534,235.23880252614617,235.23880252614617,235.23880252614617,235.23880252614617,235.23880252614617,235.23880252614617,235.23880252614617,235.23880252614617,235.23880252614617,235.23880252614617,235.23880252614617,235.23880252614617,f,3.75450505875051,dist1,space,238.66719641536474,,239.02752997539937,239.02752997539937,7.469719305634499,,,,,,,,,,student1,2022-10-21_15h16.27.082,Hippopolis_4AFCT,2022.2.2,59.938558811190426,
Hippopolis,stimuli/subj_files/student1_cityA.csv,./stimuli/frankfurt.jpg,./stimuli/street_plate1.png,NARANCS UTCA,stimuli/objects/017a.jpg,object,1,stimuli/objects/075a.jpg,stimuli/objects/075a.jpg,stimuli/scenes/041b.jpg,stimuli/scenes/041a.jpg,stimuli/objects/075b.jpg,target,dist2,dist1,lure,0,0,0,0,0,45,45,76,,,,,,,246.53134602308273,247.58467802219093,247.58467802219093,247.58467802219093,247.58467802219093,247.58467802219093,247.58467802219093,247.58467802219093,247.58467802219093,247.58467802219093,247.58467802219093,247.58467802219093,247.58467802219093,j,2.6562345027923584,dist1,None,,,,,,,,,,,,,,,student1,2022-10-21_15h16.27.082,Hippopolis_4AFCT,2022.2.2,59.938558811190426,
Hippopolis,stimuli/subj_files/student1_cityA.csv,./stimuli/frankfurt.jpg,./stimuli/street_plate1.png,KERÉK UTCA,stimuli/scenes/096a.jpg,scene,1,stimuli/scenes/041a.jpg,stimuli/scenes/117a.jpg,stimuli/scenes/041b.jpg,stimuli/scenes/041a.jpg,stimuli/scenes/117b.jpg,dist1,lure,target,dist2,0,0,0,0,0,46,46,20,,,,,,,250.2798976674676,251.32273972965777,251.32273972965777,251.32273972965777,251.32273972965777,251.32273972965777,251.32273972965777,251.32273972965777,251.32273972965777,251.32273972965777,251.32273972965777,251.32273972965777,251.32273972965777,j,3.255166260525584,target,None,,,,,,,,,,,,,,,student1,2022-10-21_15h16.27.082,Hippopolis_4AFCT,2022.2.2,59.938558811190426,
Hippopolis,stimuli/subj_files/student1_cityA.csv,./stimuli/frankfurt.jpg,./stimuli/street_plate1.png,SIVATAG UTCA,stimuli/scenes/016a.jpg,scene,2,stimuli/objects/046a.jpg,stimuli/objects/046b.jpg,stimuli/objects/006a.jpg,stimuli/objects/006b.jpg,stimuli/objects/046a.jpg,lure,dist1,dist2,target,0,0,0,0,0,47,47,23,,,,,,,254.61180524341762,255.6885781046003,255.6885781046003,255.6885781046003,255.6885781046003,255.6885781046003,255.6885781046003,255.6885781046003,255.6885781046003,255.6885781046003,255.6885781046003,255.6885781046003,255.6885781046003,k,2.6650540232658386,target,None,,,,,,,,,,,,,,,student1,2022-10-21_15h16.27.082,Hippopolis_4AFCT,2022.2.2,59.938558811190426,
Hippopolis,stimuli/subj_files/student1_cityA.csv,./stimuli/frankfurt.jpg,./stimuli/street_plate1.png,VASALÓ UTCA,stimuli/objects/025a.jpg,object,2,stimuli/scenes/056a.jpg,stimuli/scenes/044a.jpg,stimuli/scenes/056b.jpg,stimuli/scenes/056a.jpg,stimuli/scenes/044b.jpg,dist1,lure,target,dist2,0,0,0,0,0,48,48,70,,,,,,,258.39473926462233,259.45434488356113,259.45434488356113,259.45434488356113,259.45434488356113,259.45434488356113,259.45434488356113,259.45434488356113,259.45434488356113,259.45434488356113,259.45434488356113,259.45434488356113,259.45434488356113,d,2.322611106559634,dist1,None,,,,,,,,,,,,,,,student1,2022-10-21_15h16.27.082,Hippopolis_4AFCT,2022.2.2,59.938558811190426,
Hippopolis,stimuli/subj_files/student1_cityA.csv,./stimuli/frankfurt.jpg,./stimuli/street_plate1.png,KÖTÉNY UTCA,stimuli/scenes/031a.jpg,scene,1,stimuli/scenes/064a.jpg,stimuli/objects/103a.jpg,stimuli/objects/103b.jpg,stimuli/scenes/064b.jpg,stimuli/scenes/064a.jpg,dist1,dist2,lure,target,0,0,0,0,0,49,49,22,,,,,,,261.79817644506693,262.85132743790746,262.85132743790746,262.85132743790746,262.85132743790746,262.85132743790746,262.85132743790746,262.85132743790746,262.85132743790746,262.85132743790746,262.85132743790746,262.85132743790746,262.85132743790746,k,3.2135122399777174,target,None,,,,,,,,,,,,,,,student1,2022-10-21_15h16.27.082,Hippopolis_4AFCT,2022.2.2,59.938558811190426,
Hippopolis,stimuli/subj_files/student1_cityA.csv,./stimuli/frankfurt.jpg,./stimuli/street_plate1.png,MUSTÁR UTCA,stimuli/scenes/050a.jpg,scene,0,stimuli/scenes/050a.jpg,stimuli/objects/009a.jpg,stimuli/objects/009b.jpg,stimuli/scenes/050a.jpg,stimuli/scenes/050b.jpg,dist1,dist2,target,lure,0,0,0,0,0,50,50,78,,,,,,,266.0956767629832,267.1410703230649,267.1410703230649,267.1410703230649,267.1410703230649,267.1410703230649,267.1410703230649,267.1410703230649,267.1410703230649,267.1410703230649,267.1410703230649,267.1410703230649,267.1410703230649,j,2.684317136183381,target,None,,,,,,,,,,,,,,,student1,2022-10-21_15h16.27.082,Hippopolis_4AFCT,2022.2.2,59.938558811190426,
Hippopolis,stimuli/subj_files/student1_cityA.csv,./stimuli/frankfurt.jpg,./stimuli/street_plate1.png,HERNYÓ UTCA,stimuli/scenes/066a.jpg,scene,1,stimuli/scenes/037a.jpg,stimuli/scenes/037a.jpg,stimuli/objects/045b.jpg,stimuli/scenes/037b.jpg,stimuli/objects/045a.jpg,target,dist2,lure,dist1,0,0,0,0,0,51,51,5,,,,,,,269.84832964651287,270.8930004276335,270.8930004276335,270.8930004276335,270.8930004276335,270.8930004276335,270.8930004276335,270.8930004276335,270.8930004276335,270.8930004276335,270.8930004276335,270.8930004276335,270.8930004276335,k,4.324169557541609,dist1,None,274.34832124970853,,,,,,,,,,,,,,student1,2022-10-21_15h16.27.082,Hippopolis_4AFCT,2022.2.2,59.938558811190426,
Hippopolis,stimuli/subj_files/student1_cityA.csv,./stimuli/frankfurt.jpg,./stimuli/street_plate1.png,SZOMSZÉD UTCA,stimuli/objects/026a.jpg,object,1,stimuli/objects/004a.jpg,stimuli/objects/027b.jpg,stimuli/objects/004b.jpg,stimuli/objects/004a.jpg,stimuli/objects/027a.jpg,dist2,lure,target,dist1,0,0,0,0,0,52,52,65,,,,,,,275.26448978856206,276.3287446424365,276.3287446424365,276.3287446424365,276.3287446424365,276.3287446424365,276.3287446424365,276.3287446424365,276.3287446424365,276.3287446424365,276.3287446424365,276.3287446424365,276.3287446424365,j,2.663899878039956,target,None,,,,,,,,,,,,,,,student1,2022-10-21_15h16.27.082,Hippopolis_4AFCT,2022.2.2,59.938558811190426,
Hippopolis,stimuli/subj_files/student1_cityA.csv,./stimuli/frankfurt.jpg,./stimuli/street_plate1.png,LÁNDZSA UTCA,stimuli/scenes/090a.jpg,scene,0,stimuli/scenes/090a.jpg,stimuli/scenes/090a.jpg,stimuli/objects/091b.jpg,stimuli/scenes/090b.jpg,stimuli/objects/091a.jpg,target,dist2,lure,dist1,0,0,0,0,0,53,53,39,,,,,,,279.02963766641915,280.0834259092808,280.0834259092808,280.0834259092808,280.0834259092808,280.0834259092808,280.0834259092808,280.0834259092808,280.0834259092808,280.0834259092808,280.0834259092808,280.0834259092808,280.0834259092808,d,2.429412255063653,target,None,,,,,,,,,,,,,,,student1,2022-10-21_15h16.27.082,Hippopolis_4AFCT,2022.2.2,59.938558811190426,
Hippopolis,stimuli/subj_files/student1_cityA.csv,./stimuli/frankfurt.jpg,./stimuli/street_plate1.png,AJÁNDÉK UTCA,stimuli/scenes/005a.jpg,scene,1,stimuli/scenes/009a.jpg,stimuli/scenes/078b.jpg,stimuli/scenes/078a.jpg,stimuli/scenes/009a.jpg,stimuli/scenes/009b.jpg,dist2,dist1,target,lure,0,0,0,0,0,54,54,28,,,,,,,282.53623753227293,283.590181902051,283.590181902051,283.590181902051,283.590181902051,283.590181902051,283.590181902051,283.590181902051,283.590181902051,283.590181902051,283.590181902051,283.590181902051,283.590181902051,j,2.6670590825378895,target,None,,,,,,,,,,,,,,,student1,2022-10-21_15h16.27.082,Hippopolis_4AFCT,2022.2.2,59.938558811190426,
Hippopolis,stimuli/subj_files/student1_cityA.csv,./stimuli/frankfurt.jpg,./stimuli/street_plate1.png,PÁFRÁNY UTCA,stimuli/scenes/101a.jpg,scene,0,stimuli/scenes/101a.jpg,stimuli/scenes/101a.jpg,stimuli/scenes/101b.jpg,stimuli/objects/051a.jpg,stimuli/objects/051b.jpg,target,lure,dist1,dist2,0,0,0,0,0,55,55,0,,,,,,,286.2957658357918,287.3510730341077,287.3510730341077,287.3510730341077,287.3510730341077,287.3510730341077,287.3510730341077,287.3510730341077,287.3510730341077,287.3510730341077,287.3510730341077,287.3510730341077,287.3510730341077,d,2.8419283349066973,target,None,,,,,,,,,,,,,,,student1,2022-10-21_15h16.27.082,Hippopolis_4AFCT,2022.2.2,59.938558811190426,
Hippopolis,stimuli/subj_files/student1_cityA.csv,./stimuli/frankfurt.jpg,./stimuli/street_plate1.png,KIRAKÓ UTCA,stimuli/objects/079a.jpg,object,2,stimuli/scenes/070a.jpg,stimuli/scenes/070a.jpg,stimuli/scenes/070b.jpg,stimuli/objects/043b.jpg,stimuli/objects/043a.jpg,target,lure,dist2,dist1,0,0,0,0,0,56,56,57,,,,,,,290.22500628232956,291.28469805046916,291.28469805046916,291.28469805046916,291.28469805046916,291.28469805046916,291.28469805046916,291.28469805046916,291.28469805046916,291.28469805046916,291.28469805046916,291.28469805046916,291.28469805046916,k,4.139635160565376,dist1,None,294.7212418615818,,,,,,,,,,,,,,student1,2022-10-21_15h16.27.082,Hippopolis_4AFCT,2022.2.2,59.938558811190426,
Hippopolis,stimuli/subj_files/student1_cityA.csv,./stimuli/frankfurt.jpg,./stimuli/street_plate1.png,KARTON UTCA,stimuli/objects/101a.jpg,object,2,stimuli/scenes/044a.jpg,stimuli/scenes/074a.jpg,stimuli/scenes/044b.jpg,stimuli/scenes/044a.jpg,stimuli/scenes/074b.jpg,dist1,lure,target,dist2,0,0,0,0,0,57,57,8,,,,,,,295.45727332122624,296.5214833896607,296.5214833896607,296.5214833896607,296.5214833896607,296.5214833896607,296.5214833896607,296.5214833896607,296.5214833896607,296.5214833896607,296.5214833896607,296.5214833896607,296.5214833896607,d,3.6553518678992987,dist1,None,299.9575886800885,,,,,,,,,,,,,,student1,2022-10-21_15h16.27.082,Hippopolis_4AFCT,2022.2.2,59.938558811190426,
Hippopolis,stimuli/subj_files/student1_cityA.csv,./stimuli/frankfurt.jpg,./stimuli/street_plate1.png,TOBOZ UTCA,stimuli/objects/001a.jpg,object,2,stimuli/scenes/059a.jpg,stimuli/scenes/059a.jpg,stimuli/objects/085a.jpg,stimuli/objects/085b.jpg,stimuli/scenes/059b.jpg,target,dist1,dist2,lure,0,0,0,0,0,58,58,40,,,,,,,300.22270950116217,301.2653518971056,301.2653518971056,301.2653518971056,301.2653518971056,301.2653518971056,301.2653518971056,301.2653518971056,301.2653518971056,301.2653518971056,301.2653518971056,301.2653518971056,301.2653518971056,f,2.271448688581586,dist1,None,,,,,,,,,,,,,,,student1,2022-10-21_15h16.27.082,Hippopolis_4AFCT,2022.2.2,59.938558811190426,
Hippopolis,stimuli/subj_files/student1_cityA.csv,./stimuli/frankfurt.jpg,./stimuli/street_plate1.png,CSAVAR UTCA,stimuli/objects/078a.jpg,object,0,stimuli/objects/078a.jpg,stimuli/objects/078b.jpg,stimuli/objects/024b.jpg,stimuli/objects/078a.jpg,stimuli/objects/024a.jpg,lure,dist2,target,dist1,0,0,0,0,0,59,59,10,,,,,,,303.56918679364026,304.61583059839904,304.61583059839904,304.61583059839904,304.61583059839904,304.61583059839904,304.61583059839904,304.61583059839904,304.61583059839904,304.61583059839904,304.61583059839904,304.61583059839904,304.61583059839904,j,3.8005710151046515,target,None,308.07676353119314,,,,,,,,,,,,,,student1,2022-10-21_15h16.27.082,Hippopolis_4AFCT,2022.2.2,59.938558811190426,
Hippopolis,stimuli/subj_files/student1_cityA.csv,./stimuli/frankfurt.jpg,./stimuli/street_plate1.png,HAJÓ UTCA,stimuli/objects/086a.jpg,object,1,stimuli/objects/041a.jpg,stimuli/scenes/014a.jpg,stimuli/scenes/014b.jpg,stimuli/objects/041a.jpg,stimuli/objects/041b.jpg,dist1,dist2,target,lure,0,0,0,0,0,60,60,71,,,,,,,308.4439874384552,309.5040987543762,309.5040987543762,309.5040987543762,309.5040987543762,309.5040987543762,309.5040987543762,309.5040987543762,309.5040987543762,309.5040987543762,309.5040987543762,309.5040987543762,309.5040987543762,j,3.024976123124361,target,None,,,,,,,,,,,,,,,student1,2022-10-21_15h16.27.082,Hippopolis_4AFCT,2022.2.2,59.938558811190426,
Hippopolis,stimuli/subj_files/student1_cityA.csv,./stimuli/frankfurt.jpg,./stimuli/street_plate1.png,LÉTRA UTCA,stimuli/objects/047a.jpg,object,1,stimuli/objects/015a.jpg,stimuli/objects/108b.jpg,stimuli/objects/015b.jpg,stimuli/objects/108a.jpg,stimuli/objects/015a.jpg,dist2,lure,dist1,target,0,0,0,0,0,61,61,33,,,,,,,312.54746206477284,313.61202325858176,313.61202325858176,313.61202325858176,313.61202325858176,313.61202325858176,313.61202325858176,313.61202325858176,313.61202325858176,313.61202325858176,313.61202325858176,313.61202325858176,313.61202325858176,k,3.4600246138870716,target,None,317.04118875414133,,,,,,,,,,,,,,student1,2022-10-21_15h16.27.082,Hippopolis_4AFCT,2022.2.2,59.938558811190426,
Hippopolis,stimuli/subj_files/student1_cityA.csv,./stimuli/frankfurt.jpg,./stimuli/street_plate1.png,OLDAL UTCA,stimuli/scenes/093a.jpg,scene,2,stimuli/objects/107a.jpg,stimuli/objects/107b.jpg,stimuli/objects/022a.jpg,stimuli/objects/107a.jpg,stimuli/objects/022b.jpg,lure,dist1,target,dist2,0,0,0,0,0,62,62,11,,,,,,,317.1122773513198,318.1838791090995,318.1838791090995,318.1838791090995,318.1838791090995,318.1838791090995,318.1838791090995,318.1838791090995,318.1838791090995,318.1838791090995,318.1838791090995,318.1838791090995,318.1838791090995,j,2.264418076723814,target,None,,,,,,,,,,,,,,,student1,2022-10-21_15h16.27.082,Hippopolis_4AFCT,2022.2.2,59.938558811190426,
Hippopolis,stimuli/subj_files/student1_cityA.csv,./stimuli/frankfurt.jpg,./stimuli/street_plate1.png,LAKAT UTCA,stimuli/objects/066a.jpg,object,2,stimuli/scenes/084a.jpg,stimuli/scenes/084b.jpg,stimuli/scenes/034a.jpg,stimuli/scenes/084a.jpg,stimuli/scenes/034b.jpg,lure,dist1,target,dist2,0,0,0,0,0,63,63,58,,,,,,,320.4684117026627,321.51338851451874,321.51338851451874,321.51338851451874,321.51338851451874,321.51338851451874,321.51338851451874,321.51338851451874,321.51338851451874,321.51338851451874,321.51338851451874,321.51338851451874,321.51338851451874,j,2.8065731283277273,target,None,,,,,,,,,,,,,,,student1,2022-10-21_15h16.27.082,Hippopolis_4AFCT,2022.2.2,59.938558811190426,
Hippopolis,stimuli/subj_files/student1_cityA.csv,./stimuli/frankfurt.jpg,./stimuli/street_plate1.png,SZIKLA UTCA,stimuli/scenes/111a.jpg,scene,2,stimuli/objects/073a.jpg,stimuli/objects/120b.jpg,stimuli/objects/120a.jpg,stimuli/objects/073a.jpg,stimuli/objects/073b.jpg,dist2,dist1,target,lure,0,0,0,0,0,64,64,1,,,,,,,324.36030836962163,325.4113600682467,325.4113600682467,325.4113600682467,325.4113600682467,325.4113600682467,325.4113600682467,325.4113600682467,325.4113600682467,325.4113600682467,325.4113600682467,325.4113600682467,325.4113600682467,f,3.133386418223381,dist1,None,,,,,,,,,,,,,,,student1,2022-10-21_15h16.27.082,Hippopolis_4AFCT,2022.2.2,59.938558811190426,
Hippopolis,stimuli/subj_files/student1_cityA.csv,./stimuli/frankfurt.jpg,./stimuli/street_plate1.png,MOCSÁR UTCA,stimuli/objects/080a.jpg,object,0,stimuli/objects/080a.jpg,stimuli/objects/080b.jpg,stimuli/objects/080a.jpg,stimuli/scenes/043b.jpg,stimuli/scenes/043a.jpg,lure,target,dist2,dist1,0,0,0,0,0,65,65,17,,,,,,,328.56861702911556,329.6301042381674,329.6301042381674,329.6301042381674,329.6301042381674,329.6301042381674,329.6301042381674,329.6301042381674,329.6301042381674,329.6301042381674,329.6301042381674,329.6301042381674,329.6301042381674,f,3.1057497691363096,target,None,,,,,,,,,,,,,,,student1,2022-10-21_15h16.27.082,Hippopolis_4AFCT,2022.2.2,59.938558811190426,
Hippopolis,stimuli/subj_files/student1_cityA.csv,./stimuli/frankfurt.jpg,./stimuli/street_plate1.png,VÖDÖR UTCA,stimuli/scenes/055a.jpg,scene,1,stimuli/scenes/088a.jpg,stimuli/scenes/088b.jpg,stimuli/scenes/088a.jpg,stimuli/scenes/087b.jpg,stimuli/scenes/087a.jpg,lure,target,dist2,dist1,0,0,0,0,0,66,66,56,,,,,,,332.7636793050915,333.81704520247877,333.81704520247877,333.81704520247877,333.81704520247877,333.81704520247877,333.81704520247877,333.81704520247877,333.81704520247877,333.81704520247877,333.81704520247877,333.81704520247877,333.81704520247877,f,3.5428275782614946,target,None,337.265791349113,,,,,,,,,,,,,,student1,2022-10-21_15h16.27.082,Hippopolis_4AFCT,2022.2.2,59.938558811190426,
Hippopolis,stimuli/subj_files/student1_cityA.csv,./stimuli/frankfurt.jpg,./stimuli/street_plate1.png,KULLANCS UTCA,stimuli/objects/089a.jpg,object,0,stimuli/objects/089a.jpg,stimuli/scenes/072a.jpg,stimuli/objects/089a.jpg,stimuli/scenes/072b.jpg,stimuli/objects/089b.jpg,dist1,target,dist2,lure,0,0,0,0,0,67,67,34,,,,,,,337.3973112888634,338.4546869918704,338.4546869918704,338.4546869918704,338.4546869918704,338.4546869918704,338.4546869918704,338.4546869918704,338.4546869918704,338.4546869918704,338.4546869918704,338.4546869918704,338.4546869918704,f,3.32114439830184,target,None,,,,,,,,,,,,,,,student1,2022-10-21_15h16.27.082,Hippopolis_4AFCT,2022.2.2,59.938558811190426,
Hippopolis,stimuli/subj_files/student1_cityA.csv,./stimuli/frankfurt.jpg,./stimuli/street_plate1.png,ÜVEG UTCA,stimuli/scenes/061a.jpg,scene,2,stimuli/objects/085a.jpg,stimuli/objects/085b.jpg,stimuli/scenes/084a.jpg,stimuli/objects/085a.jpg,stimuli/scenes/084b.jpg,lure,dist1,target,dist2,0,0,0,0,0,68,68,19,,,,,,,341.80294324085116,342.8661599550396,342.8661599550396,342.8661599550396,342.8661599550396,342.8661599550396,342.8661599550396,342.8661599550396,342.8661599550396,342.8661599550396,342.8661599550396,342.8661599550396,342.8661599550396,f,3.3417886923998594,dist1,None,,,,,,,,,,,,,,,student1,2022-10-21_15h16.27.082,Hippopolis_4AFCT,2022.2.2,59.938558811190426,
Hippopolis,stimuli/subj_files/student1_cityA.csv,./stimuli/frankfurt.jpg,./stimuli/street_plate1.png,KOCKA UTCA,stimuli/objects/062a.jpg,object,0,stimuli/objects/062a.jpg,stimuli/scenes/095b.jpg,stimuli/objects/062a.jpg,stimuli/objects/062b.jpg,stimuli/scenes/095a.jpg,dist2,target,lure,dist1,0,0,0,0,0,69,69,35,,,,,,,346.2380601540208,347.3189252372831,347.3189252372831,347.3189252372831,347.3189252372831,347.3189252372831,347.3189252372831,347.3189252372831,347.3189252372831,347.3189252372831,347.3189252372831,347.3189252372831,347.3189252372831,f,2.057166527956724,target,None,,,,,,,,,,,,,,,student1,2022-10-21_15h16.27.082,Hippopolis_4AFCT,2022.2.2,59.938558811190426,
Hippopolis,stimuli/subj_files/student1_cityA.csv,./stimuli/frankfurt.jpg,./stimuli/street_plate1.png,TELEP UTCA,stimuli/scenes/048a.jpg,scene,2,stimuli/objects/120a.jpg,stimuli/objects/120a.jpg,stimuli/objects/120b.jpg,stimuli/scenes/119b.jpg,stimuli/scenes/119a.jpg,target,lure,dist2,dist1,0,0,0,0,0,70,70,75,,,,,,,349.39834258519113,350.453154662624,350.453154662624,350.453154662624,350.453154662624,350.453154662624,350.453154662624,350.453154662624,350.453154662624,350.453154662624,350.453154662624,350.453154662624,350.453154662624,d,3.0186847746372223,target,None,,,,,,,,,,,,,,,student1,2022-10-21_15h16.27.082,Hippopolis_4AFCT,2022.2.2,59.938558811190426,
Hippopolis,stimuli/subj_files/student1_cityA.csv,./stimuli/frankfurt.jpg,./stimuli/street_plate1.png,AKÁC UTCA,stimuli/scenes/081a.jpg,scene,2,stimuli/objects/055a.jpg,stimuli/objects/055b.jpg,stimuli/objects/107b.jpg,stimuli/objects/107a.jpg,stimuli/objects/055a.jpg,lure,dist2,dist1,target,0,0,0,0,0,71,71,74,,,,,,,353.50158520042896,354.5543486792594,354.5543486792594,354.5543486792594,354.5543486792594,354.5543486792594,354.5543486792594,354.5543486792594,354.5543486792594,354.5543486792594,354.5543486792594,354.5543486792594,354.5543486792594,k,2.3418493382632732,target,None,,,,,,,,,,,,,,,student1,2022-10-21_15h16.27.082,Hippopolis_4AFCT,2022.2.2,59.938558811190426,
Hippopolis,stimuli/subj_files/student1_cityA.csv,./stimuli/frankfurt.jpg,./stimuli/street_plate1.png,PETÁRDA UTCA,stimuli/objects/009a.jpg,object,0,stimuli/objects/009a.jpg,stimuli/objects/009a.jpg,stimuli/scenes/051a.jpg,stimuli/objects/009b.jpg,stimuli/scenes/051b.jpg,target,dist1,lure,dist2,0,0,0,0,0,72,72,64,,,,,,,356.93192629888654,357.97959456034005,357.97959456034005,357.97959456034005,357.97959456034005,357.97959456034005,357.97959456034005,357.97959456034005,357.97959456034005,357.97959456034005,357.97959456034005,357.97959456034005,357.97959456034005,j,2.788164347410202,lure,None,,,,,,,,,,,,,,,student1,2022-10-21_15h16.27.082,Hippopolis_4AFCT,2022.2.2,59.938558811190426,
Hippopolis,stimuli/subj_files/student1_cityA.csv,./stimuli/frankfurt.jpg,./stimuli/street_plate1.png,ÁLOM UTCA,stimuli/objects/070a.jpg,object,0,stimuli/objects/070a.jpg,stimuli/objects/070b.jpg,stimuli/objects/114b.jpg,stimuli/objects/114a.jpg,stimuli/objects/070a.jpg,lure,dist2,dist1,target,0,0,0,0,0,73,73,50,,,,,,,360.7922334242612,361.84919673390687,361.84919673390687,361.84919673390687,361.84919673390687,361.84919673390687,361.84919673390687,361.84919673390687,361.84919673390687,361.84919673390687,361.84919673390687,361.84919673390687,361.84919673390687,k,2.5190819296985865,target,None,,,,,,,,,,,,,,,student1,2022-10-21_15h16.27.082,Hippopolis_4AFCT,2022.2.2,59.938558811190426,
Hippopolis,stimuli/subj_files/student1_cityA.csv,./stimuli/frankfurt.jpg,./stimuli/street_plate1.png,FIÓK UTCA,stimuli/scenes/002a.jpg,scene,1,stimuli/scenes/014a.jpg,stimuli/scenes/014a.jpg,stimuli/objects/004a.jpg,stimuli/objects/004b.jpg,stimuli/scenes/014b.jpg,target,dist1,dist2,lure,0,0,0,0,0,74,74,73,,,,,,,364.4071841854602,365.4712322205305,365.4712322205305,365.4712322205305,365.4712322205305,365.4712322205305,365.4712322205305,365.4712322205305,365.4712322205305,365.4712322205305,365.4712322205305,365.4712322205305,365.4712322205305,d,3.6644435189664364,target,None,368.9126616306603,,,,,,,,,,,,,,student1,2022-10-21_15h16.27.082,Hippopolis_4AFCT,2022.2.2,59.938558811190426,
Hippopolis,stimuli/subj_files/student1_cityA.csv,./stimuli/frankfurt.jpg,./stimuli/street_plate1.png,BAGOLY UTCA,stimuli/scenes/029a.jpg,scene,2,stimuli/objects/028a.jpg,stimuli/objects/028b.jpg,stimuli/objects/028a.jpg,stimuli/scenes/028a.jpg,stimuli/scenes/028b.jpg,lure,target,dist1,dist2,0,0,0,0,0,75,75,21,,,,,,,369.15535515733063,370.2338780518621,370.2338780518621,370.2338780518621,370.2338780518621,370.2338780518621,370.2338780518621,370.2338780518621,370.2338780518621,370.2338780518621,370.2338780518621,370.2338780518621,370.2338780518621,d,2.662338625639677,lure,None,,,,,,,,,,,,,,,student1,2022-10-21_15h16.27.082,Hippopolis_4AFCT,2022.2.2,59.938558811190426,
Hippopolis,stimuli/subj_files/student1_cityA.csv,./stimuli/frankfurt.jpg,./stimuli/street_plate1.png,FOGAS UTCA,stimuli/scenes/025a.jpg,scene,1,stimuli/scenes/018a.jpg,stimuli/scenes/018b.jpg,stimuli/scenes/064a.jpg,stimuli/scenes/018a.jpg,stimuli/scenes/064b.jpg,lure,dist1,target,dist2,0,0,0,0,0,76,76,38,,,,,,,372.9132991936058,373.9564926940948,373.9564926940948,373.9564926940948,373.9564926940948,373.9564926940948,373.9564926940948,373.9564926940948,373.9564926940948,373.9564926940948,373.9564926940948,373.9564926940948,373.9564926940948,j,4.011168060824275,target,None,377.41421230882406,,,,,,,,,,,,,,student1,2022-10-21_15h16.27.082,Hippopolis_4AFCT,2022.2.2,59.938558811190426,
Hippopolis,stimuli/subj_files/student1_cityA.csv,./stimuli/frankfurt.jpg,./stimuli/street_plate1.png,KORONA UTCA,stimuli/scenes/108a.jpg,scene,1,stimuli/scenes/011a.jpg,stimuli/objects/076a.jpg,stimuli/scenes/011b.jpg,stimuli/objects/076b.jpg,stimuli/scenes/011a.jpg,dist1,lure,dist2,target,0,0,0,0,0,77,77,9,,,,,,,377.99125512316823,379.0334334988147,379.0334334988147,379.0334334988147,379.0334334988147,379.0334334988147,379.0334334988147,379.0334334988147,379.0334334988147,379.0334334988147,379.0334334988147,379.0334334988147,379.0334334988147,k,2.53488851711154,target,None,,,,,,,,,,,,,,,student1,2022-10-21_15h16.27.082,Hippopolis_4AFCT,2022.2.2,59.938558811190426,
Hippopolis,stimuli/subj_files/student1_cityA.csv,./stimuli/frankfurt.jpg,./stimuli/street_plate1.png,DOMINÓ UTCA,stimuli/scenes/042a.jpg,scene,0,stimuli/scenes/042a.jpg,stimuli/scenes/042a.jpg,stimuli/scenes/042b.jpg,stimuli/objects/070a.jpg,stimuli/objects/070b.jpg,target,lure,dist1,dist2,0,0,0,0,0,78,78,63,,,,,,,381.59544257447124,382.62917277403176,382.62917277403176,382.62917277403176,382.62917277403176,382.62917277403176,382.62917277403176,382.62917277403176,382.62917277403176,382.62917277403176,382.62917277403176,382.62917277403176,382.62917277403176,d,2.0271889325231314,target,None,,382.62917277403176,,,,,,,,,,,,,student1,2022-10-21_15h16.27.082,Hippopolis_4AFCT,2022.2.2,59.938558811190426,
Hippopolis,stimuli/subj_files/student1_cityA.csv,./stimuli/frankfurt.jpg,./stimuli/street_plate1.png,KAKAS UTCA,stimuli/objects/002a.jpg,object,2,stimuli/scenes/074a.jpg,stimuli/scenes/074b.jpg,stimuli/scenes/074a.jpg,stimuli/scenes/070a.jpg,stimuli/scenes/070b.jpg,lure,target,dist1,dist2,0,0,0,0,0,79,79,24,,,,,,,384.685364164412,385.7401594463736,385.7401594463736,385.7401594463736,385.7401594463736,385.7401594463736,385.7401594463736,385.7401594463736,385.7401594463736,385.7401594463736,385.7401594463736,385.7401594463736,385.7401594463736,k,4.227746691554785,dist2,None,389.181381104514,,,,,,,,,,,,,,student1,2022-10-21_15h16.27.082,Hippopolis_4AFCT,2022.2.2,59.938558811190426,
Camponello,stimuli/subj_files/student1_cityB.csv,./stimuli/leipzig.jpg,./stimuli/street_plate2.png,SZŐLŐ UTCA,stimuli/scenes/099a.jpg,scene,0,stimuli/scenes/099a.jpg,stimuli/objects/105a.jpg,stimuli/scenes/099a.jpg,stimuli/scenes/099b.jpg,stimuli/objects/105b.jpg,dist1,target,lure,dist2,0,1,1,1,0,0,0,55,,,,,396.6024573240429,396.6024573240429,399.60834871791303,400.61799022741616,400.61799022741616,400.61799022741616,400.61799022741616,400.61799022741616,400.61799022741616,400.61799022741616,400.61799022741616,400.61799022741616,400.61799022741616,400.61799022741616,400.61799022741616,f,2.517537159845233,target,None,,,,,,60,4,14,2,390.0050834007561,390.0050834007561,space,6.538057362660766,,student1,2022-10-21_15h16.27.082,Hippopolis_4AFCT,2022.2.2,59.938558811190426,
Camponello,stimuli/subj_files/student1_cityB.csv,./stimuli/leipzig.jpg,./stimuli/street_plate2.png,TISZTÁS UTCA,stimuli/objects/116a.jpg,object,0,stimuli/objects/116a.jpg,stimuli/objects/058a.jpg,stimuli/objects/116a.jpg,stimuli/objects/116b.jpg,stimuli/objects/058b.jpg,dist1,target,lure,dist2,0,1,1,1,0,1,1,18,,,,,,,403.16522494517267,404.21635626256466,404.21635626256466,404.21635626256466,404.21635626256466,404.21635626256466,404.21635626256466,404.21635626256466,404.21635626256466,404.21635626256466,404.21635626256466,404.21635626256466,404.21635626256466,f,1.8791993409395218,target,None,,404.21635626256466,,,,,,,,,,,,,student1,2022-10-21_15h16.27.082,Hippopolis_4AFCT,2022.2.2,59.938558811190426,
Camponello,stimuli/subj_files/student1_cityB.csv,./stimuli/leipzig.jpg,./stimuli/street_plate2.png,FEJSZE UTCA,stimuli/objects/065a.jpg,object,0,stimuli/objects/065a.jpg,stimuli/scenes/075b.jpg,stimuli/objects/065b.jpg,stimuli/objects/065a.jpg,stimuli/scenes/075a.jpg,dist2,lure,target,dist1,0,1,1,1,0,2,2,9,,,,,,,406.1337056905031,407.19667049124837,407.19667049124837,407.19667049124837,407.19667049124837,407.19667049124837,407.19667049124837,407.19667049124837,407.19667049124837,407.19667049124837,407.19667049124837,407.19667049124837,407.19667049124837,j,2.69049590267241,target,None,,,,,,,,,,,,,,,student1,2022-10-21_15h16.27.082,Hippopolis_4AFCT,2022.2.2,59.938558811190426,
Camponello,stimuli/subj_files/student1_cityB.csv,./stimuli/leipzig.jpg,./stimuli/street_plate2.png,GYŰRŰ UTCA,stimuli/objects/056a.jpg,object,1,stimuli/objects/013a.jpg,stimuli/objects/013b.jpg,stimuli/objects/087b.jpg,stimuli/objects/013a.jpg,stimuli/objects/087a.jpg,lure,dist2,target,dist1,0,1,1,1,0,3,3,22,,,,,,,409.9080466069281,410.97102944366634,410.97102944366634,410.97102944366634,410.97102944366634,410.97102944366634,410.97102944366634,410.97102944366634,410.97102944366634,410.97102944366634,410.97102944366634,410.97102944366634,410.97102944366634,k,3.011881198734045,dist1,None,,,,,,,,,,,,,,,student1,2022-10-21_15h16.27.082,Hippopolis_4AFCT,2022.2.2,59.938558811190426,
Camponello,stimuli/subj_files/student1_cityB.csv,./stimuli/leipzig.jpg,./stimuli/street_plate2.png,FOLYÓ UTCA,stimuli/scenes/035a.jpg,scene,0,stimuli/scenes/035a.jpg,stimuli/objects/034a.jpg,stimuli/scenes/035a.jpg,stimuli/objects/034b.jpg,stimuli/scenes/035b.jpg,dist1,target,dist2,lure,0,1,1,1,0,4,4,61,,,,,,,414.02182394079864,415.08171879686415,415.08171879686415,415.08171879686415,415.08171879686415,415.08171879686415,415.08171879686415,415.08171879686415,415.08171879686415,415.08171879686415,415.08171879686415,415.08171879686415,415.08171879686415,f,2.4858331698924303,target,None,,,,,,,,,,,,,,,student1,2022-10-21_15h16.27.082,Hippopolis_4AFCT,2022.2.2,59.938558811190426,
Camponello,stimuli/subj_files/student1_cityB.csv,./stimuli/leipzig.jpg,./stimuli/street_plate2.png,ASZTAL UTCA,stimuli/scenes/120a.jpg,scene,2,stimuli/objects/035a.jpg,stimuli/scenes/079b.jpg,stimuli/scenes/079a.jpg,stimuli/objects/035b.jpg,stimuli/objects/035a.jpg,dist2,dist1,lure,target,0,1,1,1,0,5,5,24,,,,,,,417.5889254361391,418.6216977350414,418.6216977350414,418.6216977350414,418.6216977350414,418.6216977350414,418.6216977350414,418.6216977350414,418.6216977350414,418.6216977350414,418.6216977350414,418.6216977350414,418.6216977350414,j,3.0898408610373735,lure,None,,418.6216977350414,,,,,,,,,,,,,student1,2022-10-21_15h16.27.082,Hippopolis_4AFCT,2022.2.2,59.938558811190426,
Camponello,stimuli/subj_files/student1_cityB.csv,./stimuli/leipzig.jpg,./stimuli/street_plate2.png,KESZTYŰ UTCA,stimuli/scenes/040a.jpg,scene,1,stimuli/scenes/105a.jpg,stimuli/objects/096b.jpg,stimuli/scenes/105a.jpg,stimuli/scenes/105b.jpg,stimuli/objects/096a.jpg,dist2,target,lure,dist1,0,1,1,1,0,6,6,16,,,,,,,421.73476037569344,422.7962550483644,422.7962550483644,422.7962550483644,422.7962550483644,422.7962550483644,422.7962550483644,422.7962550483644,422.7962550483644,422.7962550483644,422.7962550483644,422.7962550483644,422.7962550483644,k,3.155035262927413,dist1,None,,,,,,,,,,,,,,,student1,2022-10-21_15h16.27.082,Hippopolis_4AFCT,2022.2.2,59.938558811190426,
Camponello,stimuli/subj_files/student1_cityB.csv,./stimuli/leipzig.jpg,./stimuli/street_plate2.png,PALACK UTCA,stimuli/scenes/033a.jpg,scene,1,stimuli/scenes/107a.jpg,stimuli/objects/119b.jpg,stimuli/scenes/107b.jpg,stimuli/objects/119a.jpg,stimuli/scenes/107a.jpg,dist2,lure,dist1,target,0,1,1,1,0,7,7,44,,,,,,,425.9919629730284,427.0500371977687,427.0500371977687,427.0500371977687,427.0500371977687,427.0500371977687,427.0500371977687,427.0500371977687,427.0500371977687,427.0500371977687,427.0500371977687,427.0500371977687,427.0500371977687,k,3.349149590358138,target,None,,,,,,,,,,,,,,,student1,2022-10-21_15h16.27.082,Hippopolis_4AFCT,2022.2.2,59.938558811190426,
Camponello,stimuli/subj_files/student1_cityB.csv,./stimuli/leipzig.jpg,./stimuli/street_plate2.png,RIBIZLI UTCA,stimuli/objects/088a.jpg,object,0,stimuli/objects/088a.jpg,stimuli/objects/088b.jpg,stimuli/objects/065a.jpg,stimuli/objects/088a.jpg,stimuli/objects/065b.jpg,lure,dist1,target,dist2,0,1,1,1,0,8,8,34,,,,,,,430.4295063596219,431.4867931138724,431.4867931138724,431.4867931138724,431.4867931138724,431.4867931138724,431.4867931138724,431.4867931138724,431.4867931138724,431.4867931138724,431.4867931138724,431.4867931138724,431.4867931138724,j,2.3850447069853544,target,None,,,,,,,,,,,,,,,student1,2022-10-21_15h16.27.082,Hippopolis_4AFCT,2022.2.2,59.938558811190426,
Camponello,stimuli/subj_files/student1_cityB.csv,./stimuli/leipzig.jpg,./stimuli/street_plate2.png,LÉPCSŐ UTCA,stimuli/objects/049a.jpg,object,0,stimuli/objects/049a.jpg,stimuli/scenes/076b.jpg,stimuli/scenes/076a.jpg,stimuli/objects/049b.jpg,stimuli/objects/049a.jpg,dist2,dist1,lure,target,0,1,1,1,0,9,9,43,,,,,,,433.8963708039373,434.94725331664085,434.94725331664085,434.94725331664085,434.94725331664085,434.94725331664085,434.94725331664085,434.94725331664085,434.94725331664085,434.94725331664085,434.94725331664085,434.94725331664085,434.94725331664085,k,2.33170897513628,target,None,,434.94725331664085,,,,,,,,,,,,,student1,2022-10-21_15h16.27.082,Hippopolis_4AFCT,2022.2.2,59.938558811190426,
Camponello,stimuli/subj_files/student1_cityB.csv,./stimuli/leipzig.jpg,./stimuli/street_plate2.png,ORVOS UTCA,stimuli/objects/016a.jpg,object,0,stimuli/objects/016a.jpg,stimuli/scenes/089a.jpg,stimuli/scenes/089b.jpg,stimuli/objects/016a.jpg,stimuli/objects/016b.jpg,dist1,dist2,target,lure,0,1,1,1,0,10,10,4,,,,,,,437.29576956667006,438.3523242138326,438.3523242138326,438.3523242138326,438.3523242138326,438.3523242138326,438.3523242138326,438.3523242138326,438.3523242138326,438.3523242138326,438.3523242138326,438.3523242138326,438.3523242138326,j,3.134418649598956,target,None,,,,,,,,,,,,,,,student1,2022-10-21_15h16.27.082,Hippopolis_4AFCT,2022.2.2,59.938558811190426,
Camponello,stimuli/subj_files/student1_cityB.csv,./stimuli/leipzig.jpg,./stimuli/street_plate2.png,KOCSI UTCA,stimuli/scenes/114a.jpg,scene,0,stimuli/scenes/114a.jpg,stimuli/objects/082b.jpg,stimuli/scenes/114b.jpg,stimuli/scenes/114a.jpg,stimuli/objects/082a.jpg,dist2,lure,target,dist1,0,1,1,1,0,11,11,69,,,,,,,441.5108734052628,442.56271692737937,442.56271692737937,442.56271692737937,442.56271692737937,442.56271692737937,442.56271692737937,442.56271692737937,442.56271692737937,442.56271692737937,442.56271692737937,442.56271692737937,442.56271692737937,j,2.7799282781779766,target,None,,,,,,,,,,,,,,,student1,2022-10-21_15h16.27.082,Hippopolis_4AFCT,2022.2.2,59.938558811190426,
Camponello,stimuli/subj_files/student1_cityB.csv,./stimuli/leipzig.jpg,./stimuli/street_plate2.png,MOSODA UTCA,stimuli/objects/052a.jpg,object,0,stimuli/objects/052a.jpg,stimuli/objects/052b.jpg,stimuli/scenes/035a.jpg,stimuli/objects/052a.jpg,stimuli/scenes/035b.jpg,lure,dist1,target,dist2,0,1,1,1,0,12,12,51,,,,,,,445.3678583614528,446.4193914979696,446.4193914979696,446.4193914979696,446.4193914979696,446.4193914979696,446.4193914979696,446.4193914979696,446.4193914979696,446.4193914979696,446.4193914979696,446.4193914979696,446.4193914979696,j,3.5470837000757456,target,None,449.8597370516509,,,,,,,,,,,,,,student1,2022-10-21_15h16.27.082,Hippopolis_4AFCT,2022.2.2,59.938558811190426,
Camponello,stimuli/subj_files/student1_cityB.csv,./stimuli/leipzig.jpg,./stimuli/street_plate2.png,SZŐNYEG UTCA,stimuli/objects/040a.jpg,object,0,stimuli/objects/040a.jpg,stimuli/objects/040a.jpg,stimuli/objects/040b.jpg,stimuli/objects/019b.jpg,stimuli/objects/019a.jpg,target,lure,dist2,dist1,0,1,1,1,0,13,13,29,,,,,,,449.993759656325,451.0363861937076,451.0363861937076,451.0363861937076,451.0363861937076,451.0363861937076,451.0363861937076,451.0363861937076,451.0363861937076,451.0363861937076,451.0363861937076,451.0363861937076,451.0363861937076,d,3.602103840559721,target,None,454.4891486763954,,,,,,,,,,,,,,student1,2022-10-21_15h16.27.082,Hippopolis_4AFCT,2022.2.2,59.938558811190426,
Camponello,stimuli/subj_files/student1_cityB.csv,./stimuli/leipzig.jpg,./stimuli/street_plate2.png,ZÁSZLÓ UTCA,stimuli/scenes/103a.jpg,scene,2,stimuli/objects/037a.jpg,stimuli/scenes/102b.jpg,stimuli/objects/037b.jpg,stimuli/scenes/102a.jpg,stimuli/objects/037a.jpg,dist2,lure,dist1,target,0,1,1,1,0,14,14,60,,,,,,,454.66465486958623,455.72411214001477,455.72411214001477,455.72411214001477,455.72411214001477,455.72411214001477,455.72411214001477,455.72411214001477,455.72411214001477,455.72411214001477,455.72411214001477,455.72411214001477,455.72411214001477,k,2.562857322394848,target,None,,,,,,,,,,,,,,,student1,2022-10-21_15h16.27.082,Hippopolis_4AFCT,2022.2.2,59.938558811190426,
Camponello,stimuli/subj_files/student1_cityB.csv,./stimuli/leipzig.jpg,./stimuli/street_plate2.png,TERÍTŐ UTCA,stimuli/objects/098a.jpg,object,1,stimuli/objects/096a.jpg,stimuli/objects/096b.jpg,stimuli/objects/096a.jpg,stimuli/objects/013b.jpg,stimuli/objects/013a.jpg,lure,target,dist2,dist1,0,1,1,1,0,15,15,39,,,,,,,458.3201011531055,459.3853120394051,459.3853120394051,459.3853120394051,459.3853120394051,459.3853120394051,459.3853120394051,459.3853120394051,459.3853120394051,459.3853120394051,459.3853120394051,459.3853120394051,459.3853120394051,f,2.901503164321184,target,None,,,,,,,,,,,,,,,student1,2022-10-21_15h16.27.082,Hippopolis_4AFCT,2022.2.2,59.938558811190426,
Camponello,stimuli/subj_files/student1_cityB.csv,./stimuli/leipzig.jpg,./stimuli/street_plate2.png,ÁLLOMÁS UTCA,stimuli/scenes/069a.jpg,scene,0,stimuli/scenes/069a.jpg,stimuli/scenes/106a.jpg,stimuli/scenes/106b.jpg,stimuli/scenes/069b.jpg,stimuli/scenes/069a.jpg,dist1,dist2,lure,target,0,1,1,1,0,16,16,42,,,,,,,462.31482150778174,463.3635415919125,463.3635415919125,463.3635415919125,463.3635415919125,463.3635415919125,463.3635415919125,463.3635415919125,463.3635415919125,463.3635415919125,463.3635415919125,463.3635415919125,463.3635415919125,j,2.9710550773888826,lure,None,,,,,,,,,,,,,,,student1,2022-10-21_15h16.27.082,Hippopolis_4AFCT,2022.2.2,59.938558811190426,
Camponello,stimuli/subj_files/student1_cityB.csv,./stimuli/leipzig.jpg,./stimuli/street_plate2.png,SZAXOFON UTCA,stimuli/objects/117a.jpg,object,0,stimuli/objects/117a.jpg,stimuli/scenes/021a.jpg,stimuli/objects/117a.jpg,stimuli/objects/117b.jpg,stimuli/scenes/021b.jpg,dist1,target,lure,dist2,0,1,1,1,0,17,17,20,,,,,,,466.37055136449635,467.4187399391085,467.4187399391085,467.4187399391085,467.4187399391085,467.4187399391085,467.4187399391085,467.4187399391085,467.4187399391085,467.4187399391085,467.4187399391085,467.4187399391085,467.4187399391085,f,2.5961337629705667,target,None,,,,,,,,,,,,,,,student1,2022-10-21_15h16.27.082,Hippopolis_4AFCT,2022.2.2,59.938558811190426,
Camponello,stimuli/subj_files/student1_cityB.csv,./stimuli/leipzig.jpg,./stimuli/street_plate2.png,KÓKUSZ UTCA,stimuli/scenes/052a.jpg,scene,0,stimuli/scenes/052a.jpg,stimuli/scenes/052a.jpg,stimuli/objects/077b.jpg,stimuli/objects/077a.jpg,stimuli/scenes/052b.jpg,target,dist2,dist1,lure,0,1,1,1,0,18,18,19,,,,,,,470.03667387366295,471.09272593446076,471.09272593446076,471.09272593446076,471.09272593446076,471.09272593446076,471.09272593446076,471.09272593446076,471.09272593446076,471.09272593446076,471.09272593446076,471.09272593446076,471.09272593446076,None,,invalid,None,474.53404524736106,,,,,,,,,,,,,,student1,2022-10-21_15h16.27.082,Hippopolis_4AFCT,2022.2.2,59.938558811190426,
Camponello,stimuli/subj_files/student1_cityB.csv,./stimuli/leipzig.jpg,./stimuli/street_plate2.png,SZALVÉTA UTCA,stimuli/objects/072a.jpg,object,0,stimuli/objects/072a.jpg,stimuli/scenes/045b.jpg,stimuli/scenes/045a.jpg,stimuli/objects/072b.jpg,stimuli/objects/072a.jpg,dist2,dist1,lure,target,0,1,1,1,0,19,19,54,,,,,,,476.0476278308779,477.11096117272973,477.11096117272973,477.11096117272973,477.11096117272973,477.11096117272973,477.11096117272973,477.11096117272973,477.11096117272973,477.11096117272973,477.11096117272973,477.11096117272973,477.11096117272973,j,2.983915815129876,lure,None,,,,,,,,,,,,,,,student1,2022-10-21_15h16.27.082,Hippopolis_4AFCT,2022.2.2,59.938558811190426,
Camponello,stimuli/subj_files/student1_cityB.csv,./stimuli/leipzig.jpg,./stimuli/street_plate2.png,KOSÁR UTCA,stimuli/objects/057a.jpg,object,2,stimuli/scenes/001a.jpg,stimuli/scenes/001a.jpg,stimuli/scenes/001b.jpg,stimuli/objects/005b.jpg,stimuli/objects/005a.jpg,target,lure,dist2,dist1,0,1,1,1,0,20,20,38,,,,,,,480.12739537097514,481.18582538701594,481.18582538701594,481.18582538701594,481.18582538701594,481.18582538701594,481.18582538701594,481.18582538701594,481.18582538701594,481.18582538701594,481.18582538701594,481.18582538701594,481.18582538701594,d,1.7409097272902727,target,None,,,,,,,,,,,,,,,student1,2022-10-21_15h16.27.082,Hippopolis_4AFCT,2022.2.2,59.938558811190426,
Camponello,stimuli/subj_files/student1_cityB.csv,./stimuli/leipzig.jpg,./stimuli/street_plate2.png,ECSET UTCA,stimuli/scenes/003a.jpg,scene,2,stimuli/objects/005a.jpg,stimuli/objects/035b.jpg,stimuli/objects/005b.jpg,stimuli/objects/035a.jpg,stimuli/objects/005a.jpg,dist2,lure,dist1,target,0,1,1,1,0,21,21,11,,,,,,,482.96594822220504,484.03265598230064,484.03265598230064,484.03265598230064,484.03265598230064,484.03265598230064,484.03265598230064,484.03265598230064,484.03265598230064,484.03265598230064,484.03265598230064,484.03265598230064,484.03265598230064,k,3.693238977342844,target,None,487.47942910529673,,,,,,,,,,,,,,student1,2022-10-21_15h16.27.082,Hippopolis_4AFCT,2022.2.2,59.938558811190426,
Camponello,stimuli/subj_files/student1_cityB.csv,./stimuli/leipzig.jpg,./stimuli/street_plate2.png,TENISZ UTCA,stimuli/objects/102a.jpg,object,0,stimuli/objects/102a.jpg,stimuli/objects/102b.jpg,stimuli/objects/102a.jpg,stimuli/scenes/038a.jpg,stimuli/scenes/038b.jpg,lure,target,dist1,dist2,0,1,1,1,0,22,22,75,,,,,,,487.74762484431267,488.8077053707093,488.8077053707093,488.8077053707093,488.8077053707093,488.8077053707093,488.8077053707093,488.8077053707093,488.8077053707093,488.8077053707093,488.8077053707093,488.8077053707093,488.8077053707093,f,1.8141396027058363,target,None,,,,,,,,,,,,,,,student1,2022-10-21_15h16.27.082,Hippopolis_4AFCT,2022.2.2,59.938558811190426,
Camponello,stimuli/subj_files/student1_cityB.csv,./stimuli/leipzig.jpg,./stimuli/street_plate2.png,KÁRTYA UTCA,stimuli/scenes/076a.jpg,scene,0,stimuli/scenes/076a.jpg,stimuli/objects/008a.jpg,stimuli/scenes/076b.jpg,stimuli/scenes/076a.jpg,stimuli/objects/008b.jpg,dist1,lure,target,dist2,0,1,1,1,0,23,23,64,,,,,,,490.6575054563582,491.7149386946112,491.7149386946112,491.7149386946112,491.7149386946112,491.7149386946112,491.7149386946112,491.7149386946112,491.7149386946112,491.7149386946112,491.7149386946112,491.7149386946112,491.7149386946112,d,2.283251380547881,dist1,None,,,,,,,,,,,,,,,student1,2022-10-21_15h16.27.082,Hippopolis_4AFCT,2022.2.2,59.938558811190426,
Camponello,stimuli/subj_files/student1_cityB.csv,./stimuli/leipzig.jpg,./stimuli/street_plate2.png,KALAPÁCS UTCA,stimuli/scenes/049a.jpg,scene,0,stimuli/scenes/049a.jpg,stimuli/objects/112b.jpg,stimuli/scenes/049a.jpg,stimuli/objects/112a.jpg,stimuli/scenes/049b.jpg,dist2,target,dist1,lure,0,1,1,1,0,24,24,3,,,,,,,494.037007894367,495.098097326234,495.098097326234,495.098097326234,495.098097326234,495.098097326234,495.098097326234,495.098097326234,495.098097326234,495.098097326234,495.098097326234,495.098097326234,495.098097326234,f,3.10775638371706,target,None,,,,,,,,,,,,,,,student1,2022-10-21_15h16.27.082,Hippopolis_4AFCT,2022.2.2,59.938558811190426,
Camponello,stimuli/subj_files/student1_cityB.csv,./stimuli/leipzig.jpg,./stimuli/street_plate2.png,TULIPÁN UTCA,stimuli/objects/058a.jpg,object,0,stimuli/objects/058a.jpg,stimuli/objects/117a.jpg,stimuli/objects/117b.jpg,stimuli/objects/058b.jpg,stimuli/objects/058a.jpg,dist1,dist2,lure,target,0,1,1,1,0,25,25,1,,,,,,,498.24486372992396,499.31466662697494,499.31466662697494,499.31466662697494,499.31466662697494,499.31466662697494,499.31466662697494,499.31466662697494,499.31466662697494,499.31466662697494,499.31466662697494,499.31466662697494,499.31466662697494,k,1.659336481243372,target,None,,,,,,,,,,,,,,,student1,2022-10-21_15h16.27.082,Hippopolis_4AFCT,2022.2.2,59.938558811190426,
Camponello,stimuli/subj_files/student1_cityB.csv,./stimuli/leipzig.jpg,./stimuli/street_plate2.png,KÍGYÓ UTCA,stimuli/scenes/032a.jpg,scene,0,stimuli/scenes/032a.jpg,stimuli/scenes/032a.jpg,stimuli/objects/088a.jpg,stimuli/scenes/032b.jpg,stimuli/objects/088b.jpg,target,dist1,lure,dist2,0,1,1,1,0,26,26,76,,,,,,,500.99848633259535,502.0515916068107,502.0515916068107,502.0515916068107,502.0515916068107,502.0515916068107,502.0515916068107,502.0515916068107,502.0515916068107,502.0515916068107,502.0515916068107,502.0515916068107,502.0515916068107,d,2.618662131950259,target,None,,,,,,,,,,,,,,,student1,2022-10-21_15h16.27.082,Hippopolis_4AFCT,2022.2.2,59.938558811190426,
Camponello,stimuli/subj_files/student1_cityB.csv,./stimuli/leipzig.jpg,./stimuli/street_plate2.png,TIGRIS UTCA,stimuli/scenes/021a.jpg,scene,0,stimuli/scenes/021a.jpg,stimuli/scenes/022b.jpg,stimuli/scenes/021a.jpg,stimuli/scenes/021b.jpg,stimuli/scenes/022a.jpg,dist2,target,lure,dist1,0,1,1,1,0,27,27,68,,,,,,,504.70317083597183,505.7506689745933,505.7506689745933,505.7506689745933,505.7506689745933,505.7506689745933,505.7506689745933,505.7506689745933,505.7506689745933,505.7506689745933,505.7506689745933,505.7506689745933,505.7506689745933,f,3.3355048075318336,target,None,,,,,,,,,,,,,,,student1,2022-10-21_15h16.27.082,Hippopolis_4AFCT,2022.2.2,59.938558811190426,
Camponello,stimuli/subj_files/student1_cityB.csv,./stimuli/leipzig.jpg,./stimuli/street_plate2.png,SALÁTA UTCA,stimuli/objects/008a.jpg,object,0,stimuli/objects/008a.jpg,stimuli/scenes/099b.jpg,stimuli/objects/008b.jpg,stimuli/objects/008a.jpg,stimuli/scenes/099a.jpg,dist2,lure,target,dist1,0,1,1,1,0,28,28,73,,,,,,,509.1263519451022,510.1681104619056,510.1681104619056,510.1681104619056,510.1681104619056,510.1681104619056,510.1681104619056,510.1681104619056,510.1681104619056,510.1681104619056,510.1681104619056,510.1681104619056,510.1681104619056,j,3.302100855857134,target,None,,,,,,,,,,,,,,,student1,2022-10-21_15h16.27.082,Hippopolis_4AFCT,2022.2.2,59.938558811190426,
Camponello,stimuli/subj_files/student1_cityB.csv,./stimuli/leipzig.jpg,./stimuli/street_plate2.png,BÚJÓCSKA UTCA,stimuli/scenes/015a.jpg,scene,1,stimuli/scenes/086a.jpg,stimuli/scenes/105b.jpg,stimuli/scenes/086a.jpg,stimuli/scenes/105a.jpg,stimuli/scenes/086b.jpg,dist2,target,dist1,lure,0,1,1,1,0,29,29,48,,,,,,,513.4976335521787,514.5419056229293,514.5419056229293,514.5419056229293,514.5419056229293,514.5419056229293,514.5419056229293,514.5419056229293,514.5419056229293,514.5419056229293,514.5419056229293,514.5419056229293,514.5419056229293,f,3.568465391173959,target,None,518.0003996435553,,,,,,,,,,,,,,student1,2022-10-21_15h16.27.082,Hippopolis_4AFCT,2022.2.2,59.938558811190426,
Camponello,stimuli/subj_files/student1_cityB.csv,./stimuli/leipzig.jpg,./stimuli/street_plate2.png,LOVAGLÁS UTCA,stimuli/objects/019a.jpg,object,0,stimuli/objects/019a.jpg,stimuli/objects/019b.jpg,stimuli/objects/019a.jpg,stimuli/scenes/017b.jpg,stimuli/scenes/017a.jpg,lure,target,dist2,dist1,0,1,1,1,0,30,30,53,,,,,,,518.128427291289,519.1813867036253,519.1813867036253,519.1813867036253,519.1813867036253,519.1813867036253,519.1813867036253,519.1813867036253,519.1813867036253,519.1813867036253,519.1813867036253,519.1813867036253,519.1813867036253,f,3.472081709653139,target,None,522.6254385188222,,,,,,,,,,,,,,student1,2022-10-21_15h16.27.082,Hippopolis_4AFCT,2022.2.2,59.938558811190426,
Camponello,stimuli/subj_files/student1_cityB.csv,./stimuli/leipzig.jpg,./stimuli/street_plate2.png,TORONY UTCA,stimuli/scenes/094a.jpg,scene,2,stimuli/objects/054a.jpg,stimuli/scenes/001a.jpg,stimuli/scenes/001b.jpg,stimuli/objects/054b.jpg,stimuli/objects/054a.jpg,dist1,dist2,lure,target,0,1,1,1,0,31,31,62,,,,,,,522.6913221143186,523.751529218629,523.751529218629,523.751529218629,523.751529218629,523.751529218629,523.751529218629,523.751529218629,523.751529218629,523.751529218629,523.751529218629,523.751529218629,523.751529218629,j,3.0458829049021006,lure,None,,,,,,,,,,,,,,,student1,2022-10-21_15h16.27.082,Hippopolis_4AFCT,2022.2.2,59.938558811190426,
Camponello,stimuli/subj_files/student1_cityB.csv,./stimuli/leipzig.jpg,./stimuli/street_plate2.png,SZILVA UTCA,stimuli/objects/105a.jpg,object,0,stimuli/objects/105a.jpg,stimuli/objects/049b.jpg,stimuli/objects/105b.jpg,stimuli/objects/049a.jpg,stimuli/objects/105a.jpg,dist2,lure,dist1,target,0,1,1,1,0,32,32,36,,,,,,,526.8303789813071,527.8899855315685,527.8899855315685,527.8899855315685,527.8899855315685,527.8899855315685,527.8899855315685,527.8899855315685,527.8899855315685,527.8899855315685,527.8899855315685,527.8899855315685,527.8899855315685,f,3.16444787196815,lure,None,,,,,,,,,,,,,,,student1,2022-10-21_15h16.27.082,Hippopolis_4AFCT,2022.2.2,59.938558811190426,
Camponello,stimuli/subj_files/student1_cityB.csv,./stimuli/leipzig.jpg,./stimuli/street_plate2.png,SÜTŐ UTCA,stimuli/scenes/038a.jpg,scene,0,stimuli/scenes/038a.jpg,stimuli/scenes/038b.jpg,stimuli/objects/033b.jpg,stimuli/objects/033a.jpg,stimuli/scenes/038a.jpg,lure,dist2,dist1,target,0,1,1,1,0,33,33,5,,,,,,,531.0815082453191,532.1310549844056,532.1310549844056,532.1310549844056,532.1310549844056,532.1310549844056,532.1310549844056,532.1310549844056,532.1310549844056,532.1310549844056,532.1310549844056,532.1310549844056,532.1310549844056,k,2.9229849968105555,target,None,,532.1310549844056,,,,,,,,,,,,,student1,2022-10-21_15h16.27.082,Hippopolis_4AFCT,2022.2.2,59.938558811190426,
Camponello,stimuli/subj_files/student1_cityB.csv,./stimuli/leipzig.jpg,./stimuli/street_plate2.png,KESELYŰ UTCA,stimuli/objects/003a.jpg,object,2,stimuli/scenes/100a.jpg,stimuli/objects/029a.jpg,stimuli/scenes/100b.jpg,stimuli/objects/029b.jpg,stimuli/scenes/100a.jpg,dist1,lure,dist2,target,0,1,1,1,0,34,34,6,,,,,,,535.0779422447085,536.1317018773407,536.1317018773407,536.1317018773407,536.1317018773407,536.1317018773407,536.1317018773407,536.1317018773407,536.1317018773407,536.1317018773407,536.1317018773407,536.1317018773407,536.1317018773407,f,3.0020341146737337,lure,None,,,,,,,,,,,,,,,student1,2022-10-21_15h16.27.082,Hippopolis_4AFCT,2022.2.2,59.938558811190426,
Camponello,stimuli/subj_files/student1_cityB.csv,./stimuli/leipzig.jpg,./stimuli/street_plate2.png,SAJTÓ UTCA,stimuli/scenes/112a.jpg,scene,0,stimuli/scenes/112a.jpg,stimuli/objects/018a.jpg,stimuli/scenes/112b.jpg,stimuli/scenes/112a.jpg,stimuli/objects/018b.jpg,dist1,lure,target,dist2,0,1,1,1,0,35,35,15,,,,,,,539.1712961010635,540.21855321154,540.21855321154,540.21855321154,540.21855321154,540.21855321154,540.21855321154,540.21855321154,540.21855321154,540.21855321154,540.21855321154,540.21855321154,540.21855321154,j,1.538840787485242,target,None,,,,,,,,,,,,,,,student1,2022-10-21_15h16.27.082,Hippopolis_4AFCT,2022.2.2,59.938558811190426,
Camponello,stimuli/subj_files/student1_cityB.csv,./stimuli/leipzig.jpg,./stimuli/street_plate2.png,ZONGORA UTCA,stimuli/objects/034a.jpg,object,0,stimuli/objects/034a.jpg,stimuli/objects/034a.jpg,stimuli/objects/034b.jpg,stimuli/objects/016b.jpg,stimuli/objects/016a.jpg,target,lure,dist2,dist1,0,1,1,1,0,36,36,31,,,,,,,541.7783668935299,542.838172800839,542.838172800839,542.838172800839,542.838172800839,542.838172800839,542.838172800839,542.838172800839,542.838172800839,542.838172800839,542.838172800839,542.838172800839,542.838172800839,d,2.0395585894584656,target,None,,,,,,,,,,,,,,,student1,2022-10-21_15h16.27.082,Hippopolis_4AFCT,2022.2.2,59.938558811190426,
Camponello,stimuli/subj_files/student1_cityB.csv,./stimuli/leipzig.jpg,./stimuli/street_plate2.png,FÜZET UTCA,stimuli/scenes/047a.jpg,scene,1,stimuli/scenes/012a.jpg,stimuli/scenes/012b.jpg,stimuli/objects/010b.jpg,stimuli/scenes/012a.jpg,stimuli/objects/010a.jpg,lure,dist2,target,dist1,0,1,1,1,0,37,37,56,,,,,,,544.9059155900031,545.9745621662587,545.9745621662587,545.9745621662587,545.9745621662587,545.9745621662587,545.9745621662587,545.9745621662587,545.9745621662587,545.9745621662587,545.9745621662587,545.9745621662587,545.9745621662587,k,1.9915146324783564,dist1,None,,,,,,,,,,,,,,,student1,2022-10-21_15h16.27.082,Hippopolis_4AFCT,2022.2.2,59.938558811190426,
Camponello,stimuli/subj_files/student1_cityB.csv,./stimuli/leipzig.jpg,./stimuli/street_plate2.png,POLIP UTCA,stimuli/scenes/077a.jpg,scene,0,stimuli/scenes/077a.jpg,stimuli/scenes/077b.jpg,stimuli/scenes/077a.jpg,stimuli/scenes/091b.jpg,stimuli/scenes/091a.jpg,lure,target,dist2,dist1,0,1,1,1,0,38,38,49,,,,,,,547.9945732504129,549.0489723104984,549.0489723104984,549.0489723104984,549.0489723104984,549.0489723104984,549.0489723104984,549.0489723104984,549.0489723104984,549.0489723104984,549.0489723104984,549.0489723104984,549.0489723104984,f,2.8046327605843544,target,None,,549.0489723104984,,,,,,,,,,,,,student1,2022-10-21_15h16.27.082,Hippopolis_4AFCT,2022.2.2,59.938558811190426,
Camponello,stimuli/subj_files/student1_cityB.csv,./stimuli/leipzig.jpg,./stimuli/street_plate2.png,MAJOM UTCA,stimuli/objects/018a.jpg,object,0,stimuli/objects/018a.jpg,stimuli/objects/018a.jpg,stimuli/scenes/092b.jpg,stimuli/objects/018b.jpg,stimuli/scenes/092a.jpg,target,dist2,lure,dist1,0,1,1,1,0,39,39,78,,,,,,,551.8863433357328,552.9459060374647,552.9459060374647,552.9459060374647,552.9459060374647,552.9459060374647,552.9459060374647,552.9459060374647,552.9459060374647,552.9459060374647,552.9459060374647,552.9459060374647,552.9459060374647,d,2.2838164791464806,target,None,,,,,,,,,,,,,,,student1,2022-10-21_15h16.27.082,Hippopolis_4AFCT,2022.2.2,59.938558811190426,
Camponello,stimuli/subj_files/student1_cityB.csv,./stimuli/leipzig.jpg,./stimuli/street_plate2.png,MENTA UTCA,stimuli/objects/092a.jpg,object,0,stimuli/objects/092a.jpg,stimuli/scenes/069a.jpg,stimuli/scenes/069b.jpg,stimuli/objects/092a.jpg,stimuli/objects/092b.jpg,dist1,dist2,target,lure,0,1,1,1,0,40,40,67,,,,,,,555.2692643590271,556.3098438512534,556.3098438512534,556.3098438512534,556.3098438512534,556.3098438512534,556.3098438512534,556.3098438512534,556.3098438512534,556.3098438512534,556.3098438512534,556.3098438512534,556.3098438512534,j,1.9760538842529058,target,None,,,,,,,,,,,,,,,student1,2022-10-21_15h16.27.082,Hippopolis_4AFCT,2022.2.2,59.938558811190426,
Camponello,stimuli/subj_files/student1_cityB.csv,./stimuli/leipzig.jpg,./stimuli/street_plate2.png,FÜGE UTCA,stimuli/scenes/115a.jpg,scene,0,stimuli/scenes/115a.jpg,stimuli/scenes/115b.jpg,stimuli/scenes/115a.jpg,stimuli/objects/084b.jpg,stimuli/objects/084a.jpg,lure,target,dist2,dist1,0,1,1,1,0,41,41,47,,,,,,,558.3184332251549,559.3695978187025,559.3695978187025,559.3695978187025,559.3695978187025,559.3695978187025,559.3695978187025,559.3695978187025,559.3695978187025,559.3695978187025,559.3695978187025,559.3695978187025,559.3695978187025,f,3.0119057688862085,target,None,,,,,,,,,,,,,,,student1,2022-10-21_15h16.27.082,Hippopolis_4AFCT,2022.2.2,59.938558811190426,
Camponello,stimuli/subj_files/student1_cityB.csv,./stimuli/leipzig.jpg,./stimuli/street_plate2.png,REPÜLŐ UTCA,stimuli/scenes/098a.jpg,scene,0,stimuli/scenes/098a.jpg,stimuli/scenes/013a.jpg,stimuli/scenes/013b.jpg,stimuli/scenes/098a.jpg,stimuli/scenes/098b.jpg,dist1,dist2,target,lure,0,1,1,1,0,42,42,66,,,,,,,562.4158587753773,563.4693241957575,563.4693241957575,563.4693241957575,563.4693241957575,563.4693241957575,563.4693241957575,563.4693241957575,563.4693241957575,563.4693241957575,563.4693241957575,563.4693241957575,563.4693241957575,j,1.7760702427476645,target,None,,,,,,,,,,,,,,,student1,2022-10-21_15h16.27.082,Hippopolis_4AFCT,2022.2.2,59.938558811190426,
Camponello,stimuli/subj_files/student1_cityB.csv,./stimuli/leipzig.jpg,./stimuli/street_plate2.png,TÁNYÉR UTCA,stimuli/objects/118a.jpg,object,0,stimuli/objects/118a.jpg,stimuli/objects/102b.jpg,stimuli/objects/102a.jpg,stimuli/objects/118b.jpg,stimuli/objects/118a.jpg,dist2,dist1,lure,target,0,1,1,1,0,43,43,28,,,,,,,565.2696182839572,566.3169099148363,566.3169099148363,566.3169099148363,566.3169099148363,566.3169099148363,566.3169099148363,566.3169099148363,566.3169099148363,566.3169099148363,566.3169099148363,566.3169099148363,566.3169099148363,j,3.3123855255544186,lure,None,,,,,,,,,,,,,,,student1,2022-10-21_15h16.27.082,Hippopolis_4AFCT,2022.2.2,59.938558811190426,
Camponello,stimuli/subj_files/student1_cityB.csv,./stimuli/leipzig.jpg,./stimuli/street_plate2.png,VITORLA UTCA,stimuli/scenes/110a.jpg,scene,1,stimuli/scenes/062a.jpg,stimuli/scenes/107a.jpg,stimuli/scenes/107b.jpg,stimuli/scenes/062b.jpg,stimuli/scenes/062a.jpg,dist1,dist2,lure,target,0,1,1,1,0,44,44,45,,,,,,,569.6618247125298,570.7173175830394,570.7173175830394,570.7173175830394,570.7173175830394,570.7173175830394,570.7173175830394,570.7173175830394,570.7173175830394,570.7173175830394,570.7173175830394,570.7173175830394,570.7173175830394,j,2.831618783995509,lure,space,,570.7173175830394,573.5735299978405,573.5735299978405,4.743553902953863,,,,,,,,,,student1,2022-10-21_15h16.27.082,Hippopolis_4AFCT,2022.2.2,59.938558811190426,
Camponello,stimuli/subj_files/student1_cityB.csv,./stimuli/leipzig.jpg,./stimuli/street_plate2.png,PAPRIKA UTCA,stimuli/objects/033a.jpg,object,0,stimuli/objects/033a.jpg,stimuli/scenes/023a.jpg,stimuli/objects/033b.jpg,stimuli/scenes/023b.jpg,stimuli/objects/033a.jpg,dist1,lure,dist2,target,0,1,1,1,0,45,45,30,,,,,,,578.3370730821043,579.3977149743587,579.3977149743587,579.3977149743587,579.3977149743587,579.3977149743587,579.3977149743587,579.3977149743587,579.3977149743587,579.3977149743587,579.3977149743587,579.3977149743587,579.3977149743587,d,3.0470208767801523,dist1,None,,,,,,,,,,,,,,,student1,2022-10-21_15h16.27.082,Hippopolis_4AFCT,2022.2.2,59.938558811190426,
Camponello,stimuli/subj_files/student1_cityB.csv,./stimuli/leipzig.jpg,./stimuli/street_plate2.png,TÉRKÉP UTCA,stimuli/scenes/013a.jpg,scene,0,stimuli/scenes/013a.jpg,stimuli/scenes/006b.jpg,stimuli/scenes/006a.jpg,stimuli/scenes/013a.jpg,stimuli/scenes/013b.jpg,dist2,dist1,target,lure,0,1,1,1,0,46,46,63,,,,,,,582.4790363032371,583.5022401791066,583.5022401791066,583.5022401791066,583.5022401791066,583.5022401791066,583.5022401791066,583.5022401791066,583.5022401791066,583.5022401791066,583.5022401791066,583.5022401791066,583.5022401791066,f,4.1584675293415785,dist1,None,586.9789884090424,,,,,,,,,,,,,,student1,2022-10-21_15h16.27.082,Hippopolis_4AFCT,2022.2.2,59.938558811190426,
Camponello,stimuli/subj_files/student1_cityB.csv,./stimuli/leipzig.jpg,./stimuli/street_plate2.png,VIHAR UTCA,stimuli/objects/048a.jpg,object,2,stimuli/scenes/054a.jpg,stimuli/scenes/054b.jpg,stimuli/scenes/100b.jpg,stimuli/scenes/054a.jpg,stimuli/scenes/100a.jpg,lure,dist2,target,dist1,0,1,1,1,0,47,47,65,,,,,,,587.7027640379965,588.7447573654354,588.7447573654354,588.7447573654354,588.7447573654354,588.7447573654354,588.7447573654354,588.7447573654354,588.7447573654354,588.7447573654354,588.7447573654354,588.7447573654354,588.7447573654354,f,2.8686394300311804,dist2,None,,,,,,,,,,,,,,,student1,2022-10-21_15h16.27.082,Hippopolis_4AFCT,2022.2.2,59.938558811190426,
Camponello,stimuli/subj_files/student1_cityB.csv,./stimuli/leipzig.jpg,./stimuli/street_plate2.png,KRÉTA UTCA,stimuli/scenes/091a.jpg,scene,0,stimuli/scenes/091a.jpg,stimuli/scenes/098b.jpg,stimuli/scenes/091b.jpg,stimuli/scenes/098a.jpg,stimuli/scenes/091a.jpg,dist2,lure,dist1,target,0,1,1,1,0,48,48,21,,,,,,,591.6404707022011,592.6972859725356,592.6972859725356,592.6972859725356,592.6972859725356,592.6972859725356,592.6972859725356,592.6972859725356,592.6972859725356,592.6972859725356,592.6972859725356,592.6972859725356,592.6972859725356,k,2.388310272246599,target,None,,,,,,,,,,,,,,,student1,2022-10-21_15h16.27.082,Hippopolis_4AFCT,2022.2.2,59.938558811190426,
Camponello,stimuli/subj_files/student1_cityB.csv,./stimuli/leipzig.jpg,./stimuli/street_plate2.png,LEVÉL UTCA,stimuli/scenes/019a.jpg,scene,0,stimuli/scenes/019a.jpg,stimuli/objects/052a.jpg,stimuli/scenes/019a.jpg,stimuli/scenes/019b.jpg,stimuli/objects/052b.jpg,dist1,target,lure,dist2,0,1,1,1,0,49,49,8,,,,,,,595.1150210499763,596.1794808562845,596.1794808562845,596.1794808562845,596.1794808562845,596.1794808562845,596.1794808562845,596.1794808562845,596.1794808562845,596.1794808562845,596.1794808562845,596.1794808562845,596.1794808562845,f,3.113231338560581,target,None,,,,,,,,,,,,,,,student1,2022-10-21_15h16.27.082,Hippopolis_4AFCT,2022.2.2,59.938558811190426,
Camponello,stimuli/subj_files/student1_cityB.csv,./stimuli/leipzig.jpg,./stimuli/street_plate2.png,SUGÁR UTCA,stimuli/objects/094a.jpg,object,0,stimuli/objects/094a.jpg,stimuli/objects/094b.jpg,stimuli/objects/064b.jpg,stimuli/objects/064a.jpg,stimuli/objects/094a.jpg,lure,dist2,dist1,target,0,1,1,1,0,50,50,40,,,,,,,599.3138461913913,600.355112073943,600.355112073943,600.355112073943,600.355112073943,600.355112073943,600.355112073943,600.355112073943,600.355112073943,600.355112073943,600.355112073943,600.355112073943,600.355112073943,k,2.634061925113201,target,None,,,,,,,,,,,,,,,student1,2022-10-21_15h16.27.082,Hippopolis_4AFCT,2022.2.2,59.938558811190426,
Camponello,stimuli/subj_files/student1_cityB.csv,./stimuli/leipzig.jpg,./stimuli/street_plate2.png,HORGONY UTCA,stimuli/objects/039a.jpg,object,0,stimuli/objects/039a.jpg,stimuli/objects/039b.jpg,stimuli/objects/039a.jpg,stimuli/objects/092b.jpg,stimuli/objects/092a.jpg,lure,target,dist2,dist1,0,1,1,1,0,51,51,26,,,,,,,603.0083427466452,604.0695410296321,604.0695410296321,604.0695410296321,604.0695410296321,604.0695410296321,604.0695410296321,604.0695410296321,604.0695410296321,604.0695410296321,604.0695410296321,604.0695410296321,604.0695410296321,f,3.25555626116693,target,None,,,,,,,,,,,,,,,student1,2022-10-21_15h16.27.082,Hippopolis_4AFCT,2022.2.2,59.938558811190426,
Camponello,stimuli/subj_files/student1_cityB.csv,./stimuli/leipzig.jpg,./stimuli/street_plate2.png,SZÖCSKE UTCA,stimuli/scenes/026a.jpg,scene,2,stimuli/objects/061a.jpg,stimuli/scenes/063a.jpg,stimuli/objects/061a.jpg,stimuli/scenes/063b.jpg,stimuli/objects/061b.jpg,dist1,target,dist2,lure,0,1,1,1,0,52,52,71,,,,,,,607.3458167165518,608.3873830307275,608.3873830307275,608.3873830307275,608.3873830307275,608.3873830307275,608.3873830307275,608.3873830307275,608.3873830307275,608.3873830307275,608.3873830307275,608.3873830307275,608.3873830307275,f,3.8329386953264475,target,None,611.8384875394404,,,,,,,,,,,,,,student1,2022-10-21_15h16.27.082,Hippopolis_4AFCT,2022.2.2,59.938558811190426,
Camponello,stimuli/subj_files/student1_cityB.csv,./stimuli/leipzig.jpg,./stimuli/street_plate2.png,KANÁL UTCA,stimuli/scenes/057a.jpg,scene,1,stimuli/scenes/020a.jpg,stimuli/scenes/020b.jpg,stimuli/scenes/020a.jpg,stimuli/scenes/062a.jpg,stimuli/scenes/062b.jpg,lure,target,dist1,dist2,0,1,1,1,0,53,53,14,,,,,,,612.2563740760088,613.3001762162894,613.3001762162894,613.3001762162894,613.3001762162894,613.3001762162894,613.3001762162894,613.3001762162894,613.3001762162894,613.3001762162894,613.3001762162894,613.3001762162894,613.3001762162894,d,3.5121760331094265,lure,None,616.7605882138014,,,,,,,,,,,,,,student1,2022-10-21_15h16.27.082,Hippopolis_4AFCT,2022.2.2,59.938558811190426,
Camponello,stimuli/subj_files/student1_cityB.csv,./stimuli/leipzig.jpg,./stimuli/street_plate2.png,HENTES UTCA,stimuli/scenes/092a.jpg,scene,0,stimuli/scenes/092a.jpg,stimuli/scenes/114b.jpg,stimuli/scenes/114a.jpg,stimuli/scenes/092a.jpg,stimuli/scenes/092b.jpg,dist2,dist1,target,lure,0,1,1,1,0,54,54,46,,,,,,,616.8455371204764,617.8984287343919,617.8984287343919,617.8984287343919,617.8984287343919,617.8984287343919,617.8984287343919,617.8984287343919,617.8984287343919,617.8984287343919,617.8984287343919,617.8984287343919,617.8984287343919,j,2.25816529430449,target,None,,,,,,,,,,,,,,,student1,2022-10-21_15h16.27.082,Hippopolis_4AFCT,2022.2.2,59.938558811190426,
Camponello,stimuli/subj_files/student1_cityB.csv,./stimuli/leipzig.jpg,./stimuli/street_plate2.png,TELEFON UTCA,stimuli/scenes/017a.jpg,scene,0,stimuli/scenes/017a.jpg,stimuli/objects/094b.jpg,stimuli/scenes/017b.jpg,stimuli/scenes/017a.jpg,stimuli/objects/094a.jpg,dist2,lure,target,dist1,0,1,1,1,0,55,55,27,,,,,,,620.1937716007233,621.2304974123836,621.2304974123836,621.2304974123836,621.2304974123836,621.2304974123836,621.2304974123836,621.2304974123836,621.2304974123836,621.2304974123836,621.2304974123836,621.2304974123836,621.2304974123836,j,1.8860436584800482,target,None,,,,,,,,,,,,,,,student1,2022-10-21_15h16.27.082,Hippopolis_4AFCT,2022.2.2,59.938558811190426,
Camponello,stimuli/subj_files/student1_cityB.csv,./stimuli/leipzig.jpg,./stimuli/street_plate2.png,TÜKÖR UTCA,stimuli/scenes/006a.jpg,scene,0,stimuli/scenes/006a.jpg,stimuli/objects/116b.jpg,stimuli/objects/116a.jpg,stimuli/scenes/006a.jpg,stimuli/scenes/006b.jpg,dist2,dist1,target,lure,0,1,1,1,0,56,56,25,,,,,,,623.1460622865707,624.2016307320446,624.2016307320446,624.2016307320446,624.2016307320446,624.2016307320446,624.2016307320446,624.2016307320446,624.2016307320446,624.2016307320446,624.2016307320446,624.2016307320446,624.2016307320446,f,2.5313561093062162,dist1,None,,,,,,,,,,,,,,,student1,2022-10-21_15h16.27.082,Hippopolis_4AFCT,2022.2.2,59.938558811190426,
Camponello,stimuli/subj_files/student1_cityB.csv,./stimuli/leipzig.jpg,./stimuli/street_plate2.png,MÁRVÁNY UTCA,stimuli/scenes/023a.jpg,scene,0,stimuli/scenes/023a.jpg,stimuli/objects/030a.jpg,stimuli/scenes/023b.jpg,stimuli/objects/030b.jpg,stimuli/scenes/023a.jpg,dist1,lure,dist2,target,0,1,1,1,0,57,57,58,,,,,,,626.7601711526513,627.7984075229615,627.7984075229615,627.7984075229615,627.7984075229615,627.7984075229615,627.7984075229615,627.7984075229615,627.7984075229615,627.7984075229615,627.7984075229615,627.7984075229615,627.7984075229615,f,2.774160973727703,lure,None,,,,,,,,,,,,,,,student1,2022-10-21_15h16.27.082,Hippopolis_4AFCT,2022.2.2,59.938558811190426,
Camponello,stimuli/subj_files/student1_cityB.csv,./stimuli/leipzig.jpg,./stimuli/street_plate2.png,HARCSA UTCA,stimuli/scenes/080a.jpg,scene,2,stimuli/objects/029a.jpg,stimuli/scenes/054b.jpg,stimuli/scenes/054a.jpg,stimuli/objects/029b.jpg,stimuli/objects/029a.jpg,dist2,dist1,lure,target,0,1,1,1,0,58,58,59,,,,,,,630.6115029454231,631.647831602022,631.647831602022,631.647831602022,631.647831602022,631.647831602022,631.647831602022,631.647831602022,631.647831602022,631.647831602022,631.647831602022,631.647831602022,631.647831602022,f,1.788818083703518,dist1,None,,,,,,,,,,,,,,,student1,2022-10-21_15h16.27.082,Hippopolis_4AFCT,2022.2.2,59.938558811190426,
Camponello,stimuli/subj_files/student1_cityB.csv,./stimuli/leipzig.jpg,./stimuli/street_plate2.png,FÉSŰ UTCA,stimuli/objects/084a.jpg,object,0,stimuli/objects/084a.jpg,stimuli/objects/118b.jpg,stimuli/objects/118a.jpg,stimuli/objects/084a.jpg,stimuli/objects/084b.jpg,dist2,dist1,target,lure,0,1,1,1,0,59,59,23,,,,,,,633.4776181150228,634.5304661858827,634.5304661858827,634.5304661858827,634.5304661858827,634.5304661858827,634.5304661858827,634.5304661858827,634.5304661858827,634.5304661858827,634.5304661858827,634.5304661858827,634.5304661858827,j,2.7938078697770834,target,None,,,,,,,,,,,,,,,student1,2022-10-21_15h16.27.082,Hippopolis_4AFCT,2022.2.2,59.938558811190426,
Camponello,stimuli/subj_files/student1_cityB.csv,./stimuli/leipzig.jpg,./stimuli/street_plate2.png,PÁRNA UTCA,stimuli/objects/112a.jpg,object,0,stimuli/objects/112a.jpg,stimuli/objects/112b.jpg,stimuli/scenes/032b.jpg,stimuli/scenes/032a.jpg,stimuli/objects/112a.jpg,lure,dist2,dist1,target,0,1,1,1,0,60,60,77,,,,,,,637.3568278960884,638.4162319842726,638.4162319842726,638.4162319842726,638.4162319842726,638.4162319842726,638.4162319842726,638.4162319842726,638.4162319842726,638.4162319842726,638.4162319842726,638.4162319842726,638.4162319842726,k,2.748729048296809,target,None,,,,,,,,,,,,,,,student1,2022-10-21_15h16.27.082,Hippopolis_4AFCT,2022.2.2,59.938558811190426,
Camponello,stimuli/subj_files/student1_cityB.csv,./stimuli/leipzig.jpg,./stimuli/street_plate2.png,FÉSZEK UTCA,stimuli/objects/042a.jpg,object,1,stimuli/objects/044a.jpg,stimuli/scenes/020b.jpg,stimuli/objects/044a.jpg,stimuli/scenes/020a.jpg,stimuli/objects/044b.jpg,dist2,target,dist1,lure,0,1,1,1,0,61,61,10,,,,,,,641.1872479300946,642.2306684646755,642.2306684646755,642.2306684646755,642.2306684646755,642.2306684646755,642.2306684646755,642.2306684646755,642.2306684646755,642.2306684646755,642.2306684646755,642.2306684646755,642.2306684646755,f,2.021373735740781,target,None,,,,,,,,,,,,,,,student1,2022-10-21_15h16.27.082,Hippopolis_4AFCT,2022.2.2,59.938558811190426,
Camponello,stimuli/subj_files/student1_cityB.csv,./stimuli/leipzig.jpg,./stimuli/street_plate2.png,TOLMÁCS UTCA,stimuli/scenes/082a.jpg,scene,0,stimuli/scenes/082a.jpg,stimuli/scenes/082b.jpg,stimuli/objects/081b.jpg,stimuli/objects/081a.jpg,stimuli/scenes/082a.jpg,lure,dist2,dist1,target,0,1,1,1,0,62,62,2,,,,,,,644.2812253534794,645.3314485307783,645.3314485307783,645.3314485307783,645.3314485307783,645.3314485307783,645.3314485307783,645.3314485307783,645.3314485307783,645.3314485307783,645.3314485307783,645.3314485307783,645.3314485307783,k,3.305534055456519,target,None,,,,,,,,,,,,,,,student1,2022-10-21_15h16.27.082,Hippopolis_4AFCT,2022.2.2,59.938558811190426,
Camponello,stimuli/subj_files/student1_cityB.csv,./stimuli/leipzig.jpg,./stimuli/street_plate2.png,BOHÓC UTCA,stimuli/objects/064a.jpg,object,0,stimuli/objects/064a.jpg,stimuli/objects/040b.jpg,stimuli/objects/040a.jpg,stimuli/objects/064a.jpg,stimuli/objects/064b.jpg,dist2,dist1,target,lure,0,1,1,1,0,63,63,17,,,,,,,648.6580494064838,649.7329515628517,649.7329515628517,649.7329515628517,649.7329515628517,649.7329515628517,649.7329515628517,649.7329515628517,649.7329515628517,649.7329515628517,649.7329515628517,649.7329515628517,649.7329515628517,j,2.519298078492284,target,None,,,,,,,,,,,,,,,student1,2022-10-21_15h16.27.082,Hippopolis_4AFCT,2022.2.2,59.938558811190426,
