CityName,StimuliFile,CityImage,StreetSign,Cue,Image,Category,Novelty,UpdateImage,TestImage1,TestImage2,TestImage3,TestImage4,TestImage1Type,TestImage2Type,TestImage3Type,TestImage4Type,CityBlock.thisRepN,CityBlock.thisTrialN,CityBlock.thisN,CityBlock.thisIndex,LearningTrials.thisRepN,LearningTrials.thisTrialN,LearningTrials.thisN,LearningTrials.thisIndex,learning_instructions_text.started,intro_key.started,intro_key.keys,intro_key.rt,cityname_text.started,city_image.started,fx_cross.started,plate_updating.started,city_text_updating.started,street_text_updating.started,test_image1.started,test_image2.started,test_image3.started,test_image4.started,button_d.started,button_f.started,button_j.started,button_k.started,key_resp.started,key_resp.keys,key_resp.rt,test_resp,short_break_key.keys,fx_cross.stopped,clock0.started,short_break_text.started,short_break_key.started,short_break_key.rt,n_targets,n_lures,n_dist1s,n_dist2s,break_text.started,break_key_resp.started,break_key_resp.keys,break_key_resp.rt,end_text.started,end_text.stopped,participant,date,expName,psychopyVersion,frameRate,
,,,,,,,,,,,,,,,,,,,,,,,,,16.230904208496213,16.230904208496213,space,28.4209146425128,,,,,,,,,,,,,,,,,,,,,,,,,,,,,,,,,,,student1,2022-10-25_10h56.17.082,Hippopolis_4AFCT,2022.2.2,59.88776297983654,
Camponello,stimuli/subj_files/student1_cityB.csv,./stimuli/leipzig.jpg,./stimuli/street_plate2.png,MENTA UTCA,stimuli/objects/092a.jpg,object,0,stimuli/objects/092a.jpg,stimuli/scenes/069a.jpg,stimuli/scenes/069b.jpg,stimuli/objects/092a.jpg,stimuli/objects/092b.jpg,dist1,dist2,target,lure,0,0,0,1,0,0,0,67,,,,,44.71482517756522,44.71482517756522,47.69695537164807,48.75421942397952,48.75421942397952,48.75421942397952,48.75421942397952,48.75421942397952,48.75421942397952,48.75421942397952,48.75421942397952,48.75421942397952,48.75421942397952,48.75421942397952,48.75421942397952,j,2.362065700814128,target,None,,,,,,,,,,,,,,,,student1,2022-10-25_10h56.17.082,Hippopolis_4AFCT,2022.2.2,59.88776297983654,
Camponello,stimuli/subj_files/student1_cityB.csv,./stimuli/leipzig.jpg,./stimuli/street_plate2.png,SÜTŐ UTCA,stimuli/scenes/038a.jpg,scene,0,stimuli/scenes/038a.jpg,stimuli/scenes/038b.jpg,stimuli/objects/033b.jpg,stimuli/objects/033a.jpg,stimuli/scenes/038a.jpg,lure,dist2,dist1,target,0,0,0,1,0,1,1,5,,,,,,,51.14299109764397,52.214744316414,52.214744316414,52.214744316414,52.214744316414,52.214744316414,52.214744316414,52.214744316414,52.214744316414,52.214744316414,52.214744316414,52.214744316414,52.214744316414,k,1.412946967408061,target,None,,,,,,,,,,,,,,,,student1,2022-10-25_10h56.17.082,Hippopolis_4AFCT,2022.2.2,59.88776297983654,
Camponello,stimuli/subj_files/student1_cityB.csv,./stimuli/leipzig.jpg,./stimuli/street_plate2.png,VITORLA UTCA,stimuli/scenes/110a.jpg,scene,1,stimuli/scenes/062a.jpg,stimuli/scenes/107a.jpg,stimuli/scenes/107b.jpg,stimuli/scenes/062b.jpg,stimuli/scenes/062a.jpg,dist1,dist2,lure,target,0,0,0,1,0,2,2,45,,,,,,,53.65938486717641,54.71354600787163,54.71354600787163,54.71354600787163,54.71354600787163,54.71354600787163,54.71354600787163,54.71354600787163,54.71354600787163,54.71354600787163,54.71354600787163,54.71354600787163,54.71354600787163,k,2.018085788935423,target,None,,,,,,,,,,,,,,,,student1,2022-10-25_10h56.17.082,Hippopolis_4AFCT,2022.2.2,59.88776297983654,
Camponello,stimuli/subj_files/student1_cityB.csv,./stimuli/leipzig.jpg,./stimuli/street_plate2.png,LEGELŐ UTCA,stimuli/objects/030a.jpg,object,0,stimuli/objects/030a.jpg,stimuli/objects/039a.jpg,stimuli/objects/030a.jpg,stimuli/objects/030b.jpg,stimuli/objects/039b.jpg,dist1,target,lure,dist2,0,0,0,1,0,3,3,70,,,,,,,56.759357560426,57.82345131225884,57.82345131225884,57.82345131225884,57.82345131225884,57.82345131225884,57.82345131225884,57.82345131225884,57.82345131225884,57.82345131225884,57.82345131225884,57.82345131225884,57.82345131225884,d,1.804360019043088,dist1,None,,,,,,,,,,,,,,,,student1,2022-10-25_10h56.17.082,Hippopolis_4AFCT,2022.2.2,59.88776297983654,
Camponello,stimuli/subj_files/student1_cityB.csv,./stimuli/leipzig.jpg,./stimuli/street_plate2.png,ZÁSZLÓ UTCA,stimuli/scenes/103a.jpg,scene,2,stimuli/objects/037a.jpg,stimuli/scenes/102b.jpg,stimuli/objects/037b.jpg,stimuli/scenes/102a.jpg,stimuli/objects/037a.jpg,dist2,lure,dist1,target,0,0,0,1,0,4,4,60,,,,,,,59.660955449566245,60.73323209024966,60.73323209024966,60.73323209024966,60.73323209024966,60.73323209024966,60.73323209024966,60.73323209024966,60.73323209024966,60.73323209024966,60.73323209024966,60.73323209024966,60.73323209024966,k,2.110154878348112,target,None,,,,,,,,,,,,,,,,student1,2022-10-25_10h56.17.082,Hippopolis_4AFCT,2022.2.2,59.88776297983654,
Camponello,stimuli/subj_files/student1_cityB.csv,./stimuli/leipzig.jpg,./stimuli/street_plate2.png,BANÁN UTCA,stimuli/scenes/045a.jpg,scene,0,stimuli/scenes/045a.jpg,stimuli/scenes/045b.jpg,stimuli/scenes/045a.jpg,stimuli/scenes/112b.jpg,stimuli/scenes/112a.jpg,lure,target,dist2,dist1,0,0,0,1,0,5,5,57,,,,,,,62.85953147523105,63.90709554962814,63.90709554962814,63.90709554962814,63.90709554962814,63.90709554962814,63.90709554962814,63.90709554962814,63.90709554962814,63.90709554962814,63.90709554962814,63.90709554962814,63.90709554962814,f,1.7206087969243526,target,None,,,,,,,,,,,,,,,,student1,2022-10-25_10h56.17.082,Hippopolis_4AFCT,2022.2.2,59.88776297983654,
Camponello,stimuli/subj_files/student1_cityB.csv,./stimuli/leipzig.jpg,./stimuli/street_plate2.png,ASZTAL UTCA,stimuli/scenes/120a.jpg,scene,2,stimuli/objects/035a.jpg,stimuli/scenes/079b.jpg,stimuli/scenes/079a.jpg,stimuli/objects/035b.jpg,stimuli/objects/035a.jpg,dist2,dist1,lure,target,0,0,0,1,0,6,6,24,,,,,,,65.65511723794043,66.70351760648191,66.70351760648191,66.70351760648191,66.70351760648191,66.70351760648191,66.70351760648191,66.70351760648191,66.70351760648191,66.70351760648191,66.70351760648191,66.70351760648191,66.70351760648191,k,1.324544332921505,target,None,,,,,,,,,,,,,,,,student1,2022-10-25_10h56.17.082,Hippopolis_4AFCT,2022.2.2,59.88776297983654,
Camponello,stimuli/subj_files/student1_cityB.csv,./stimuli/leipzig.jpg,./stimuli/street_plate2.png,FÉSZEK UTCA,stimuli/objects/042a.jpg,object,1,stimuli/objects/044a.jpg,stimuli/scenes/020b.jpg,stimuli/objects/044a.jpg,stimuli/scenes/020a.jpg,stimuli/objects/044b.jpg,dist2,target,dist1,lure,0,0,0,1,0,7,7,10,,,,,,,68.05913879908621,69.10974451527,69.10974451527,69.10974451527,69.10974451527,69.10974451527,69.10974451527,69.10974451527,69.10974451527,69.10974451527,69.10974451527,69.10974451527,69.10974451527,f,1.7664576694369316,target,None,69.10974451527,,,,,,,,,,,,,,,student1,2022-10-25_10h56.17.082,Hippopolis_4AFCT,2022.2.2,59.88776297983654,
Camponello,stimuli/subj_files/student1_cityB.csv,./stimuli/leipzig.jpg,./stimuli/street_plate2.png,ZEBRA UTCA,stimuli/scenes/106a.jpg,scene,0,stimuli/scenes/106a.jpg,stimuli/scenes/030a.jpg,stimuli/scenes/106a.jpg,stimuli/scenes/106b.jpg,stimuli/scenes/030b.jpg,dist1,target,lure,dist2,0,0,0,1,0,8,8,12,,,,,,,70.89243315346539,71.91581523604691,71.91581523604691,71.91581523604691,71.91581523604691,71.91581523604691,71.91581523604691,71.91581523604691,71.91581523604691,71.91581523604691,71.91581523604691,71.91581523604691,71.91581523604691,k,2.9756620284169912,dist2,None,,,,,,,,,,,,,,,,student1,2022-10-25_10h56.17.082,Hippopolis_4AFCT,2022.2.2,59.88776297983654,
Camponello,stimuli/subj_files/student1_cityB.csv,./stimuli/leipzig.jpg,./stimuli/street_plate2.png,BÚJÓCSKA UTCA,stimuli/scenes/015a.jpg,scene,1,stimuli/scenes/086a.jpg,stimuli/scenes/105b.jpg,stimuli/scenes/086a.jpg,stimuli/scenes/105a.jpg,stimuli/scenes/086b.jpg,dist2,target,dist1,lure,0,0,0,1,0,9,9,48,,,,,,,74.91357816569507,75.97950654476881,75.97950654476881,75.97950654476881,75.97950654476881,75.97950654476881,75.97950654476881,75.97950654476881,75.97950654476881,75.97950654476881,75.97950654476881,75.97950654476881,75.97950654476881,f,1.9516859240829945,target,None,,,,,,,,,,,,,,,,student1,2022-10-25_10h56.17.082,Hippopolis_4AFCT,2022.2.2,59.88776297983654,
Camponello,stimuli/subj_files/student1_cityB.csv,./stimuli/leipzig.jpg,./stimuli/street_plate2.png,FOLYÓ UTCA,stimuli/scenes/035a.jpg,scene,0,stimuli/scenes/035a.jpg,stimuli/objects/034a.jpg,stimuli/scenes/035a.jpg,stimuli/objects/034b.jpg,stimuli/scenes/035b.jpg,dist1,target,dist2,lure,0,0,0,1,0,10,10,61,,,,,,,77.95912287570536,79.01405220292509,79.01405220292509,79.01405220292509,79.01405220292509,79.01405220292509,79.01405220292509,79.01405220292509,79.01405220292509,79.01405220292509,79.01405220292509,79.01405220292509,79.01405220292509,f,1.4453329965472221,target,None,,,,,,,,,,,,,,,,student1,2022-10-25_10h56.17.082,Hippopolis_4AFCT,2022.2.2,59.88776297983654,
Camponello,stimuli/subj_files/student1_cityB.csv,./stimuli/leipzig.jpg,./stimuli/street_plate2.png,TÁSKA UTCA,stimuli/objects/110a.jpg,object,2,stimuli/scenes/079a.jpg,stimuli/scenes/079a.jpg,stimuli/objects/037b.jpg,stimuli/objects/037a.jpg,stimuli/scenes/079b.jpg,target,dist2,dist1,lure,0,0,0,1,0,11,11,33,,,,,,,80.4781480692327,81.51745585724711,81.51745585724711,81.51745585724711,81.51745585724711,81.51745585724711,81.51745585724711,81.51745585724711,81.51745585724711,81.51745585724711,81.51745585724711,81.51745585724711,81.51745585724711,k,3.742566781118512,lure,None,,84.98257866688073,,,,,,,,,,,,,,student1,2022-10-25_10h56.17.082,Hippopolis_4AFCT,2022.2.2,59.88776297983654,
Camponello,stimuli/subj_files/student1_cityB.csv,./stimuli/leipzig.jpg,./stimuli/street_plate2.png,TÁNYÉR UTCA,stimuli/objects/118a.jpg,object,0,stimuli/objects/118a.jpg,stimuli/objects/102b.jpg,stimuli/objects/102a.jpg,stimuli/objects/118b.jpg,stimuli/objects/118a.jpg,dist2,dist1,lure,target,0,0,0,1,0,12,12,28,,,,,,,85.2758887950331,86.32946213334799,86.32946213334799,86.32946213334799,86.32946213334799,86.32946213334799,86.32946213334799,86.32946213334799,86.32946213334799,86.32946213334799,86.32946213334799,86.32946213334799,86.32946213334799,j,1.810755554586649,lure,None,,,,,,,,,,,,,,,,student1,2022-10-25_10h56.17.082,Hippopolis_4AFCT,2022.2.2,59.88776297983654,
Camponello,stimuli/subj_files/student1_cityB.csv,./stimuli/leipzig.jpg,./stimuli/street_plate2.png,SÜTEMÉNY UTCA,stimuli/objects/074a.jpg,object,2,stimuli/scenes/102a.jpg,stimuli/objects/061b.jpg,stimuli/objects/061a.jpg,stimuli/scenes/102a.jpg,stimuli/scenes/102b.jpg,dist2,dist1,target,lure,0,0,0,1,0,13,13,32,,,,,,,88.16693081520498,89.23008004203439,89.23008004203439,89.23008004203439,89.23008004203439,89.23008004203439,89.23008004203439,89.23008004203439,89.23008004203439,89.23008004203439,89.23008004203439,89.23008004203439,89.23008004203439,f,2.173208935186267,dist1,None,,,,,,,,,,,,,,,,student1,2022-10-25_10h56.17.082,Hippopolis_4AFCT,2022.2.2,59.88776297983654,
Camponello,stimuli/subj_files/student1_cityB.csv,./stimuli/leipzig.jpg,./stimuli/street_plate2.png,KALAPÁCS UTCA,stimuli/scenes/049a.jpg,scene,0,stimuli/scenes/049a.jpg,stimuli/objects/112b.jpg,stimuli/scenes/049a.jpg,stimuli/objects/112a.jpg,stimuli/scenes/049b.jpg,dist2,target,dist1,lure,0,0,0,1,0,14,14,3,,,,,,,91.43353948928416,92.47675787098706,92.47675787098706,92.47675787098706,92.47675787098706,92.47675787098706,92.47675787098706,92.47675787098706,92.47675787098706,92.47675787098706,92.47675787098706,92.47675787098706,92.47675787098706,f,1.710748651996255,target,None,,,,,,,,,,,,,,,,student1,2022-10-25_10h56.17.082,Hippopolis_4AFCT,2022.2.2,59.88776297983654,
Camponello,stimuli/subj_files/student1_cityB.csv,./stimuli/leipzig.jpg,./stimuli/street_plate2.png,ÁLLOMÁS UTCA,stimuli/scenes/069a.jpg,scene,0,stimuli/scenes/069a.jpg,stimuli/scenes/106a.jpg,stimuli/scenes/106b.jpg,stimuli/scenes/069b.jpg,stimuli/scenes/069a.jpg,dist1,dist2,lure,target,0,0,0,1,0,15,15,42,,,,,,,94.21974592097104,95.24881724268198,95.24881724268198,95.24881724268198,95.24881724268198,95.24881724268198,95.24881724268198,95.24881724268198,95.24881724268198,95.24881724268198,95.24881724268198,95.24881724268198,95.24881724268198,k,2.1710259821265936,target,None,,,,,,,,,,,,,,,,student1,2022-10-25_10h56.17.082,Hippopolis_4AFCT,2022.2.2,59.88776297983654,
Camponello,stimuli/subj_files/student1_cityB.csv,./stimuli/leipzig.jpg,./stimuli/street_plate2.png,TIGRIS UTCA,stimuli/scenes/021a.jpg,scene,0,stimuli/scenes/021a.jpg,stimuli/scenes/022b.jpg,stimuli/scenes/021a.jpg,stimuli/scenes/021b.jpg,stimuli/scenes/022a.jpg,dist2,target,lure,dist1,0,0,0,1,0,16,16,68,,,,,,,97.45415268279612,98.49508765526116,98.49508765526116,98.49508765526116,98.49508765526116,98.49508765526116,98.49508765526116,98.49508765526116,98.49508765526116,98.49508765526116,98.49508765526116,98.49508765526116,98.49508765526116,k,1.8204129245132208,dist1,None,,,,,,,,,,,,,,,,student1,2022-10-25_10h56.17.082,Hippopolis_4AFCT,2022.2.2,59.88776297983654,
Camponello,stimuli/subj_files/student1_cityB.csv,./stimuli/leipzig.jpg,./stimuli/street_plate2.png,TOLMÁCS UTCA,stimuli/scenes/082a.jpg,scene,0,stimuli/scenes/082a.jpg,stimuli/scenes/082b.jpg,stimuli/objects/081b.jpg,stimuli/objects/081a.jpg,stimuli/scenes/082a.jpg,lure,dist2,dist1,target,0,0,0,1,0,17,17,2,,,,,,,100.34223018959165,101.39547790586948,101.39547790586948,101.39547790586948,101.39547790586948,101.39547790586948,101.39547790586948,101.39547790586948,101.39547790586948,101.39547790586948,101.39547790586948,101.39547790586948,101.39547790586948,k,2.4075976591557264,target,None,,,,,,,,,,,,,,,,student1,2022-10-25_10h56.17.082,Hippopolis_4AFCT,2022.2.2,59.88776297983654,
Camponello,stimuli/subj_files/student1_cityB.csv,./stimuli/leipzig.jpg,./stimuli/street_plate2.png,KUTYA UTCA,stimuli/scenes/030a.jpg,scene,0,stimuli/scenes/030a.jpg,stimuli/scenes/030b.jpg,stimuli/scenes/052b.jpg,stimuli/scenes/052a.jpg,stimuli/scenes/030a.jpg,lure,dist2,dist1,target,0,0,0,1,0,18,18,35,,,,,,,103.82559943385422,104.87874731607735,104.87874731607735,104.87874731607735,104.87874731607735,104.87874731607735,104.87874731607735,104.87874731607735,104.87874731607735,104.87874731607735,104.87874731607735,104.87874731607735,104.87874731607735,k,1.500074164941907,target,None,,,,,,,,,,,,,,,,student1,2022-10-25_10h56.17.082,Hippopolis_4AFCT,2022.2.2,59.88776297983654,
Camponello,stimuli/subj_files/student1_cityB.csv,./stimuli/leipzig.jpg,./stimuli/street_plate2.png,HORGONY UTCA,stimuli/objects/039a.jpg,object,0,stimuli/objects/039a.jpg,stimuli/objects/039b.jpg,stimuli/objects/039a.jpg,stimuli/objects/092b.jpg,stimuli/objects/092a.jpg,lure,target,dist2,dist1,0,0,0,1,0,19,19,26,,,,,,,106.40878866799176,107.4515610653907,107.4515610653907,107.4515610653907,107.4515610653907,107.4515610653907,107.4515610653907,107.4515610653907,107.4515610653907,107.4515610653907,107.4515610653907,107.4515610653907,107.4515610653907,f,2.287961585447192,target,None,,,,,,,,,,,,,,,,student1,2022-10-25_10h56.17.082,Hippopolis_4AFCT,2022.2.2,59.88776297983654,
Camponello,stimuli/subj_files/student1_cityB.csv,./stimuli/leipzig.jpg,./stimuli/street_plate2.png,SZAPPAN UTCA,stimuli/objects/023a.jpg,object,1,stimuli/objects/087a.jpg,stimuli/scenes/012b.jpg,stimuli/objects/087b.jpg,stimuli/objects/087a.jpg,stimuli/scenes/012a.jpg,dist2,lure,target,dist1,0,0,0,1,0,20,20,7,,,,,,,109.76679869927466,110.81850164569914,110.81850164569914,110.81850164569914,110.81850164569914,110.81850164569914,110.81850164569914,110.81850164569914,110.81850164569914,110.81850164569914,110.81850164569914,110.81850164569914,110.81850164569914,f,2.0404972210526466,lure,None,110.81850164569914,,,,,,,,,,,,,,,student1,2022-10-25_10h56.17.082,Hippopolis_4AFCT,2022.2.2,59.88776297983654,
Camponello,stimuli/subj_files/student1_cityB.csv,./stimuli/leipzig.jpg,./stimuli/street_plate2.png,LABDA UTCA,stimuli/objects/082a.jpg,object,0,stimuli/objects/082a.jpg,stimuli/scenes/049a.jpg,stimuli/scenes/049b.jpg,stimuli/objects/082b.jpg,stimuli/objects/082a.jpg,dist1,dist2,lure,target,0,0,0,1,0,21,21,72,,,,,,,112.87526342272758,113.94565971940756,113.94565971940756,113.94565971940756,113.94565971940756,113.94565971940756,113.94565971940756,113.94565971940756,113.94565971940756,113.94565971940756,113.94565971940756,113.94565971940756,113.94565971940756,k,1.985811723396182,target,None,,,,,,,,,,,,,,,,student1,2022-10-25_10h56.17.082,Hippopolis_4AFCT,2022.2.2,59.88776297983654,
Camponello,stimuli/subj_files/student1_cityB.csv,./stimuli/leipzig.jpg,./stimuli/street_plate2.png,TORONY UTCA,stimuli/scenes/094a.jpg,scene,2,stimuli/objects/054a.jpg,stimuli/scenes/001a.jpg,stimuli/scenes/001b.jpg,stimuli/objects/054b.jpg,stimuli/objects/054a.jpg,dist1,dist2,lure,target,0,0,0,1,0,22,22,62,,,,,,,115.96333172544837,117.08305954374373,117.08305954374373,117.08305954374373,117.08305954374373,117.08305954374373,117.08305954374373,117.08305954374373,117.08305954374373,117.08305954374373,117.08305954374373,117.08305954374373,117.08305954374373,k,2.7197808995842934,target,None,,,,,,,,,,,,,,,,student1,2022-10-25_10h56.17.082,Hippopolis_4AFCT,2022.2.2,59.88776297983654,
Camponello,stimuli/subj_files/student1_cityB.csv,./stimuli/leipzig.jpg,./stimuli/street_plate2.png,SZŐNYEG UTCA,stimuli/objects/040a.jpg,object,0,stimuli/objects/040a.jpg,stimuli/objects/040a.jpg,stimuli/objects/040b.jpg,stimuli/objects/019b.jpg,stimuli/objects/019a.jpg,target,lure,dist2,dist1,0,0,0,1,0,23,23,29,,,,,,,119.82525048591197,120.89626506343484,120.89626506343484,120.89626506343484,120.89626506343484,120.89626506343484,120.89626506343484,120.89626506343484,120.89626506343484,120.89626506343484,120.89626506343484,120.89626506343484,120.89626506343484,d,3.515139624476433,target,None,,124.3261368535459,,,,,,,,,,,,,,student1,2022-10-25_10h56.17.082,Hippopolis_4AFCT,2022.2.2,59.88776297983654,
Camponello,stimuli/subj_files/student1_cityB.csv,./stimuli/leipzig.jpg,./stimuli/street_plate2.png,SZOBOR UTCA,stimuli/objects/031a.jpg,object,1,stimuli/objects/010a.jpg,stimuli/objects/010a.jpg,stimuli/objects/044b.jpg,stimuli/objects/044a.jpg,stimuli/objects/010b.jpg,target,dist2,dist1,lure,0,0,0,1,0,24,24,79,,,,,,,124.45124539546669,125.52704947069287,125.52704947069287,125.52704947069287,125.52704947069287,125.52704947069287,125.52704947069287,125.52704947069287,125.52704947069287,125.52704947069287,125.52704947069287,125.52704947069287,125.52704947069287,d,3.2199454214423895,target,None,,,,,,,,,,,,,,,,student1,2022-10-25_10h56.17.082,Hippopolis_4AFCT,2022.2.2,59.88776297983654,
Camponello,stimuli/subj_files/student1_cityB.csv,./stimuli/leipzig.jpg,./stimuli/street_plate2.png,TENISZ UTCA,stimuli/objects/102a.jpg,object,0,stimuli/objects/102a.jpg,stimuli/objects/102b.jpg,stimuli/objects/102a.jpg,stimuli/scenes/038a.jpg,stimuli/scenes/038b.jpg,lure,target,dist1,dist2,0,0,0,1,0,25,25,75,,,,,,,128.7773567456752,129.8171708509326,129.8171708509326,129.8171708509326,129.8171708509326,129.8171708509326,129.8171708509326,129.8171708509326,129.8171708509326,129.8171708509326,129.8171708509326,129.8171708509326,129.8171708509326,f,1.8738369811326265,target,None,,,,,,,,,,,,,,,,student1,2022-10-25_10h56.17.082,Hippopolis_4AFCT,2022.2.2,59.88776297983654,
Camponello,stimuli/subj_files/student1_cityB.csv,./stimuli/leipzig.jpg,./stimuli/street_plate2.png,FÉSŰ UTCA,stimuli/objects/084a.jpg,object,0,stimuli/objects/084a.jpg,stimuli/objects/118b.jpg,stimuli/objects/118a.jpg,stimuli/objects/084a.jpg,stimuli/objects/084b.jpg,dist2,dist1,target,lure,0,0,0,1,0,26,26,23,,,,,,,131.70858981087804,132.7656532637775,132.7656532637775,132.7656532637775,132.7656532637775,132.7656532637775,132.7656532637775,132.7656532637775,132.7656532637775,132.7656532637775,132.7656532637775,132.7656532637775,132.7656532637775,j,1.853012615814805,target,None,132.7656532637775,,,,,,,,,,,,,,,student1,2022-10-25_10h56.17.082,Hippopolis_4AFCT,2022.2.2,59.88776297983654,
Camponello,stimuli/subj_files/student1_cityB.csv,./stimuli/leipzig.jpg,./stimuli/street_plate2.png,SIRÁLY UTCA,stimuli/objects/081a.jpg,object,0,stimuli/objects/081a.jpg,stimuli/objects/081a.jpg,stimuli/objects/081b.jpg,stimuli/scenes/019a.jpg,stimuli/scenes/019b.jpg,target,lure,dist1,dist2,0,0,0,1,0,27,27,50,,,,,,,134.64178750291467,135.6990786138922,135.6990786138922,135.6990786138922,135.6990786138922,135.6990786138922,135.6990786138922,135.6990786138922,135.6990786138922,135.6990786138922,135.6990786138922,135.6990786138922,135.6990786138922,d,1.3514205738902092,target,None,,,,,,,,,,,,,,,,student1,2022-10-25_10h56.17.082,Hippopolis_4AFCT,2022.2.2,59.88776297983654,
Camponello,stimuli/subj_files/student1_cityB.csv,./stimuli/leipzig.jpg,./stimuli/street_plate2.png,TISZTÁS UTCA,stimuli/objects/116a.jpg,object,0,stimuli/objects/116a.jpg,stimuli/objects/058a.jpg,stimuli/objects/116a.jpg,stimuli/objects/116b.jpg,stimuli/objects/058b.jpg,dist1,target,lure,dist2,0,0,0,1,0,28,28,18,,,,,,,137.07969632185996,138.1619730629027,138.1619730629027,138.1619730629027,138.1619730629027,138.1619730629027,138.1619730629027,138.1619730629027,138.1619730629027,138.1619730629027,138.1619730629027,138.1619730629027,138.1619730629027,f,2.3767169006168842,target,None,,,,,,,,,,,,,,,,student1,2022-10-25_10h56.17.082,Hippopolis_4AFCT,2022.2.2,59.88776297983654,
Camponello,stimuli/subj_files/student1_cityB.csv,./stimuli/leipzig.jpg,./stimuli/street_plate2.png,KÍGYÓ UTCA,stimuli/scenes/032a.jpg,scene,0,stimuli/scenes/032a.jpg,stimuli/scenes/032a.jpg,stimuli/objects/088a.jpg,stimuli/scenes/032b.jpg,stimuli/objects/088b.jpg,target,dist1,lure,dist2,0,0,0,1,0,29,29,76,,,,,,,140.55851336568594,141.62795020639896,141.62795020639896,141.62795020639896,141.62795020639896,141.62795020639896,141.62795020639896,141.62795020639896,141.62795020639896,141.62795020639896,141.62795020639896,141.62795020639896,141.62795020639896,k,2.094822883605957,dist2,None,,,,,,,,,,,,,,,,student1,2022-10-25_10h56.17.082,Hippopolis_4AFCT,2022.2.2,59.88776297983654,
Camponello,stimuli/subj_files/student1_cityB.csv,./stimuli/leipzig.jpg,./stimuli/street_plate2.png,MOSODA UTCA,stimuli/objects/052a.jpg,object,0,stimuli/objects/052a.jpg,stimuli/objects/052b.jpg,stimuli/scenes/035a.jpg,stimuli/objects/052a.jpg,stimuli/scenes/035b.jpg,lure,dist1,target,dist2,0,0,0,1,0,30,30,51,,,,,,,143.75092897750437,144.79994607158005,144.79994607158005,144.79994607158005,144.79994607158005,144.79994607158005,144.79994607158005,144.79994607158005,144.79994607158005,144.79994607158005,144.79994607158005,144.79994607158005,144.79994607158005,j,1.9463854432106018,target,None,,,,,,,,,,,,,,,,student1,2022-10-25_10h56.17.082,Hippopolis_4AFCT,2022.2.2,59.88776297983654,
Camponello,stimuli/subj_files/student1_cityB.csv,./stimuli/leipzig.jpg,./stimuli/street_plate2.png,KÁRTYA UTCA,stimuli/scenes/076a.jpg,scene,0,stimuli/scenes/076a.jpg,stimuli/objects/008a.jpg,stimuli/scenes/076b.jpg,stimuli/scenes/076a.jpg,stimuli/objects/008b.jpg,dist1,lure,target,dist2,0,0,0,1,0,31,31,64,,,,,,,146.77736576460302,147.83879605680704,147.83879605680704,147.83879605680704,147.83879605680704,147.83879605680704,147.83879605680704,147.83879605680704,147.83879605680704,147.83879605680704,147.83879605680704,147.83879605680704,147.83879605680704,j,1.8840417228639126,target,None,,,,,,,,,,,,,,,,student1,2022-10-25_10h56.17.082,Hippopolis_4AFCT,2022.2.2,59.88776297983654,
Camponello,stimuli/subj_files/student1_cityB.csv,./stimuli/leipzig.jpg,./stimuli/street_plate2.png,LEVÉL UTCA,stimuli/scenes/019a.jpg,scene,0,stimuli/scenes/019a.jpg,stimuli/objects/052a.jpg,stimuli/scenes/019a.jpg,stimuli/scenes/019b.jpg,stimuli/objects/052b.jpg,dist1,target,lure,dist2,0,0,0,1,0,32,32,8,,,,,,,149.74171976558864,150.79708263650537,150.79708263650537,150.79708263650537,150.79708263650537,150.79708263650537,150.79708263650537,150.79708263650537,150.79708263650537,150.79708263650537,150.79708263650537,150.79708263650537,150.79708263650537,j,2.269837688654661,lure,None,,,,,,,,,,,,,,,,student1,2022-10-25_10h56.17.082,Hippopolis_4AFCT,2022.2.2,59.88776297983654,
Camponello,stimuli/subj_files/student1_cityB.csv,./stimuli/leipzig.jpg,./stimuli/street_plate2.png,SZAXOFON UTCA,stimuli/objects/117a.jpg,object,0,stimuli/objects/117a.jpg,stimuli/scenes/021a.jpg,stimuli/objects/117a.jpg,stimuli/objects/117b.jpg,stimuli/scenes/021b.jpg,dist1,target,lure,dist2,0,0,0,1,0,33,33,20,,,,,,,153.09188341721892,154.13146893307567,154.13146893307567,154.13146893307567,154.13146893307567,154.13146893307567,154.13146893307567,154.13146893307567,154.13146893307567,154.13146893307567,154.13146893307567,154.13146893307567,154.13146893307567,f,2.1828184090554714,target,None,,,,,,,,,,,,,,,,student1,2022-10-25_10h56.17.082,Hippopolis_4AFCT,2022.2.2,59.88776297983654,
Camponello,stimuli/subj_files/student1_cityB.csv,./stimuli/leipzig.jpg,./stimuli/street_plate2.png,TÉRKÉP UTCA,stimuli/scenes/013a.jpg,scene,0,stimuli/scenes/013a.jpg,stimuli/scenes/006b.jpg,stimuli/scenes/006a.jpg,stimuli/scenes/013a.jpg,stimuli/scenes/013b.jpg,dist2,dist1,target,lure,0,0,0,1,0,34,34,63,,,,,,,156.34165296144783,157.37829262576997,157.37829262576997,157.37829262576997,157.37829262576997,157.37829262576997,157.37829262576997,157.37829262576997,157.37829262576997,157.37829262576997,157.37829262576997,157.37829262576997,157.37829262576997,j,1.8002292327582836,target,None,,,,,,,,,,,,,,,,student1,2022-10-25_10h56.17.082,Hippopolis_4AFCT,2022.2.2,59.88776297983654,
Camponello,stimuli/subj_files/student1_cityB.csv,./stimuli/leipzig.jpg,./stimuli/street_plate2.png,REPÜLŐ UTCA,stimuli/scenes/098a.jpg,scene,0,stimuli/scenes/098a.jpg,stimuli/scenes/013a.jpg,stimuli/scenes/013b.jpg,stimuli/scenes/098a.jpg,stimuli/scenes/098b.jpg,dist1,dist2,target,lure,0,0,0,1,0,35,35,66,,,,,,,159.1958540994674,160.2202099431306,160.2202099431306,160.2202099431306,160.2202099431306,160.2202099431306,160.2202099431306,160.2202099431306,160.2202099431306,160.2202099431306,160.2202099431306,160.2202099431306,160.2202099431306,j,2.6228115931153297,target,None,,,,,,,,,,,,,,,,student1,2022-10-25_10h56.17.082,Hippopolis_4AFCT,2022.2.2,59.88776297983654,
Camponello,stimuli/subj_files/student1_cityB.csv,./stimuli/leipzig.jpg,./stimuli/street_plate2.png,BOHÓC UTCA,stimuli/objects/064a.jpg,object,0,stimuli/objects/064a.jpg,stimuli/objects/040b.jpg,stimuli/objects/040a.jpg,stimuli/objects/064a.jpg,stimuli/objects/064b.jpg,dist2,dist1,target,lure,0,0,0,1,0,36,36,17,,,,,,,162.861878329888,163.91888891160488,163.91888891160488,163.91888891160488,163.91888891160488,163.91888891160488,163.91888891160488,163.91888891160488,163.91888891160488,163.91888891160488,163.91888891160488,163.91888891160488,163.91888891160488,j,1.6756167467683554,target,None,163.91888891160488,,,,,,,,,,,,,,,student1,2022-10-25_10h56.17.082,Hippopolis_4AFCT,2022.2.2,59.88776297983654,
Camponello,stimuli/subj_files/student1_cityB.csv,./stimuli/leipzig.jpg,./stimuli/street_plate2.png,RIBIZLI UTCA,stimuli/objects/088a.jpg,object,0,stimuli/objects/088a.jpg,stimuli/objects/088b.jpg,stimuli/objects/065a.jpg,stimuli/objects/088a.jpg,stimuli/objects/065b.jpg,lure,dist1,target,dist2,0,0,0,1,0,37,37,34,,,,,,,165.633709423244,166.6667059585452,166.6667059585452,166.6667059585452,166.6667059585452,166.6667059585452,166.6667059585452,166.6667059585452,166.6667059585452,166.6667059585452,166.6667059585452,166.6667059585452,166.6667059585452,j,2.079427445307374,target,None,166.6667059585452,,,,,,,,,,,,,,,student1,2022-10-25_10h56.17.082,Hippopolis_4AFCT,2022.2.2,59.88776297983654,
Camponello,stimuli/subj_files/student1_cityB.csv,./stimuli/leipzig.jpg,./stimuli/street_plate2.png,KOSÁR UTCA,stimuli/objects/057a.jpg,object,2,stimuli/scenes/001a.jpg,stimuli/scenes/001a.jpg,stimuli/scenes/001b.jpg,stimuli/objects/005b.jpg,stimuli/objects/005a.jpg,target,lure,dist2,dist1,0,0,0,1,0,38,38,38,,,,,,,168.7749134786427,169.81455279886723,169.81455279886723,169.81455279886723,169.81455279886723,169.81455279886723,169.81455279886723,169.81455279886723,169.81455279886723,169.81455279886723,169.81455279886723,169.81455279886723,169.81455279886723,d,2.3243816774338484,target,None,,,,,,,,,,,,,,,,student1,2022-10-25_10h56.17.082,Hippopolis_4AFCT,2022.2.2,59.88776297983654,
Camponello,stimuli/subj_files/student1_cityB.csv,./stimuli/leipzig.jpg,./stimuli/street_plate2.png,SALÁTA UTCA,stimuli/objects/008a.jpg,object,0,stimuli/objects/008a.jpg,stimuli/scenes/099b.jpg,stimuli/objects/008b.jpg,stimuli/objects/008a.jpg,stimuli/scenes/099a.jpg,dist2,lure,target,dist1,0,0,0,1,0,39,39,73,,,,,,,172.17391197569668,173.23079815506935,173.23079815506935,173.23079815506935,173.23079815506935,173.23079815506935,173.23079815506935,173.23079815506935,173.23079815506935,173.23079815506935,173.23079815506935,173.23079815506935,173.23079815506935,j,1.2919794768095016,target,None,,,,,,,,,,,,,,,,student1,2022-10-25_10h56.17.082,Hippopolis_4AFCT,2022.2.2,59.88776297983654,
Camponello,stimuli/subj_files/student1_cityB.csv,./stimuli/leipzig.jpg,./stimuli/street_plate2.png,FEJSZE UTCA,stimuli/objects/065a.jpg,object,0,stimuli/objects/065a.jpg,stimuli/scenes/075b.jpg,stimuli/objects/065b.jpg,stimuli/objects/065a.jpg,stimuli/scenes/075a.jpg,dist2,lure,target,dist1,0,0,0,1,0,40,40,9,,,,,,,174.54140583612025,175.59035388939083,175.59035388939083,175.59035388939083,175.59035388939083,175.59035388939083,175.59035388939083,175.59035388939083,175.59035388939083,175.59035388939083,175.59035388939083,175.59035388939083,175.59035388939083,j,1.7798710651695728,target,None,,,,,,,,,,,,,,,,student1,2022-10-25_10h56.17.082,Hippopolis_4AFCT,2022.2.2,59.88776297983654,
Camponello,stimuli/subj_files/student1_cityB.csv,./stimuli/leipzig.jpg,./stimuli/street_plate2.png,TULIPÁN UTCA,stimuli/objects/058a.jpg,object,0,stimuli/objects/058a.jpg,stimuli/objects/117a.jpg,stimuli/objects/117b.jpg,stimuli/objects/058b.jpg,stimuli/objects/058a.jpg,dist1,dist2,lure,target,0,0,0,1,0,41,41,1,,,,,,,177.392040040344,178.44810423068702,178.44810423068702,178.44810423068702,178.44810423068702,178.44810423068702,178.44810423068702,178.44810423068702,178.44810423068702,178.44810423068702,178.44810423068702,178.44810423068702,178.44810423068702,k,1.3224453534930944,target,None,,,,,,,,,,,,,,,,student1,2022-10-25_10h56.17.082,Hippopolis_4AFCT,2022.2.2,59.88776297983654,
Camponello,stimuli/subj_files/student1_cityB.csv,./stimuli/leipzig.jpg,./stimuli/street_plate2.png,SZILVA UTCA,stimuli/objects/105a.jpg,object,0,stimuli/objects/105a.jpg,stimuli/objects/049b.jpg,stimuli/objects/105b.jpg,stimuli/objects/049a.jpg,stimuli/objects/105a.jpg,dist2,lure,dist1,target,0,0,0,1,0,42,42,36,,,,,,,179.80430980212986,180.87171701714396,180.87171701714396,180.87171701714396,180.87171701714396,180.87171701714396,180.87171701714396,180.87171701714396,180.87171701714396,180.87171701714396,180.87171701714396,180.87171701714396,180.87171701714396,k,2.162467395886779,target,None,180.87171701714396,,,,,,,,,,,,,,,student1,2022-10-25_10h56.17.082,Hippopolis_4AFCT,2022.2.2,59.88776297983654,
Camponello,stimuli/subj_files/student1_cityB.csv,./stimuli/leipzig.jpg,./stimuli/street_plate2.png,TELEFON UTCA,stimuli/scenes/017a.jpg,scene,0,stimuli/scenes/017a.jpg,stimuli/objects/094b.jpg,stimuli/scenes/017b.jpg,stimuli/scenes/017a.jpg,stimuli/objects/094a.jpg,dist2,lure,target,dist1,0,0,0,1,0,43,43,27,,,,,,,183.05566547997296,184.12428779527545,184.12428779527545,184.12428779527545,184.12428779527545,184.12428779527545,184.12428779527545,184.12428779527545,184.12428779527545,184.12428779527545,184.12428779527545,184.12428779527545,184.12428779527545,j,3.5655646454542875,target,None,,187.54190438054502,,,,,,,,,,,,,,student1,2022-10-25_10h56.17.082,Hippopolis_4AFCT,2022.2.2,59.88776297983654,
Camponello,stimuli/subj_files/student1_cityB.csv,./stimuli/leipzig.jpg,./stimuli/street_plate2.png,PALACK UTCA,stimuli/scenes/033a.jpg,scene,1,stimuli/scenes/107a.jpg,stimuli/objects/119b.jpg,stimuli/scenes/107b.jpg,stimuli/objects/119a.jpg,stimuli/scenes/107a.jpg,dist2,lure,dist1,target,0,0,0,1,0,44,44,44,,,,,,,187.70776191167533,188.75035765767097,188.75035765767097,188.75035765767097,188.75035765767097,188.75035765767097,188.75035765767097,188.75035765767097,188.75035765767097,188.75035765767097,188.75035765767097,188.75035765767097,188.75035765767097,k,2.87645130045712,target,space,,,191.64191532693803,191.64191532693803,18.800381936132908,,,,,,,,,,,student1,2022-10-25_10h56.17.082,Hippopolis_4AFCT,2022.2.2,59.88776297983654,
Camponello,stimuli/subj_files/student1_cityB.csv,./stimuli/leipzig.jpg,./stimuli/street_plate2.png,ZONGORA UTCA,stimuli/objects/034a.jpg,object,0,stimuli/objects/034a.jpg,stimuli/objects/034a.jpg,stimuli/objects/034b.jpg,stimuli/objects/016b.jpg,stimuli/objects/016a.jpg,target,lure,dist2,dist1,0,0,0,1,0,45,45,31,,,,,,,210.47166451998055,211.52160188183188,211.52160188183188,211.52160188183188,211.52160188183188,211.52160188183188,211.52160188183188,211.52160188183188,211.52160188183188,211.52160188183188,211.52160188183188,211.52160188183188,211.52160188183188,d,1.9124241657555103,target,None,,,,,,,,,,,,,,,,student1,2022-10-25_10h56.17.082,Hippopolis_4AFCT,2022.2.2,59.88776297983654,
Camponello,stimuli/subj_files/student1_cityB.csv,./stimuli/leipzig.jpg,./stimuli/street_plate2.png,KATONA UTCA,stimuli/objects/077a.jpg,object,0,stimuli/objects/077a.jpg,stimuli/objects/077a.jpg,stimuli/scenes/115a.jpg,stimuli/scenes/115b.jpg,stimuli/objects/077b.jpg,target,dist1,dist2,lure,0,0,0,1,0,46,46,74,,,,,,,213.4577665757388,214.5366863142699,214.5366863142699,214.5366863142699,214.5366863142699,214.5366863142699,214.5366863142699,214.5366863142699,214.5366863142699,214.5366863142699,214.5366863142699,214.5366863142699,214.5366863142699,d,1.2977928090840578,target,None,,,,,,,,,,,,,,,,student1,2022-10-25_10h56.17.082,Hippopolis_4AFCT,2022.2.2,59.88776297983654,
Camponello,stimuli/subj_files/student1_cityB.csv,./stimuli/leipzig.jpg,./stimuli/street_plate2.png,HENTES UTCA,stimuli/scenes/092a.jpg,scene,0,stimuli/scenes/092a.jpg,stimuli/scenes/114b.jpg,stimuli/scenes/114a.jpg,stimuli/scenes/092a.jpg,stimuli/scenes/092b.jpg,dist2,dist1,target,lure,0,0,0,1,0,47,47,46,,,,,,,215.85935855656862,216.93423085659742,216.93423085659742,216.93423085659742,216.93423085659742,216.93423085659742,216.93423085659742,216.93423085659742,216.93423085659742,216.93423085659742,216.93423085659742,216.93423085659742,216.93423085659742,j,1.6037235762923956,target,None,,,,,,,,,,,,,,,,student1,2022-10-25_10h56.17.082,Hippopolis_4AFCT,2022.2.2,59.88776297983654,
Camponello,stimuli/subj_files/student1_cityB.csv,./stimuli/leipzig.jpg,./stimuli/street_plate2.png,KESELYŰ UTCA,stimuli/objects/003a.jpg,object,2,stimuli/scenes/100a.jpg,stimuli/objects/029a.jpg,stimuli/scenes/100b.jpg,stimuli/objects/029b.jpg,stimuli/scenes/100a.jpg,dist1,lure,dist2,target,0,0,0,1,0,48,48,6,,,,,,,218.55944296345115,219.61403702571988,219.61403702571988,219.61403702571988,219.61403702571988,219.61403702571988,219.61403702571988,219.61403702571988,219.61403702571988,219.61403702571988,219.61403702571988,219.61403702571988,219.61403702571988,j,1.755940055474639,dist2,None,,,,,,,,,,,,,,,,student1,2022-10-25_10h56.17.082,Hippopolis_4AFCT,2022.2.2,59.88776297983654,
Camponello,stimuli/subj_files/student1_cityB.csv,./stimuli/leipzig.jpg,./stimuli/street_plate2.png,KÓKUSZ UTCA,stimuli/scenes/052a.jpg,scene,0,stimuli/scenes/052a.jpg,stimuli/scenes/052a.jpg,stimuli/objects/077b.jpg,stimuli/objects/077a.jpg,stimuli/scenes/052b.jpg,target,dist2,dist1,lure,0,0,0,1,0,49,49,19,,,,,,,221.39210473001003,222.43208087049425,222.43208087049425,222.43208087049425,222.43208087049425,222.43208087049425,222.43208087049425,222.43208087049425,222.43208087049425,222.43208087049425,222.43208087049425,222.43208087049425,222.43208087049425,d,1.9454993847757578,target,None,,,,,,,,,,,,,,,,student1,2022-10-25_10h56.17.082,Hippopolis_4AFCT,2022.2.2,59.88776297983654,
Camponello,stimuli/subj_files/student1_cityB.csv,./stimuli/leipzig.jpg,./stimuli/street_plate2.png,PAPRIKA UTCA,stimuli/objects/033a.jpg,object,0,stimuli/objects/033a.jpg,stimuli/scenes/023a.jpg,stimuli/objects/033b.jpg,stimuli/scenes/023b.jpg,stimuli/objects/033a.jpg,dist1,lure,dist2,target,0,0,0,1,0,50,50,30,,,,,,,224.40555357933044,225.45445933379233,225.45445933379233,225.45445933379233,225.45445933379233,225.45445933379233,225.45445933379233,225.45445933379233,225.45445933379233,225.45445933379233,225.45445933379233,225.45445933379233,225.45445933379233,k,1.947810161858797,target,None,,,,,,,,,,,,,,,,student1,2022-10-25_10h56.17.082,Hippopolis_4AFCT,2022.2.2,59.88776297983654,
Camponello,stimuli/subj_files/student1_cityB.csv,./stimuli/leipzig.jpg,./stimuli/street_plate2.png,MAJOM UTCA,stimuli/objects/018a.jpg,object,0,stimuli/objects/018a.jpg,stimuli/objects/018a.jpg,stimuli/scenes/092b.jpg,stimuli/objects/018b.jpg,stimuli/scenes/092a.jpg,target,dist2,lure,dist1,0,0,0,1,0,51,51,78,,,,,,,227.43115158192813,228.48829434253275,228.48829434253275,228.48829434253275,228.48829434253275,228.48829434253275,228.48829434253275,228.48829434253275,228.48829434253275,228.48829434253275,228.48829434253275,228.48829434253275,228.48829434253275,d,1.4897851403802633,target,None,,,,,,,,,,,,,,,,student1,2022-10-25_10h56.17.082,Hippopolis_4AFCT,2022.2.2,59.88776297983654,
Camponello,stimuli/subj_files/student1_cityB.csv,./stimuli/leipzig.jpg,./stimuli/street_plate2.png,BETON UTCA,stimuli/objects/104a.jpg,object,2,stimuli/scenes/063a.jpg,stimuli/scenes/063b.jpg,stimuli/scenes/063a.jpg,stimuli/objects/054a.jpg,stimuli/objects/054b.jpg,lure,target,dist1,dist2,0,0,0,1,0,52,52,52,,,,,,,230.00946423597634,231.06555890478194,231.06555890478194,231.06555890478194,231.06555890478194,231.06555890478194,231.06555890478194,231.06555890478194,231.06555890478194,231.06555890478194,231.06555890478194,231.06555890478194,231.06555890478194,f,1.72831304743886,target,None,,,,,,,,,,,,,,,,student1,2022-10-25_10h56.17.082,Hippopolis_4AFCT,2022.2.2,59.88776297983654,
Camponello,stimuli/subj_files/student1_cityB.csv,./stimuli/leipzig.jpg,./stimuli/street_plate2.png,KANÁL UTCA,stimuli/scenes/057a.jpg,scene,1,stimuli/scenes/020a.jpg,stimuli/scenes/020b.jpg,stimuli/scenes/020a.jpg,stimuli/scenes/062a.jpg,stimuli/scenes/062b.jpg,lure,target,dist1,dist2,0,0,0,1,0,53,53,14,,,,,,,232.82391004823148,233.86266175471246,233.86266175471246,233.86266175471246,233.86266175471246,233.86266175471246,233.86266175471246,233.86266175471246,233.86266175471246,233.86266175471246,233.86266175471246,233.86266175471246,233.86266175471246,j,2.051531106233597,dist1,None,,,,,,,,,,,,,,,,student1,2022-10-25_10h56.17.082,Hippopolis_4AFCT,2022.2.2,59.88776297983654,
Camponello,stimuli/subj_files/student1_cityB.csv,./stimuli/leipzig.jpg,./stimuli/street_plate2.png,LÉPCSŐ UTCA,stimuli/objects/049a.jpg,object,0,stimuli/objects/049a.jpg,stimuli/scenes/076b.jpg,stimuli/scenes/076a.jpg,stimuli/objects/049b.jpg,stimuli/objects/049a.jpg,dist2,dist1,lure,target,0,0,0,1,0,54,54,43,,,,,,,235.9407184496522,236.98911913111806,236.98911913111806,236.98911913111806,236.98911913111806,236.98911913111806,236.98911913111806,236.98911913111806,236.98911913111806,236.98911913111806,236.98911913111806,236.98911913111806,236.98911913111806,k,2.780399775132537,target,None,,,,,,,,,,,,,,,,student1,2022-10-25_10h56.17.082,Hippopolis_4AFCT,2022.2.2,59.88776297983654,
Camponello,stimuli/subj_files/student1_cityB.csv,./stimuli/leipzig.jpg,./stimuli/street_plate2.png,LEMEZ UTCA,stimuli/scenes/022a.jpg,scene,0,stimuli/scenes/022a.jpg,stimuli/scenes/077b.jpg,stimuli/scenes/022a.jpg,stimuli/scenes/022b.jpg,stimuli/scenes/077a.jpg,dist2,target,lure,dist1,0,0,0,1,0,55,55,13,,,,,,,239.79072442092001,240.81250544264913,240.81250544264913,240.81250544264913,240.81250544264913,240.81250544264913,240.81250544264913,240.81250544264913,240.81250544264913,240.81250544264913,240.81250544264913,240.81250544264913,240.81250544264913,d,3.165086381137371,dist2,None,240.81250544264913,,,,,,,,,,,,,,,student1,2022-10-25_10h56.17.082,Hippopolis_4AFCT,2022.2.2,59.88776297983654,
Camponello,stimuli/subj_files/student1_cityB.csv,./stimuli/leipzig.jpg,./stimuli/street_plate2.png,ORVOS UTCA,stimuli/objects/016a.jpg,object,0,stimuli/objects/016a.jpg,stimuli/scenes/089a.jpg,stimuli/scenes/089b.jpg,stimuli/objects/016a.jpg,stimuli/objects/016b.jpg,dist1,dist2,target,lure,0,0,0,1,0,56,56,4,,,,,,,244.00735156983137,245.05549318157136,245.05549318157136,245.05549318157136,245.05549318157136,245.05549318157136,245.05549318157136,245.05549318157136,245.05549318157136,245.05549318157136,245.05549318157136,245.05549318157136,245.05549318157136,j,1.5298620462417603,target,None,,,,,,,,,,,,,,,,student1,2022-10-25_10h56.17.082,Hippopolis_4AFCT,2022.2.2,59.88776297983654,
Camponello,stimuli/subj_files/student1_cityB.csv,./stimuli/leipzig.jpg,./stimuli/street_plate2.png,KAKAÓ UTCA,stimuli/objects/099a.jpg,object,1,stimuli/objects/119a.jpg,stimuli/scenes/086a.jpg,stimuli/objects/119a.jpg,stimuli/scenes/086b.jpg,stimuli/objects/119b.jpg,dist1,target,dist2,lure,0,0,0,1,0,57,57,0,,,,,,,246.60873685404658,247.6587591227144,247.6587591227144,247.6587591227144,247.6587591227144,247.6587591227144,247.6587591227144,247.6587591227144,247.6587591227144,247.6587591227144,247.6587591227144,247.6587591227144,247.6587591227144,f,2.5587234385311604,target,None,,,,,,,,,,,,,,,,student1,2022-10-25_10h56.17.082,Hippopolis_4AFCT,2022.2.2,59.88776297983654,
Camponello,stimuli/subj_files/student1_cityB.csv,./stimuli/leipzig.jpg,./stimuli/street_plate2.png,VÁSÁR UTCA,stimuli/scenes/089a.jpg,scene,0,stimuli/scenes/089a.jpg,stimuli/scenes/089a.jpg,stimuli/scenes/089b.jpg,stimuli/scenes/082b.jpg,stimuli/scenes/082a.jpg,target,lure,dist2,dist1,0,0,0,1,0,58,58,41,,,,,,,250.24057930521667,251.26382143609226,251.26382143609226,251.26382143609226,251.26382143609226,251.26382143609226,251.26382143609226,251.26382143609226,251.26382143609226,251.26382143609226,251.26382143609226,251.26382143609226,251.26382143609226,d,2.6977417413145304,target,None,,,,,,,,,,,,,,,,student1,2022-10-25_10h56.17.082,Hippopolis_4AFCT,2022.2.2,59.88776297983654,
Camponello,stimuli/subj_files/student1_cityB.csv,./stimuli/leipzig.jpg,./stimuli/street_plate2.png,VIHAR UTCA,stimuli/objects/048a.jpg,object,2,stimuli/scenes/054a.jpg,stimuli/scenes/054b.jpg,stimuli/scenes/100b.jpg,stimuli/scenes/054a.jpg,stimuli/scenes/100a.jpg,lure,dist2,target,dist1,0,0,0,1,0,59,59,65,,,,,,,253.99027545191348,255.03900269046426,255.03900269046426,255.03900269046426,255.03900269046426,255.03900269046426,255.03900269046426,255.03900269046426,255.03900269046426,255.03900269046426,255.03900269046426,255.03900269046426,255.03900269046426,j,2.9548199363052845,target,None,,,,,,,,,,,,,,,,student1,2022-10-25_10h56.17.082,Hippopolis_4AFCT,2022.2.2,59.88776297983654,
Camponello,stimuli/subj_files/student1_cityB.csv,./stimuli/leipzig.jpg,./stimuli/street_plate2.png,ECSET UTCA,stimuli/scenes/003a.jpg,scene,2,stimuli/objects/005a.jpg,stimuli/objects/035b.jpg,stimuli/objects/005b.jpg,stimuli/objects/035a.jpg,stimuli/objects/005a.jpg,dist2,lure,dist1,target,0,0,0,1,0,60,60,11,,,,,,,258.02653973177075,259.0626702774316,259.0626702774316,259.0626702774316,259.0626702774316,259.0626702774316,259.0626702774316,259.0626702774316,259.0626702774316,259.0626702774316,259.0626702774316,259.0626702774316,259.0626702774316,k,2.562151663005352,target,None,259.0626702774316,,,,,,,,,,,,,,,student1,2022-10-25_10h56.17.082,Hippopolis_4AFCT,2022.2.2,59.88776297983654,
Camponello,stimuli/subj_files/student1_cityB.csv,./stimuli/leipzig.jpg,./stimuli/street_plate2.png,SAJTÓ UTCA,stimuli/scenes/112a.jpg,scene,0,stimuli/scenes/112a.jpg,stimuli/objects/018a.jpg,stimuli/scenes/112b.jpg,stimuli/scenes/112a.jpg,stimuli/objects/018b.jpg,dist1,lure,target,dist2,0,0,0,1,0,61,61,15,,,,,,,261.65685763023794,262.69627613388,262.69627613388,262.69627613388,262.69627613388,262.69627613388,262.69627613388,262.69627613388,262.69627613388,262.69627613388,262.69627613388,262.69627613388,262.69627613388,j,1.7445360738784075,target,None,,,,,,,,,,,,,,,,student1,2022-10-25_10h56.17.082,Hippopolis_4AFCT,2022.2.2,59.88776297983654,
Camponello,stimuli/subj_files/student1_cityB.csv,./stimuli/leipzig.jpg,./stimuli/street_plate2.png,SZÖCSKE UTCA,stimuli/scenes/026a.jpg,scene,2,stimuli/objects/061a.jpg,stimuli/scenes/063a.jpg,stimuli/objects/061a.jpg,stimuli/scenes/063b.jpg,stimuli/objects/061b.jpg,dist1,target,dist2,lure,0,0,0,1,0,62,62,71,,,,,,,264.4736932143569,265.5249753687531,265.5249753687531,265.5249753687531,265.5249753687531,265.5249753687531,265.5249753687531,265.5249753687531,265.5249753687531,265.5249753687531,265.5249753687531,265.5249753687531,265.5249753687531,k,2.580207137390971,lure,None,265.5249753687531,,,,,,,,,,,,,,,student1,2022-10-25_10h56.17.082,Hippopolis_4AFCT,2022.2.2,59.88776297983654,
Camponello,stimuli/subj_files/student1_cityB.csv,./stimuli/leipzig.jpg,./stimuli/street_plate2.png,MANDARIN UTCA,stimuli/scenes/075a.jpg,scene,0,stimuli/scenes/075a.jpg,stimuli/objects/072a.jpg,stimuli/objects/072b.jpg,stimuli/scenes/075b.jpg,stimuli/scenes/075a.jpg,dist1,dist2,lure,target,0,0,0,1,0,63,63,37,,,,,,,268.1259367521852,269.1676228046417,269.1676228046417,269.1676228046417,269.1676228046417,269.1676228046417,269.1676228046417,269.1676228046417,269.1676228046417,269.1676228046417,269.1676228046417,269.1676228046417,269.1676228046417,k,2.1694345604628325,target,None,,,,,,,,,,,,,,,,student1,2022-10-25_10h56.17.082,Hippopolis_4AFCT,2022.2.2,59.88776297983654,
Camponello,stimuli/subj_files/student1_cityB.csv,./stimuli/leipzig.jpg,./stimuli/street_plate2.png,LOVAGLÁS UTCA,stimuli/objects/019a.jpg,object,0,stimuli/objects/019a.jpg,stimuli/objects/019b.jpg,stimuli/objects/019a.jpg,stimuli/scenes/017b.jpg,stimuli/scenes/017a.jpg,lure,target,dist2,dist1,0,0,0,1,0,64,64,53,,,,,,,271.3584401551634,272.3995483573526,272.3995483573526,272.3995483573526,272.3995483573526,272.3995483573526,272.3995483573526,272.3995483573526,272.3995483573526,272.3995483573526,272.3995483573526,272.3995483573526,272.3995483573526,f,2.5700869914144278,target,None,,,,,,,,,,,,,,,,student1,2022-10-25_10h56.17.082,Hippopolis_4AFCT,2022.2.2,59.88776297983654,
Camponello,stimuli/subj_files/student1_cityB.csv,./stimuli/leipzig.jpg,./stimuli/street_plate2.png,PÁRNA UTCA,stimuli/objects/112a.jpg,object,0,stimuli/objects/112a.jpg,stimuli/objects/112b.jpg,stimuli/scenes/032b.jpg,stimuli/scenes/032a.jpg,stimuli/objects/112a.jpg,lure,dist2,dist1,target,0,0,0,1,0,65,65,77,,,,,,,274.9902602136135,276.0432320665568,276.0432320665568,276.0432320665568,276.0432320665568,276.0432320665568,276.0432320665568,276.0432320665568,276.0432320665568,276.0432320665568,276.0432320665568,276.0432320665568,276.0432320665568,k,1.325850559398532,target,None,,,,,,,,,,,,,,,,student1,2022-10-25_10h56.17.082,Hippopolis_4AFCT,2022.2.2,59.88776297983654,
Camponello,stimuli/subj_files/student1_cityB.csv,./stimuli/leipzig.jpg,./stimuli/street_plate2.png,POLIP UTCA,stimuli/scenes/077a.jpg,scene,0,stimuli/scenes/077a.jpg,stimuli/scenes/077b.jpg,stimuli/scenes/077a.jpg,stimuli/scenes/091b.jpg,stimuli/scenes/091a.jpg,lure,target,dist2,dist1,0,0,0,1,0,66,66,49,,,,,,,277.394617350772,278.45125752314925,278.45125752314925,278.45125752314925,278.45125752314925,278.45125752314925,278.45125752314925,278.45125752314925,278.45125752314925,278.45125752314925,278.45125752314925,278.45125752314925,278.45125752314925,f,3.0615822095423937,target,None,,,,,,,,,,,,,,,,student1,2022-10-25_10h56.17.082,Hippopolis_4AFCT,2022.2.2,59.88776297983654,
Camponello,stimuli/subj_files/student1_cityB.csv,./stimuli/leipzig.jpg,./stimuli/street_plate2.png,KOCSI UTCA,stimuli/scenes/114a.jpg,scene,0,stimuli/scenes/114a.jpg,stimuli/objects/082b.jpg,stimuli/scenes/114b.jpg,stimuli/scenes/114a.jpg,stimuli/objects/082a.jpg,dist2,lure,target,dist1,0,0,0,1,0,67,67,69,,,,,,,281.54026755318046,282.59019807353616,282.59019807353616,282.59019807353616,282.59019807353616,282.59019807353616,282.59019807353616,282.59019807353616,282.59019807353616,282.59019807353616,282.59019807353616,282.59019807353616,282.59019807353616,j,2.0756384544074535,target,None,,,,,,,,,,,,,,,,student1,2022-10-25_10h56.17.082,Hippopolis_4AFCT,2022.2.2,59.88776297983654,
Camponello,stimuli/subj_files/student1_cityB.csv,./stimuli/leipzig.jpg,./stimuli/street_plate2.png,HARCSA UTCA,stimuli/scenes/080a.jpg,scene,2,stimuli/objects/029a.jpg,stimuli/scenes/054b.jpg,stimuli/scenes/054a.jpg,stimuli/objects/029b.jpg,stimuli/objects/029a.jpg,dist2,dist1,lure,target,0,0,0,1,0,68,68,59,,,,,,,284.6902009360492,285.723689481616,285.723689481616,285.723689481616,285.723689481616,285.723689481616,285.723689481616,285.723689481616,285.723689481616,285.723689481616,285.723689481616,285.723689481616,285.723689481616,j,3.0051417015492916,lure,None,285.723689481616,,,,,,,,,,,,,,,student1,2022-10-25_10h56.17.082,Hippopolis_4AFCT,2022.2.2,59.88776297983654,
Camponello,stimuli/subj_files/student1_cityB.csv,./stimuli/leipzig.jpg,./stimuli/street_plate2.png,KRÉTA UTCA,stimuli/scenes/091a.jpg,scene,0,stimuli/scenes/091a.jpg,stimuli/scenes/098b.jpg,stimuli/scenes/091b.jpg,stimuli/scenes/098a.jpg,stimuli/scenes/091a.jpg,dist2,lure,dist1,target,0,0,0,1,0,69,69,21,,,,,,,288.7590356692672,289.816955011338,289.816955011338,289.816955011338,289.816955011338,289.816955011338,289.816955011338,289.816955011338,289.816955011338,289.816955011338,289.816955011338,289.816955011338,289.816955011338,k,1.85663490742445,target,None,,,,,,,,,,,,,,,,student1,2022-10-25_10h56.17.082,Hippopolis_4AFCT,2022.2.2,59.88776297983654,
Camponello,stimuli/subj_files/student1_cityB.csv,./stimuli/leipzig.jpg,./stimuli/street_plate2.png,TERÍTŐ UTCA,stimuli/objects/098a.jpg,object,1,stimuli/objects/096a.jpg,stimuli/objects/096b.jpg,stimuli/objects/096a.jpg,stimuli/objects/013b.jpg,stimuli/objects/013a.jpg,lure,target,dist2,dist1,0,0,0,1,0,70,70,39,,,,,,,291.6901909839362,292.76261784136295,292.76261784136295,292.76261784136295,292.76261784136295,292.76261784136295,292.76261784136295,292.76261784136295,292.76261784136295,292.76261784136295,292.76261784136295,292.76261784136295,292.76261784136295,f,1.7738748602569103,target,None,,,,,,,,,,,,,,,,student1,2022-10-25_10h56.17.082,Hippopolis_4AFCT,2022.2.2,59.88776297983654,
Camponello,stimuli/subj_files/student1_cityB.csv,./stimuli/leipzig.jpg,./stimuli/street_plate2.png,SZŐLŐ UTCA,stimuli/scenes/099a.jpg,scene,0,stimuli/scenes/099a.jpg,stimuli/objects/105a.jpg,stimuli/scenes/099a.jpg,stimuli/scenes/099b.jpg,stimuli/objects/105b.jpg,dist1,target,lure,dist2,0,0,0,1,0,71,71,55,,,,,,,294.5565167032182,295.59998109191656,295.59998109191656,295.59998109191656,295.59998109191656,295.59998109191656,295.59998109191656,295.59998109191656,295.59998109191656,295.59998109191656,295.59998109191656,295.59998109191656,295.59998109191656,f,2.040620068088174,target,None,,,,,,,,,,,,,,,,student1,2022-10-25_10h56.17.082,Hippopolis_4AFCT,2022.2.2,59.88776297983654,
Camponello,stimuli/subj_files/student1_cityB.csv,./stimuli/leipzig.jpg,./stimuli/street_plate2.png,KESZTYŰ UTCA,stimuli/scenes/040a.jpg,scene,1,stimuli/scenes/105a.jpg,stimuli/objects/096b.jpg,stimuli/scenes/105a.jpg,stimuli/scenes/105b.jpg,stimuli/objects/096a.jpg,dist2,target,lure,dist1,0,0,0,1,0,72,72,16,,,,,,,297.65684114582837,298.6982482261956,298.6982482261956,298.6982482261956,298.6982482261956,298.6982482261956,298.6982482261956,298.6982482261956,298.6982482261956,298.6982482261956,298.6982482261956,298.6982482261956,298.6982482261956,j,3.5193248372524977,lure,None,,302.15737607702613,,,,,,,,,,,,,,student1,2022-10-25_10h56.17.082,Hippopolis_4AFCT,2022.2.2,59.88776297983654,
Camponello,stimuli/subj_files/student1_cityB.csv,./stimuli/leipzig.jpg,./stimuli/street_plate2.png,SZALVÉTA UTCA,stimuli/objects/072a.jpg,object,0,stimuli/objects/072a.jpg,stimuli/scenes/045b.jpg,stimuli/scenes/045a.jpg,stimuli/objects/072b.jpg,stimuli/objects/072a.jpg,dist2,dist1,lure,target,0,0,0,1,0,73,73,54,,,,,,,302.240272032097,303.27417950332165,303.27417950332165,303.27417950332165,303.27417950332165,303.27417950332165,303.27417950332165,303.27417950332165,303.27417950332165,303.27417950332165,303.27417950332165,303.27417950332165,303.27417950332165,k,2.6383500937372446,target,None,303.27417950332165,,,,,,,,,,,,,,,student1,2022-10-25_10h56.17.082,Hippopolis_4AFCT,2022.2.2,59.88776297983654,
Camponello,stimuli/subj_files/student1_cityB.csv,./stimuli/leipzig.jpg,./stimuli/street_plate2.png,SUGÁR UTCA,stimuli/objects/094a.jpg,object,0,stimuli/objects/094a.jpg,stimuli/objects/094b.jpg,stimuli/objects/064b.jpg,stimuli/objects/064a.jpg,stimuli/objects/094a.jpg,lure,dist2,dist1,target,0,0,0,1,0,74,74,40,,,,,,,305.9505484290421,307.01352255791426,307.01352255791426,307.01352255791426,307.01352255791426,307.01352255791426,307.01352255791426,307.01352255791426,307.01352255791426,307.01352255791426,307.01352255791426,307.01352255791426,307.01352255791426,k,2.0196554381400347,target,None,,,,,,,,,,,,,,,,student1,2022-10-25_10h56.17.082,Hippopolis_4AFCT,2022.2.2,59.88776297983654,
Camponello,stimuli/subj_files/student1_cityB.csv,./stimuli/leipzig.jpg,./stimuli/street_plate2.png,FÜGE UTCA,stimuli/scenes/115a.jpg,scene,0,stimuli/scenes/115a.jpg,stimuli/scenes/115b.jpg,stimuli/scenes/115a.jpg,stimuli/objects/084b.jpg,stimuli/objects/084a.jpg,lure,target,dist2,dist1,0,0,0,1,0,75,75,47,,,,,,,309.05664981529117,310.11012580804527,310.11012580804527,310.11012580804527,310.11012580804527,310.11012580804527,310.11012580804527,310.11012580804527,310.11012580804527,310.11012580804527,310.11012580804527,310.11012580804527,310.11012580804527,f,2.2187141459435225,target,None,,,,,,,,,,,,,,,,student1,2022-10-25_10h56.17.082,Hippopolis_4AFCT,2022.2.2,59.88776297983654,
Camponello,stimuli/subj_files/student1_cityB.csv,./stimuli/leipzig.jpg,./stimuli/street_plate2.png,MÁRVÁNY UTCA,stimuli/scenes/023a.jpg,scene,0,stimuli/scenes/023a.jpg,stimuli/objects/030a.jpg,stimuli/scenes/023b.jpg,stimuli/objects/030b.jpg,stimuli/scenes/023a.jpg,dist1,lure,dist2,target,0,0,0,1,0,76,76,58,,,,,,,312.36590710654855,313.4091444592923,313.4091444592923,313.4091444592923,313.4091444592923,313.4091444592923,313.4091444592923,313.4091444592923,313.4091444592923,313.4091444592923,313.4091444592923,313.4091444592923,313.4091444592923,d,2.599007785320282,dist1,None,,,,,,,,,,,,,,,,student1,2022-10-25_10h56.17.082,Hippopolis_4AFCT,2022.2.2,59.88776297983654,
Camponello,stimuli/subj_files/student1_cityB.csv,./stimuli/leipzig.jpg,./stimuli/street_plate2.png,GYŰRŰ UTCA,stimuli/objects/056a.jpg,object,1,stimuli/objects/013a.jpg,stimuli/objects/013b.jpg,stimuli/objects/087b.jpg,stimuli/objects/013a.jpg,stimuli/objects/087a.jpg,lure,dist2,target,dist1,0,0,0,1,0,77,77,22,,,,,,,316.0398091301322,317.0761449392885,317.0761449392885,317.0761449392885,317.0761449392885,317.0761449392885,317.0761449392885,317.0761449392885,317.0761449392885,317.0761449392885,317.0761449392885,317.0761449392885,317.0761449392885,j,3.124586194753647,target,None,,,,,,,,,,,,,,,,student1,2022-10-25_10h56.17.082,Hippopolis_4AFCT,2022.2.2,59.88776297983654,
Camponello,stimuli/subj_files/student1_cityB.csv,./stimuli/leipzig.jpg,./stimuli/street_plate2.png,TÜKÖR UTCA,stimuli/scenes/006a.jpg,scene,0,stimuli/scenes/006a.jpg,stimuli/objects/116b.jpg,stimuli/objects/116a.jpg,stimuli/scenes/006a.jpg,stimuli/scenes/006b.jpg,dist2,dist1,target,lure,0,0,0,1,0,78,78,25,,,,,,,320.2230186406523,321.2598091419786,321.2598091419786,321.2598091419786,321.2598091419786,321.2598091419786,321.2598091419786,321.2598091419786,321.2598091419786,321.2598091419786,321.2598091419786,321.2598091419786,321.2598091419786,j,1.9648001305758953,target,None,,,,,,,,,,,,,,,,student1,2022-10-25_10h56.17.082,Hippopolis_4AFCT,2022.2.2,59.88776297983654,
Camponello,stimuli/subj_files/student1_cityB.csv,./stimuli/leipzig.jpg,./stimuli/street_plate2.png,FÜZET UTCA,stimuli/scenes/047a.jpg,scene,1,stimuli/scenes/012a.jpg,stimuli/scenes/012b.jpg,stimuli/objects/010b.jpg,stimuli/scenes/012a.jpg,stimuli/objects/010a.jpg,lure,dist2,target,dist1,0,0,0,1,0,79,79,56,,,,,,,323.2535258792341,324.29840938933194,324.29840938933194,324.29840938933194,324.29840938933194,324.29840938933194,324.29840938933194,324.29840938933194,324.29840938933194,324.29840938933194,324.29840938933194,324.29840938933194,324.29840938933194,j,3.5662336219102144,target,None,,327.7400779630989,,,,,,,,,,,,,,student1,2022-10-25_10h56.17.082,Hippopolis_4AFCT,2022.2.2,59.88776297983654,
Hippopolis,stimuli/subj_files/student1_cityA.csv,./stimuli/frankfurt.jpg,./stimuli/street_plate1.png,ÜVEG UTCA,stimuli/scenes/061a.jpg,scene,2,stimuli/objects/085a.jpg,stimuli/objects/085b.jpg,stimuli/scenes/084a.jpg,stimuli/objects/085a.jpg,stimuli/scenes/084b.jpg,lure,dist1,target,dist2,0,1,1,0,0,0,0,19,,,,,335.949277035892,335.949277035892,338.9259652402252,339.9620808567852,339.9620808567852,339.9620808567852,339.9620808567852,339.9620808567852,339.9620808567852,339.9620808567852,339.9620808567852,339.9620808567852,339.9620808567852,339.9620808567852,339.9620808567852,d,3.390352975577116,lure,None,,,,,,64,7,5,4,327.8894111029804,327.8894111029804,space,7.9915482345968485,,,student1,2022-10-25_10h56.17.082,Hippopolis_4AFCT,2022.2.2,59.88776297983654,
Hippopolis,stimuli/subj_files/student1_cityA.csv,./stimuli/frankfurt.jpg,./stimuli/street_plate1.png,CSAVAR UTCA,stimuli/objects/078a.jpg,object,0,stimuli/objects/078a.jpg,stimuli/objects/078b.jpg,stimuli/objects/024b.jpg,stimuli/objects/078a.jpg,stimuli/objects/024a.jpg,lure,dist2,target,dist1,0,1,1,0,0,1,1,10,,,,,,,343.3855530694127,344.4288594648242,344.4288594648242,344.4288594648242,344.4288594648242,344.4288594648242,344.4288594648242,344.4288594648242,344.4288594648242,344.4288594648242,344.4288594648242,344.4288594648242,344.4288594648242,j,3.964125245809555,target,None,,347.87324623577297,,,,,,,,,,,,,,student1,2022-10-25_10h56.17.082,Hippopolis_4AFCT,2022.2.2,59.88776297983654,
Hippopolis,stimuli/subj_files/student1_cityA.csv,./stimuli/frankfurt.jpg,./stimuli/street_plate1.png,KÖMÉNYMAG UTCA,stimuli/objects/068a.jpg,object,1,stimuli/objects/045a.jpg,stimuli/objects/045a.jpg,stimuli/objects/045b.jpg,stimuli/objects/071a.jpg,stimuli/objects/071b.jpg,target,lure,dist1,dist2,0,1,1,0,0,2,2,18,,,,,,,348.4256293531507,349.49808513373137,349.49808513373137,349.49808513373137,349.49808513373137,349.49808513373137,349.49808513373137,349.49808513373137,349.49808513373137,349.49808513373137,349.49808513373137,349.49808513373137,349.49808513373137,j,3.758271047845483,dist1,None,,352.9266276843846,,,,,,,,,,,,,,student1,2022-10-25_10h56.17.082,Hippopolis_4AFCT,2022.2.2,59.88776297983654,
Hippopolis,stimuli/subj_files/student1_cityA.csv,./stimuli/frankfurt.jpg,./stimuli/street_plate1.png,PÁLMAFA UTCA,stimuli/objects/090a.jpg,object,1,stimuli/objects/007a.jpg,stimuli/objects/053a.jpg,stimuli/objects/007a.jpg,stimuli/objects/053b.jpg,stimuli/objects/007b.jpg,dist1,target,dist2,lure,0,1,1,0,0,3,3,12,,,,,,,353.2837504148483,354.34116592630744,354.34116592630744,354.34116592630744,354.34116592630744,354.34116592630744,354.34116592630744,354.34116592630744,354.34116592630744,354.34116592630744,354.34116592630744,354.34116592630744,354.34116592630744,f,3.1552452072501183,target,None,,,,,,,,,,,,,,,,student1,2022-10-25_10h56.17.082,Hippopolis_4AFCT,2022.2.2,59.88776297983654,
Hippopolis,stimuli/subj_files/student1_cityA.csv,./stimuli/frankfurt.jpg,./stimuli/street_plate1.png,PAPUCS UTCA,stimuli/scenes/051a.jpg,scene,0,stimuli/scenes/051a.jpg,stimuli/scenes/051b.jpg,stimuli/scenes/051a.jpg,stimuli/scenes/090a.jpg,stimuli/scenes/090b.jpg,lure,target,dist1,dist2,0,1,1,0,0,4,4,68,,,,,,,357.5385498646647,358.5969836115837,358.5969836115837,358.5969836115837,358.5969836115837,358.5969836115837,358.5969836115837,358.5969836115837,358.5969836115837,358.5969836115837,358.5969836115837,358.5969836115837,358.5969836115837,f,3.4910789262503386,target,None,,362.0255728121847,,,,,,,,,,,,,,student1,2022-10-25_10h56.17.082,Hippopolis_4AFCT,2022.2.2,59.88776297983654,
Hippopolis,stimuli/subj_files/student1_cityA.csv,./stimuli/frankfurt.jpg,./stimuli/street_plate1.png,POGÁCSA UTCA,stimuli/scenes/046a.jpg,scene,0,stimuli/scenes/046a.jpg,stimuli/scenes/042a.jpg,stimuli/scenes/046a.jpg,stimuli/scenes/046b.jpg,stimuli/scenes/042b.jpg,dist1,target,lure,dist2,0,1,1,0,0,5,5,49,,,,,,,362.11291615851223,363.16176002286375,363.16176002286375,363.16176002286375,363.16176002286375,363.16176002286375,363.16176002286375,363.16176002286375,363.16176002286375,363.16176002286375,363.16176002286375,363.16176002286375,363.16176002286375,f,2.190093783661723,target,None,,,,,,,,,,,,,,,,student1,2022-10-25_10h56.17.082,Hippopolis_4AFCT,2022.2.2,59.88776297983654,
Hippopolis,stimuli/subj_files/student1_cityA.csv,./stimuli/frankfurt.jpg,./stimuli/street_plate1.png,MOTOR UTCA,stimuli/objects/097a.jpg,object,1,stimuli/objects/071a.jpg,stimuli/objects/015b.jpg,stimuli/objects/071b.jpg,stimuli/objects/071a.jpg,stimuli/objects/015a.jpg,dist2,lure,target,dist1,0,1,1,0,0,6,6,36,,,,,,,365.3817286230624,366.42144476249814,366.42144476249814,366.42144476249814,366.42144476249814,366.42144476249814,366.42144476249814,366.42144476249814,366.42144476249814,366.42144476249814,366.42144476249814,366.42144476249814,366.42144476249814,j,2.1632153652608395,target,None,,,,,,,,,,,,,,,,student1,2022-10-25_10h56.17.082,Hippopolis_4AFCT,2022.2.2,59.88776297983654,
Hippopolis,stimuli/subj_files/student1_cityA.csv,./stimuli/frankfurt.jpg,./stimuli/street_plate1.png,PADLÓ UTCA,stimuli/objects/100a.jpg,object,0,stimuli/objects/100a.jpg,stimuli/scenes/058a.jpg,stimuli/scenes/058b.jpg,stimuli/objects/100a.jpg,stimuli/objects/100b.jpg,dist1,dist2,target,lure,0,1,1,0,0,7,7,59,,,,,,,368.6083313021809,369.6839515734464,369.6839515734464,369.6839515734464,369.6839515734464,369.6839515734464,369.6839515734464,369.6839515734464,369.6839515734464,369.6839515734464,369.6839515734464,369.6839515734464,369.6839515734464,j,2.0525832399725914,target,None,,,,,,,,,,,,,,,,student1,2022-10-25_10h56.17.082,Hippopolis_4AFCT,2022.2.2,59.88776297983654,
Hippopolis,stimuli/subj_files/student1_cityA.csv,./stimuli/frankfurt.jpg,./stimuli/street_plate1.png,CUKOR UTCA,stimuli/objects/111a.jpg,object,0,stimuli/objects/111a.jpg,stimuli/objects/089b.jpg,stimuli/objects/111b.jpg,stimuli/objects/111a.jpg,stimuli/objects/089a.jpg,dist2,lure,target,dist1,0,1,1,0,0,8,8,30,,,,,,,371.7660967577249,372.85803522355855,372.85803522355855,372.85803522355855,372.85803522355855,372.85803522355855,372.85803522355855,372.85803522355855,372.85803522355855,372.85803522355855,372.85803522355855,372.85803522355855,372.85803522355855,j,1.5016263984143734,target,None,,,,,,,,,,,,,,,,student1,2022-10-25_10h56.17.082,Hippopolis_4AFCT,2022.2.2,59.88776297983654,
Hippopolis,stimuli/subj_files/student1_cityA.csv,./stimuli/frankfurt.jpg,./stimuli/street_plate1.png,SZIKLA UTCA,stimuli/scenes/111a.jpg,scene,2,stimuli/objects/073a.jpg,stimuli/objects/120b.jpg,stimuli/objects/120a.jpg,stimuli/objects/073a.jpg,stimuli/objects/073b.jpg,dist2,dist1,target,lure,0,1,1,0,0,9,9,1,,,,,,,374.39843868650496,375.457017051056,375.457017051056,375.457017051056,375.457017051056,375.457017051056,375.457017051056,375.457017051056,375.457017051056,375.457017051056,375.457017051056,375.457017051056,375.457017051056,j,1.6866926159709692,target,None,,,,,,,,,,,,,,,,student1,2022-10-25_10h56.17.082,Hippopolis_4AFCT,2022.2.2,59.88776297983654,
Hippopolis,stimuli/subj_files/student1_cityA.csv,./stimuli/frankfurt.jpg,./stimuli/street_plate1.png,KAKAS UTCA,stimuli/objects/002a.jpg,object,2,stimuli/scenes/074a.jpg,stimuli/scenes/074b.jpg,stimuli/scenes/074a.jpg,stimuli/scenes/070a.jpg,stimuli/scenes/070b.jpg,lure,target,dist1,dist2,0,1,1,0,0,10,10,24,,,,,,,377.17214763723314,378.2043436411768,378.2043436411768,378.2043436411768,378.2043436411768,378.2043436411768,378.2043436411768,378.2043436411768,378.2043436411768,378.2043436411768,378.2043436411768,378.2043436411768,378.2043436411768,j,3.0841737147420645,dist1,None,,,,,,,,,,,,,,,,student1,2022-10-25_10h56.17.082,Hippopolis_4AFCT,2022.2.2,59.88776297983654,
Hippopolis,stimuli/subj_files/student1_cityA.csv,./stimuli/frankfurt.jpg,./stimuli/street_plate1.png,LAKAT UTCA,stimuli/objects/066a.jpg,object,2,stimuli/scenes/084a.jpg,stimuli/scenes/084b.jpg,stimuli/scenes/034a.jpg,stimuli/scenes/084a.jpg,stimuli/scenes/034b.jpg,lure,dist1,target,dist2,0,1,1,0,0,11,11,58,,,,,,,381.30717448331416,382.34501183219254,382.34501183219254,382.34501183219254,382.34501183219254,382.34501183219254,382.34501183219254,382.34501183219254,382.34501183219254,382.34501183219254,382.34501183219254,382.34501183219254,382.34501183219254,f,2.527201386168599,dist1,None,,,,,,,,,,,,,,,,student1,2022-10-25_10h56.17.082,Hippopolis_4AFCT,2022.2.2,59.88776297983654,
Hippopolis,stimuli/subj_files/student1_cityA.csv,./stimuli/frankfurt.jpg,./stimuli/street_plate1.png,SZOMSZÉD UTCA,stimuli/objects/026a.jpg,object,1,stimuli/objects/004a.jpg,stimuli/objects/027b.jpg,stimuli/objects/004b.jpg,stimuli/objects/004a.jpg,stimuli/objects/027a.jpg,dist2,lure,target,dist1,0,1,1,0,0,12,12,65,,,,,,,384.88909449987113,385.98861374519765,385.98861374519765,385.98861374519765,385.98861374519765,385.98861374519765,385.98861374519765,385.98861374519765,385.98861374519765,385.98861374519765,385.98861374519765,385.98861374519765,385.98861374519765,j,1.7309273667633533,target,None,,,,,,,,,,,,,,,,student1,2022-10-25_10h56.17.082,Hippopolis_4AFCT,2022.2.2,59.88776297983654,
Hippopolis,stimuli/subj_files/student1_cityA.csv,./stimuli/frankfurt.jpg,./stimuli/street_plate1.png,HERNYÓ UTCA,stimuli/scenes/066a.jpg,scene,1,stimuli/scenes/037a.jpg,stimuli/scenes/037a.jpg,stimuli/objects/045b.jpg,stimuli/scenes/037b.jpg,stimuli/objects/045a.jpg,target,dist2,lure,dist1,0,1,1,0,0,13,13,5,,,,,,,387.75199728272855,388.8014995492995,388.8014995492995,388.8014995492995,388.8014995492995,388.8014995492995,388.8014995492995,388.8014995492995,388.8014995492995,388.8014995492995,388.8014995492995,388.8014995492995,388.8014995492995,d,2.710229270160198,target,None,388.8014995492995,,,,,,,,,,,,,,,student1,2022-10-25_10h56.17.082,Hippopolis_4AFCT,2022.2.2,59.88776297983654,
Hippopolis,stimuli/subj_files/student1_cityA.csv,./stimuli/frankfurt.jpg,./stimuli/street_plate1.png,KERÉK UTCA,stimuli/scenes/096a.jpg,scene,1,stimuli/scenes/041a.jpg,stimuli/scenes/117a.jpg,stimuli/scenes/041b.jpg,stimuli/scenes/041a.jpg,stimuli/scenes/117b.jpg,dist1,lure,target,dist2,0,1,1,0,0,14,14,20,,,,,,,391.53884469904006,392.6101491339505,392.6101491339505,392.6101491339505,392.6101491339505,392.6101491339505,392.6101491339505,392.6101491339505,392.6101491339505,392.6101491339505,392.6101491339505,392.6101491339505,392.6101491339505,d,2.6775791980326176,dist1,None,,,,,,,,,,,,,,,,student1,2022-10-25_10h56.17.082,Hippopolis_4AFCT,2022.2.2,59.88776297983654,
Hippopolis,stimuli/subj_files/student1_cityA.csv,./stimuli/frankfurt.jpg,./stimuli/street_plate1.png,TRIATLON UTCA,stimuli/objects/024a.jpg,object,0,stimuli/objects/024a.jpg,stimuli/objects/024b.jpg,stimuli/objects/080a.jpg,stimuli/objects/024a.jpg,stimuli/objects/080b.jpg,lure,dist1,target,dist2,0,1,1,0,0,15,15,2,,,,,,,395.30528511852026,396.3594335094094,396.3594335094094,396.3594335094094,396.3594335094094,396.3594335094094,396.3594335094094,396.3594335094094,396.3594335094094,396.3594335094094,396.3594335094094,396.3594335094094,396.3594335094094,j,2.4478440638631582,target,None,,,,,,,,,,,,,,,,student1,2022-10-25_10h56.17.082,Hippopolis_4AFCT,2022.2.2,59.88776297983654,
Hippopolis,stimuli/subj_files/student1_cityA.csv,./stimuli/frankfurt.jpg,./stimuli/street_plate1.png,PÁFRÁNY UTCA,stimuli/scenes/101a.jpg,scene,0,stimuli/scenes/101a.jpg,stimuli/scenes/101a.jpg,stimuli/scenes/101b.jpg,stimuli/objects/051a.jpg,stimuli/objects/051b.jpg,target,lure,dist1,dist2,0,1,1,0,0,16,16,0,,,,,,,398.8385820854455,399.89325452037156,399.89325452037156,399.89325452037156,399.89325452037156,399.89325452037156,399.89325452037156,399.89325452037156,399.89325452037156,399.89325452037156,399.89325452037156,399.89325452037156,399.89325452037156,d,2.626099241897464,target,None,,,,,,,,,,,,,,,,student1,2022-10-25_10h56.17.082,Hippopolis_4AFCT,2022.2.2,59.88776297983654,
Hippopolis,stimuli/subj_files/student1_cityA.csv,./stimuli/frankfurt.jpg,./stimuli/street_plate1.png,OROSZLÁN UTCA,stimuli/scenes/072a.jpg,scene,0,stimuli/scenes/072a.jpg,stimuli/scenes/072a.jpg,stimuli/scenes/072b.jpg,stimuli/scenes/027b.jpg,stimuli/scenes/027a.jpg,target,lure,dist2,dist1,0,1,1,0,0,17,17,66,,,,,,,402.5385417789221,403.57231551781297,403.57231551781297,403.57231551781297,403.57231551781297,403.57231551781297,403.57231551781297,403.57231551781297,403.57231551781297,403.57231551781297,403.57231551781297,403.57231551781297,403.57231551781297,d,1.6350129954516888,target,None,,,,,,,,,,,,,,,,student1,2022-10-25_10h56.17.082,Hippopolis_4AFCT,2022.2.2,59.88776297983654,
Hippopolis,stimuli/subj_files/student1_cityA.csv,./stimuli/frankfurt.jpg,./stimuli/street_plate1.png,LÁNDZSA UTCA,stimuli/scenes/090a.jpg,scene,0,stimuli/scenes/090a.jpg,stimuli/scenes/090a.jpg,stimuli/objects/091b.jpg,stimuli/scenes/090b.jpg,stimuli/objects/091a.jpg,target,dist2,lure,dist1,0,1,1,0,0,18,18,39,,,,,,,405.2385549657047,406.27538776397705,406.27538776397705,406.27538776397705,406.27538776397705,406.27538776397705,406.27538776397705,406.27538776397705,406.27538776397705,406.27538776397705,406.27538776397705,406.27538776397705,406.27538776397705,d,2.804510857909918,target,None,,,,,,,,,,,,,,,,student1,2022-10-25_10h56.17.082,Hippopolis_4AFCT,2022.2.2,59.88776297983654,
Hippopolis,stimuli/subj_files/student1_cityA.csv,./stimuli/frankfurt.jpg,./stimuli/street_plate1.png,VASALÓ UTCA,stimuli/objects/025a.jpg,object,2,stimuli/scenes/056a.jpg,stimuli/scenes/044a.jpg,stimuli/scenes/056b.jpg,stimuli/scenes/056a.jpg,stimuli/scenes/044b.jpg,dist1,lure,target,dist2,0,1,1,0,0,19,19,70,,,,,,,409.1073391921818,410.1601863298565,410.1601863298565,410.1601863298565,410.1601863298565,410.1601863298565,410.1601863298565,410.1601863298565,410.1601863298565,410.1601863298565,410.1601863298565,410.1601863298565,410.1601863298565,f,3.847713066264987,lure,None,410.1601863298565,413.6080429982394,,,,,,,,,,,,,,student1,2022-10-25_10h56.17.082,Hippopolis_4AFCT,2022.2.2,59.88776297983654,
Hippopolis,stimuli/subj_files/student1_cityA.csv,./stimuli/frankfurt.jpg,./stimuli/street_plate1.png,TALICSKA UTCA,stimuli/objects/014a.jpg,object,1,stimuli/objects/108a.jpg,stimuli/objects/109a.jpg,stimuli/objects/109b.jpg,stimuli/objects/108a.jpg,stimuli/objects/108b.jpg,dist1,dist2,target,lure,0,1,1,0,0,20,20,13,,,,,,,414.02960469946265,415.1127507034689,415.1127507034689,415.1127507034689,415.1127507034689,415.1127507034689,415.1127507034689,415.1127507034689,415.1127507034689,415.1127507034689,415.1127507034689,415.1127507034689,415.1127507034689,j,2.5270639210939407,target,None,415.1127507034689,,,,,,,,,,,,,,,student1,2022-10-25_10h56.17.082,Hippopolis_4AFCT,2022.2.2,59.88776297983654,
Hippopolis,stimuli/subj_files/student1_cityA.csv,./stimuli/frankfurt.jpg,./stimuli/street_plate1.png,MÁLNA UTCA,stimuli/objects/069a.jpg,object,2,stimuli/scenes/053a.jpg,stimuli/objects/073a.jpg,stimuli/objects/073b.jpg,stimuli/scenes/053b.jpg,stimuli/scenes/053a.jpg,dist1,dist2,lure,target,0,1,1,0,0,21,21,14,,,,,,,417.6562471240759,418.6928286291659,418.6928286291659,418.6928286291659,418.6928286291659,418.6928286291659,418.6928286291659,418.6928286291659,418.6928286291659,418.6928286291659,418.6928286291659,418.6928286291659,418.6928286291659,k,2.5468625891953707,target,None,,,,,,,,,,,,,,,,student1,2022-10-25_10h56.17.082,Hippopolis_4AFCT,2022.2.2,59.88776297983654,
Hippopolis,stimuli/subj_files/student1_cityA.csv,./stimuli/frankfurt.jpg,./stimuli/street_plate1.png,TERASZ UTCA,stimuli/objects/063a.jpg,object,2,stimuli/scenes/104a.jpg,stimuli/scenes/104a.jpg,stimuli/scenes/056a.jpg,stimuli/scenes/104b.jpg,stimuli/scenes/056b.jpg,target,dist1,lure,dist2,0,1,1,0,0,22,22,48,,,,,,,421.25639398023486,422.29848060943186,422.29848060943186,422.29848060943186,422.29848060943186,422.29848060943186,422.29848060943186,422.29848060943186,422.29848060943186,422.29848060943186,422.29848060943186,422.29848060943186,422.29848060943186,f,3.917110411450267,dist1,None,,425.760405652225,,,,,,,,,,,,,,student1,2022-10-25_10h56.17.082,Hippopolis_4AFCT,2022.2.2,59.88776297983654,
Hippopolis,stimuli/subj_files/student1_cityA.csv,./stimuli/frankfurt.jpg,./stimuli/street_plate1.png,NARANCS UTCA,stimuli/objects/017a.jpg,object,1,stimuli/objects/075a.jpg,stimuli/objects/075a.jpg,stimuli/scenes/041b.jpg,stimuli/scenes/041a.jpg,stimuli/objects/075b.jpg,target,dist2,dist1,lure,0,1,1,0,0,23,23,76,,,,,,,426.23368491604924,427.29571793973446,427.29571793973446,427.29571793973446,427.29571793973446,427.29571793973446,427.29571793973446,427.29571793973446,427.29571793973446,427.29571793973446,427.29571793973446,427.29571793973446,427.29571793973446,f,2.567605471238494,dist2,None,,,,,,,,,,,,,,,,student1,2022-10-25_10h56.17.082,Hippopolis_4AFCT,2022.2.2,59.88776297983654,
Hippopolis,stimuli/subj_files/student1_cityA.csv,./stimuli/frankfurt.jpg,./stimuli/street_plate1.png,HORDÓ UTCA,stimuli/scenes/095a.jpg,scene,0,stimuli/scenes/095a.jpg,stimuli/scenes/095a.jpg,stimuli/scenes/046a.jpg,stimuli/scenes/095b.jpg,stimuli/scenes/046b.jpg,target,dist1,lure,dist2,0,1,1,0,0,24,24,27,,,,,,,429.8840835634619,430.94212295487523,430.94212295487523,430.94212295487523,430.94212295487523,430.94212295487523,430.94212295487523,430.94212295487523,430.94212295487523,430.94212295487523,430.94212295487523,430.94212295487523,430.94212295487523,d,2.169039273634553,target,None,,,,,,,,,,,,,,,,student1,2022-10-25_10h56.17.082,Hippopolis_4AFCT,2022.2.2,59.88776297983654,
Hippopolis,stimuli/subj_files/student1_cityA.csv,./stimuli/frankfurt.jpg,./stimuli/street_plate1.png,KÖNYVTÁR UTCA,stimuli/objects/113a.jpg,object,1,stimuli/objects/109a.jpg,stimuli/objects/109a.jpg,stimuli/objects/109b.jpg,stimuli/scenes/067a.jpg,stimuli/scenes/067b.jpg,target,lure,dist1,dist2,0,1,1,0,0,25,25,42,,,,,,,433.1383891366422,434.1857140455395,434.1857140455395,434.1857140455395,434.1857140455395,434.1857140455395,434.1857140455395,434.1857140455395,434.1857140455395,434.1857140455395,434.1857140455395,434.1857140455395,434.1857140455395,j,3.2929930463433266,dist1,None,,,,,,,,,,,,,,,,student1,2022-10-25_10h56.17.082,Hippopolis_4AFCT,2022.2.2,59.88776297983654,
Hippopolis,stimuli/subj_files/student1_cityA.csv,./stimuli/frankfurt.jpg,./stimuli/street_plate1.png,KARTON UTCA,stimuli/objects/101a.jpg,object,2,stimuli/scenes/044a.jpg,stimuli/scenes/074a.jpg,stimuli/scenes/044b.jpg,stimuli/scenes/044a.jpg,stimuli/scenes/074b.jpg,dist1,lure,target,dist2,0,1,1,0,0,26,26,8,,,,,,,437.5072340089828,438.53026994131505,438.53026994131505,438.53026994131505,438.53026994131505,438.53026994131505,438.53026994131505,438.53026994131505,438.53026994131505,438.53026994131505,438.53026994131505,438.53026994131505,438.53026994131505,d,4.356695553287864,dist1,None,,442.00496677309275,,,,,,,,,,,,,,student1,2022-10-25_10h56.17.082,Hippopolis_4AFCT,2022.2.2,59.88776297983654,
Hippopolis,stimuli/subj_files/student1_cityA.csv,./stimuli/frankfurt.jpg,./stimuli/street_plate1.png,BOLYGÓ UTCA,stimuli/scenes/118a.jpg,scene,1,stimuli/scenes/087a.jpg,stimuli/objects/011a.jpg,stimuli/scenes/087b.jpg,stimuli/objects/011b.jpg,stimuli/scenes/087a.jpg,dist1,lure,dist2,target,0,1,1,0,0,27,27,31,,,,,,,442.9183418508619,443.96599020808935,443.96599020808935,443.96599020808935,443.96599020808935,443.96599020808935,443.96599020808935,443.96599020808935,443.96599020808935,443.96599020808935,443.96599020808935,443.96599020808935,443.96599020808935,k,2.3609109334647655,target,None,,,,,,,,,,,,,,,,student1,2022-10-25_10h56.17.082,Hippopolis_4AFCT,2022.2.2,59.88776297983654,
Hippopolis,stimuli/subj_files/student1_cityA.csv,./stimuli/frankfurt.jpg,./stimuli/street_plate1.png,EGÉR UTCA,stimuli/scenes/071a.jpg,scene,1,stimuli/scenes/116a.jpg,stimuli/scenes/116b.jpg,stimuli/scenes/116a.jpg,stimuli/scenes/009b.jpg,stimuli/scenes/009a.jpg,lure,target,dist2,dist1,0,1,1,0,0,28,28,29,,,,,,,446.3549077436328,447.4056484363973,447.4056484363973,447.4056484363973,447.4056484363973,447.4056484363973,447.4056484363973,447.4056484363973,447.4056484363973,447.4056484363973,447.4056484363973,447.4056484363973,447.4056484363973,d,3.2578754499554634,lure,None,447.4056484363973,,,,,,,,,,,,,,,student1,2022-10-25_10h56.17.082,Hippopolis_4AFCT,2022.2.2,59.88776297983654,
Hippopolis,stimuli/subj_files/student1_cityA.csv,./stimuli/frankfurt.jpg,./stimuli/street_plate1.png,CSILLAG UTCA,stimuli/scenes/083a.jpg,scene,1,stimuli/scenes/117a.jpg,stimuli/scenes/117a.jpg,stimuli/scenes/117b.jpg,stimuli/objects/041a.jpg,stimuli/objects/041b.jpg,target,lure,dist1,dist2,0,1,1,0,0,29,29,15,,,,,,,450.6881737951189,451.74900882318616,451.74900882318616,451.74900882318616,451.74900882318616,451.74900882318616,451.74900882318616,451.74900882318616,451.74900882318616,451.74900882318616,451.74900882318616,451.74900882318616,451.74900882318616,d,4.002101615071297,target,None,,455.18900822661817,,,,,,,,,,,,,,student1,2022-10-25_10h56.17.082,Hippopolis_4AFCT,2022.2.2,59.88776297983654,
Hippopolis,stimuli/subj_files/student1_cityA.csv,./stimuli/frankfurt.jpg,./stimuli/street_plate1.png,RÓZSA UTCA,stimuli/objects/091a.jpg,object,0,stimuli/objects/091a.jpg,stimuli/objects/091b.jpg,stimuli/objects/078b.jpg,stimuli/objects/078a.jpg,stimuli/objects/091a.jpg,lure,dist2,dist1,target,0,1,1,0,0,30,30,45,,,,,,,455.7861924357712,456.83222449198365,456.83222449198365,456.83222449198365,456.83222449198365,456.83222449198365,456.83222449198365,456.83222449198365,456.83222449198365,456.83222449198365,456.83222449198365,456.83222449198365,456.83222449198365,k,2.838678952306509,target,None,,,,,,,,,,,,,,,,student1,2022-10-25_10h56.17.082,Hippopolis_4AFCT,2022.2.2,59.88776297983654,
Hippopolis,stimuli/subj_files/student1_cityA.csv,./stimuli/frankfurt.jpg,./stimuli/street_plate1.png,TOBOZ UTCA,stimuli/objects/001a.jpg,object,2,stimuli/scenes/059a.jpg,stimuli/scenes/059a.jpg,stimuli/objects/085a.jpg,stimuli/objects/085b.jpg,stimuli/scenes/059b.jpg,target,dist1,dist2,lure,0,1,1,0,0,31,31,40,,,,,,,459.6880652550608,460.7277282103896,460.7277282103896,460.7277282103896,460.7277282103896,460.7277282103896,460.7277282103896,460.7277282103896,460.7277282103896,460.7277282103896,460.7277282103896,460.7277282103896,460.7277282103896,j,3.791362129151821,dist2,None,,464.1895664818585,,,,,,,,,,,,,,student1,2022-10-25_10h56.17.082,Hippopolis_4AFCT,2022.2.2,59.88776297983654,
Hippopolis,stimuli/subj_files/student1_cityA.csv,./stimuli/frankfurt.jpg,./stimuli/street_plate1.png,PÉKSÉG UTCA,stimuli/scenes/073a.jpg,scene,2,stimuli/objects/059a.jpg,stimuli/objects/059a.jpg,stimuli/objects/046b.jpg,stimuli/objects/059b.jpg,stimuli/objects/046a.jpg,target,dist2,lure,dist1,0,1,1,0,0,32,32,61,,,,,,,464.54079004377127,465.59696526266634,465.59696526266634,465.59696526266634,465.59696526266634,465.59696526266634,465.59696526266634,465.59696526266634,465.59696526266634,465.59696526266634,465.59696526266634,465.59696526266634,465.59696526266634,j,3.515015223994851,lure,None,,469.03868515230715,,,,,,,,,,,,,,student1,2022-10-25_10h56.17.082,Hippopolis_4AFCT,2022.2.2,59.88776297983654,
Hippopolis,stimuli/subj_files/student1_cityA.csv,./stimuli/frankfurt.jpg,./stimuli/street_plate1.png,HEGESZTŐ UTCA,stimuli/scenes/043a.jpg,scene,0,stimuli/scenes/043a.jpg,stimuli/scenes/043b.jpg,stimuli/scenes/043a.jpg,stimuli/objects/062a.jpg,stimuli/objects/062b.jpg,lure,target,dist1,dist2,0,1,1,0,0,33,33,77,,,,,,,469.13798078522086,470.1931421235204,470.1931421235204,470.1931421235204,470.1931421235204,470.1931421235204,470.1931421235204,470.1931421235204,470.1931421235204,470.1931421235204,470.1931421235204,470.1931421235204,470.1931421235204,f,1.7659824527800083,target,None,,,,,,,,,,,,,,,,student1,2022-10-25_10h56.17.082,Hippopolis_4AFCT,2022.2.2,59.88776297983654,
Hippopolis,stimuli/subj_files/student1_cityA.csv,./stimuli/frankfurt.jpg,./stimuli/street_plate1.png,LÉTRA UTCA,stimuli/objects/047a.jpg,object,1,stimuli/objects/015a.jpg,stimuli/objects/108b.jpg,stimuli/objects/015b.jpg,stimuli/objects/108a.jpg,stimuli/objects/015a.jpg,dist2,lure,dist1,target,0,1,1,0,0,34,34,33,,,,,,,471.9895912390202,473.04430939257145,473.04430939257145,473.04430939257145,473.04430939257145,473.04430939257145,473.04430939257145,473.04430939257145,473.04430939257145,473.04430939257145,473.04430939257145,473.04430939257145,473.04430939257145,k,2.290292266756296,target,None,,,,,,,,,,,,,,,,student1,2022-10-25_10h56.17.082,Hippopolis_4AFCT,2022.2.2,59.88776297983654,
Hippopolis,stimuli/subj_files/student1_cityA.csv,./stimuli/frankfurt.jpg,./stimuli/street_plate1.png,KOCKA UTCA,stimuli/objects/062a.jpg,object,0,stimuli/objects/062a.jpg,stimuli/scenes/095b.jpg,stimuli/objects/062a.jpg,stimuli/objects/062b.jpg,stimuli/scenes/095a.jpg,dist2,target,lure,dist1,0,1,1,0,0,35,35,35,,,,,,,475.3543457556516,476.41064195521176,476.41064195521176,476.41064195521176,476.41064195521176,476.41064195521176,476.41064195521176,476.41064195521176,476.41064195521176,476.41064195521176,476.41064195521176,476.41064195521176,476.41064195521176,f,2.4445732086896896,target,None,,,,,,,,,,,,,,,,student1,2022-10-25_10h56.17.082,Hippopolis_4AFCT,2022.2.2,59.88776297983654,
Hippopolis,stimuli/subj_files/student1_cityA.csv,./stimuli/frankfurt.jpg,./stimuli/street_plate1.png,MOCSÁR UTCA,stimuli/objects/080a.jpg,object,0,stimuli/objects/080a.jpg,stimuli/objects/080b.jpg,stimuli/objects/080a.jpg,stimuli/scenes/043b.jpg,stimuli/scenes/043a.jpg,lure,target,dist2,dist1,0,1,1,0,0,36,36,17,,,,,,,478.87125579454005,479.92541009373963,479.92541009373963,479.92541009373963,479.92541009373963,479.92541009373963,479.92541009373963,479.92541009373963,479.92541009373963,479.92541009373963,479.92541009373963,479.92541009373963,479.92541009373963,f,1.9692021142691374,target,None,,,,,,,,,,,,,,,,student1,2022-10-25_10h56.17.082,Hippopolis_4AFCT,2022.2.2,59.88776297983654,
Hippopolis,stimuli/subj_files/student1_cityA.csv,./stimuli/frankfurt.jpg,./stimuli/street_plate1.png,RÁDIÓ UTCA,stimuli/scenes/068a.jpg,scene,1,stimuli/scenes/067a.jpg,stimuli/scenes/018b.jpg,stimuli/scenes/067a.jpg,stimuli/scenes/067b.jpg,stimuli/scenes/018a.jpg,dist2,target,lure,dist1,0,1,1,0,0,37,37,44,,,,,,,481.92093626596034,482.9752171449363,482.9752171449363,482.9752171449363,482.9752171449363,482.9752171449363,482.9752171449363,482.9752171449363,482.9752171449363,482.9752171449363,482.9752171449363,482.9752171449363,482.9752171449363,f,2.679353177547455,target,None,,,,,,,,,,,,,,,,student1,2022-10-25_10h56.17.082,Hippopolis_4AFCT,2022.2.2,59.88776297983654,
Hippopolis,stimuli/subj_files/student1_cityA.csv,./stimuli/frankfurt.jpg,./stimuli/street_plate1.png,BONBON UTCA,stimuli/objects/095a.jpg,object,2,stimuli/scenes/007a.jpg,stimuli/objects/028b.jpg,stimuli/objects/028a.jpg,stimuli/scenes/007a.jpg,stimuli/scenes/007b.jpg,dist2,dist1,target,lure,0,1,1,0,0,38,38,72,,,,,,,485.6708463858813,486.74798032455146,486.74798032455146,486.74798032455146,486.74798032455146,486.74798032455146,486.74798032455146,486.74798032455146,486.74798032455146,486.74798032455146,486.74798032455146,486.74798032455146,486.74798032455146,d,3.770539630204439,dist2,None,,490.1714929677546,,,,,,,,,,,,,,student1,2022-10-25_10h56.17.082,Hippopolis_4AFCT,2022.2.2,59.88776297983654,
Hippopolis,stimuli/subj_files/student1_cityA.csv,./stimuli/frankfurt.jpg,./stimuli/street_plate1.png,PAPAGÁJ UTCA,stimuli/objects/093a.jpg,object,2,stimuli/scenes/097a.jpg,stimuli/scenes/097a.jpg,stimuli/scenes/109b.jpg,stimuli/scenes/109a.jpg,stimuli/scenes/097b.jpg,target,dist2,dist1,lure,0,1,1,0,0,39,39,55,,,,,,,490.53752012364566,491.5982870403677,491.5982870403677,491.5982870403677,491.5982870403677,491.5982870403677,491.5982870403677,491.5982870403677,491.5982870403677,491.5982870403677,491.5982870403677,491.5982870403677,491.5982870403677,d,2.6962286941707134,target,None,,,,,,,,,,,,,,,,student1,2022-10-25_10h56.17.082,Hippopolis_4AFCT,2022.2.2,59.88776297983654,
Hippopolis,stimuli/subj_files/student1_cityA.csv,./stimuli/frankfurt.jpg,./stimuli/street_plate1.png,BAGOLY UTCA,stimuli/scenes/029a.jpg,scene,2,stimuli/objects/028a.jpg,stimuli/objects/028b.jpg,stimuli/objects/028a.jpg,stimuli/scenes/028a.jpg,stimuli/scenes/028b.jpg,lure,target,dist1,dist2,0,1,1,0,0,40,40,21,,,,,,,494.32073000632226,495.35921051725745,495.35921051725745,495.35921051725745,495.35921051725745,495.35921051725745,495.35921051725745,495.35921051725745,495.35921051725745,495.35921051725745,495.35921051725745,495.35921051725745,495.35921051725745,j,2.407486317679286,dist1,None,,,,,,,,,,,,,,,,student1,2022-10-25_10h56.17.082,Hippopolis_4AFCT,2022.2.2,59.88776297983654,
Hippopolis,stimuli/subj_files/student1_cityA.csv,./stimuli/frankfurt.jpg,./stimuli/street_plate1.png,MUSTÁR UTCA,stimuli/scenes/050a.jpg,scene,0,stimuli/scenes/050a.jpg,stimuli/objects/009a.jpg,stimuli/objects/009b.jpg,stimuli/scenes/050a.jpg,stimuli/scenes/050b.jpg,dist1,dist2,target,lure,0,1,1,0,0,41,41,78,,,,,,,497.7990724556148,498.8737186547369,498.8737186547369,498.8737186547369,498.8737186547369,498.8737186547369,498.8737186547369,498.8737186547369,498.8737186547369,498.8737186547369,498.8737186547369,498.8737186547369,498.8737186547369,j,2.205346157774329,target,None,,,,,,,,,,,,,,,,student1,2022-10-25_10h56.17.082,Hippopolis_4AFCT,2022.2.2,59.88776297983654,
Hippopolis,stimuli/subj_files/student1_cityA.csv,./stimuli/frankfurt.jpg,./stimuli/street_plate1.png,PETÁRDA UTCA,stimuli/objects/009a.jpg,object,0,stimuli/objects/009a.jpg,stimuli/objects/009a.jpg,stimuli/scenes/051a.jpg,stimuli/objects/009b.jpg,stimuli/scenes/051b.jpg,target,dist1,lure,dist2,0,1,1,0,0,42,42,64,,,,,,,501.10429879277945,502.13159613497555,502.13159613497555,502.13159613497555,502.13159613497555,502.13159613497555,502.13159613497555,502.13159613497555,502.13159613497555,502.13159613497555,502.13159613497555,502.13159613497555,502.13159613497555,d,2.2585646398365498,target,None,,,,,,,,,,,,,,,,student1,2022-10-25_10h56.17.082,Hippopolis_4AFCT,2022.2.2,59.88776297983654,
Hippopolis,stimuli/subj_files/student1_cityA.csv,./stimuli/frankfurt.jpg,./stimuli/street_plate1.png,KORONG UTCA,stimuli/scenes/065a.jpg,scene,1,stimuli/scenes/004a.jpg,stimuli/scenes/004a.jpg,stimuli/scenes/011b.jpg,stimuli/scenes/011a.jpg,stimuli/scenes/004b.jpg,target,dist2,dist1,lure,0,1,1,0,0,43,43,53,,,,,,,504.42927683517337,505.47524295933545,505.47524295933545,505.47524295933545,505.47524295933545,505.47524295933545,505.47524295933545,505.47524295933545,505.47524295933545,505.47524295933545,505.47524295933545,505.47524295933545,505.47524295933545,d,3.651552626863122,target,None,,508.93498722463846,,,,,,,,,,,,,,student1,2022-10-25_10h56.17.082,Hippopolis_4AFCT,2022.2.2,59.88776297983654,
Hippopolis,stimuli/subj_files/student1_cityA.csv,./stimuli/frankfurt.jpg,./stimuli/street_plate1.png,KÖTÉL UTCA,stimuli/objects/051a.jpg,object,0,stimuli/objects/051a.jpg,stimuli/scenes/024b.jpg,stimuli/objects/051b.jpg,stimuli/scenes/024a.jpg,stimuli/objects/051a.jpg,dist2,lure,dist1,target,0,1,1,0,0,44,44,7,,,,,,,509.1542013231665,510.1904192622751,510.1904192622751,510.1904192622751,510.1904192622751,510.1904192622751,510.1904192622751,510.1904192622751,510.1904192622751,510.1904192622751,510.1904192622751,510.1904192622751,510.1904192622751,k,2.4559485781937838,target,space,,,512.6706159301102,512.6706159301102,1.3533021621406078,,,,,,,,,,,student1,2022-10-25_10h56.17.082,Hippopolis_4AFCT,2022.2.2,59.88776297983654,
Hippopolis,stimuli/subj_files/student1_cityA.csv,./stimuli/frankfurt.jpg,./stimuli/street_plate1.png,TOLLTARTÓ UTCA,stimuli/objects/032a.jpg,object,2,stimuli/scenes/119a.jpg,stimuli/scenes/119a.jpg,stimuli/scenes/104b.jpg,stimuli/scenes/104a.jpg,stimuli/scenes/119b.jpg,target,dist2,dist1,lure,0,1,1,0,0,45,45,67,,,,,,,514.0520733557642,515.0882452651858,515.0882452651858,515.0882452651858,515.0882452651858,515.0882452651858,515.0882452651858,515.0882452651858,515.0882452651858,515.0882452651858,515.0882452651858,515.0882452651858,515.0882452651858,d,2.373632339760661,target,None,,,,,,,,,,,,,,,,student1,2022-10-25_10h56.17.082,Hippopolis_4AFCT,2022.2.2,59.88776297983654,
Hippopolis,stimuli/subj_files/student1_cityA.csv,./stimuli/frankfurt.jpg,./stimuli/street_plate1.png,KORONA UTCA,stimuli/scenes/108a.jpg,scene,1,stimuli/scenes/011a.jpg,stimuli/objects/076a.jpg,stimuli/scenes/011b.jpg,stimuli/objects/076b.jpg,stimuli/scenes/011a.jpg,dist1,lure,dist2,target,0,1,1,0,0,46,46,9,,,,,,,517.4894786551595,518.5349303726107,518.5349303726107,518.5349303726107,518.5349303726107,518.5349303726107,518.5349303726107,518.5349303726107,518.5349303726107,518.5349303726107,518.5349303726107,518.5349303726107,518.5349303726107,k,2.47936456091702,target,None,,,,,,,,,,,,,,,,student1,2022-10-25_10h56.17.082,Hippopolis_4AFCT,2022.2.2,59.88776297983654,
Hippopolis,stimuli/subj_files/student1_cityA.csv,./stimuli/frankfurt.jpg,./stimuli/street_plate1.png,AKÁC UTCA,stimuli/scenes/081a.jpg,scene,2,stimuli/objects/055a.jpg,stimuli/objects/055b.jpg,stimuli/objects/107b.jpg,stimuli/objects/107a.jpg,stimuli/objects/055a.jpg,lure,dist2,dist1,target,0,1,1,0,0,47,47,74,,,,,,,521.0374181121588,522.1071914639324,522.1071914639324,522.1071914639324,522.1071914639324,522.1071914639324,522.1071914639324,522.1071914639324,522.1071914639324,522.1071914639324,522.1071914639324,522.1071914639324,522.1071914639324,k,1.8828670531511307,target,None,,,,,,,,,,,,,,,,student1,2022-10-25_10h56.17.082,Hippopolis_4AFCT,2022.2.2,59.88776297983654,
Hippopolis,stimuli/subj_files/student1_cityA.csv,./stimuli/frankfurt.jpg,./stimuli/street_plate1.png,KIRAKÓ UTCA,stimuli/objects/079a.jpg,object,2,stimuli/scenes/070a.jpg,stimuli/scenes/070a.jpg,stimuli/scenes/070b.jpg,stimuli/objects/043b.jpg,stimuli/objects/043a.jpg,target,lure,dist2,dist1,0,1,1,0,0,48,48,57,,,,,,,524.0203718524426,525.0777609292418,525.0777609292418,525.0777609292418,525.0777609292418,525.0777609292418,525.0777609292418,525.0777609292418,525.0777609292418,525.0777609292418,525.0777609292418,525.0777609292418,525.0777609292418,d,2.4003835543990135,target,None,,,,,,,,,,,,,,,,student1,2022-10-25_10h56.17.082,Hippopolis_4AFCT,2022.2.2,59.88776297983654,
Hippopolis,stimuli/subj_files/student1_cityA.csv,./stimuli/frankfurt.jpg,./stimuli/street_plate1.png,HAJÓ UTCA,stimuli/objects/086a.jpg,object,1,stimuli/objects/041a.jpg,stimuli/scenes/014a.jpg,stimuli/scenes/014b.jpg,stimuli/objects/041a.jpg,stimuli/objects/041b.jpg,dist1,dist2,target,lure,0,1,1,0,0,49,49,71,,,,,,,527.5037012882531,528.5359909050167,528.5359909050167,528.5359909050167,528.5359909050167,528.5359909050167,528.5359909050167,528.5359909050167,528.5359909050167,528.5359909050167,528.5359909050167,528.5359909050167,528.5359909050167,j,1.4378336984664202,target,None,,,,,,,,,,,,,,,,student1,2022-10-25_10h56.17.082,Hippopolis_4AFCT,2022.2.2,59.88776297983654,
Hippopolis,stimuli/subj_files/student1_cityA.csv,./stimuli/frankfurt.jpg,./stimuli/street_plate1.png,MUNKA UTCA,stimuli/scenes/039a.jpg,scene,2,stimuli/objects/067a.jpg,stimuli/scenes/097a.jpg,stimuli/objects/067b.jpg,stimuli/objects/067a.jpg,stimuli/scenes/097b.jpg,dist1,lure,target,dist2,0,1,1,0,0,50,50,4,,,,,,,530.0038552358747,531.0377720370889,531.0377720370889,531.0377720370889,531.0377720370889,531.0377720370889,531.0377720370889,531.0377720370889,531.0377720370889,531.0377720370889,531.0377720370889,531.0377720370889,531.0377720370889,f,3.720754036679864,lure,None,531.0377720370889,534.5045861005783,,,,,,,,,,,,,,student1,2022-10-25_10h56.17.082,Hippopolis_4AFCT,2022.2.2,59.88776297983654,
Hippopolis,stimuli/subj_files/student1_cityA.csv,./stimuli/frankfurt.jpg,./stimuli/street_plate1.png,DOMINÓ UTCA,stimuli/scenes/042a.jpg,scene,0,stimuli/scenes/042a.jpg,stimuli/scenes/042a.jpg,stimuli/scenes/042b.jpg,stimuli/objects/070a.jpg,stimuli/objects/070b.jpg,target,lure,dist1,dist2,0,1,1,0,0,51,51,63,,,,,,,534.7852485328913,535.8395443391055,535.8395443391055,535.8395443391055,535.8395443391055,535.8395443391055,535.8395443391055,535.8395443391055,535.8395443391055,535.8395443391055,535.8395443391055,535.8395443391055,535.8395443391055,d,2.1345635931938887,target,None,,,,,,,,,,,,,,,,student1,2022-10-25_10h56.17.082,Hippopolis_4AFCT,2022.2.2,59.88776297983654,
Hippopolis,stimuli/subj_files/student1_cityA.csv,./stimuli/frankfurt.jpg,./stimuli/street_plate1.png,HEGEDŰ UTCA,stimuli/scenes/113a.jpg,scene,2,stimuli/objects/036a.jpg,stimuli/objects/036b.jpg,stimuli/scenes/059b.jpg,stimuli/scenes/059a.jpg,stimuli/objects/036a.jpg,lure,dist2,dist1,target,0,1,1,0,0,52,52,69,,,,,,,538.0037252344191,539.0568454377353,539.0568454377353,539.0568454377353,539.0568454377353,539.0568454377353,539.0568454377353,539.0568454377353,539.0568454377353,539.0568454377353,539.0568454377353,539.0568454377353,539.0568454377353,k,2.021113747730851,target,None,,,,,,,,,,,,,,,,student1,2022-10-25_10h56.17.082,Hippopolis_4AFCT,2022.2.2,59.88776297983654,
Hippopolis,stimuli/subj_files/student1_cityA.csv,./stimuli/frankfurt.jpg,./stimuli/street_plate1.png,KULLANCS UTCA,stimuli/objects/089a.jpg,object,0,stimuli/objects/089a.jpg,stimuli/scenes/072a.jpg,stimuli/objects/089a.jpg,stimuli/scenes/072b.jpg,stimuli/objects/089b.jpg,dist1,target,dist2,lure,0,1,1,0,0,53,53,34,,,,,,,541.116087179631,542.1558278873563,542.1558278873563,542.1558278873563,542.1558278873563,542.1558278873563,542.1558278873563,542.1558278873563,542.1558278873563,542.1558278873563,542.1558278873563,542.1558278873563,542.1558278873563,f,2.522506123408675,target,None,,,,,,,,,,,,,,,,student1,2022-10-25_10h56.17.082,Hippopolis_4AFCT,2022.2.2,59.88776297983654,
Hippopolis,stimuli/subj_files/student1_cityA.csv,./stimuli/frankfurt.jpg,./stimuli/street_plate1.png,TOJÁS UTCA,stimuli/objects/021a.jpg,object,2,stimuli/scenes/034a.jpg,stimuli/scenes/034a.jpg,stimuli/objects/059a.jpg,stimuli/objects/059b.jpg,stimuli/scenes/034b.jpg,target,dist1,dist2,lure,0,1,1,0,0,54,54,37,,,,,,,544.703578254208,545.7526488415897,545.7526488415897,545.7526488415897,545.7526488415897,545.7526488415897,545.7526488415897,545.7526488415897,545.7526488415897,545.7526488415897,545.7526488415897,545.7526488415897,545.7526488415897,d,2.685155624523759,target,None,,,,,,,,,,,,,,,,student1,2022-10-25_10h56.17.082,Hippopolis_4AFCT,2022.2.2,59.88776297983654,
Hippopolis,stimuli/subj_files/student1_cityA.csv,./stimuli/frankfurt.jpg,./stimuli/street_plate1.png,SIVATAG UTCA,stimuli/scenes/016a.jpg,scene,2,stimuli/objects/046a.jpg,stimuli/objects/046b.jpg,stimuli/objects/006a.jpg,stimuli/objects/006b.jpg,stimuli/objects/046a.jpg,lure,dist1,dist2,target,0,1,1,0,0,55,55,23,,,,,,,548.4703579805791,549.5273184906691,549.5273184906691,549.5273184906691,549.5273184906691,549.5273184906691,549.5273184906691,549.5273184906691,549.5273184906691,549.5273184906691,549.5273184906691,549.5273184906691,549.5273184906691,f,2.52641049772501,dist1,None,,,,,,,,,,,,,,,,student1,2022-10-25_10h56.17.082,Hippopolis_4AFCT,2022.2.2,59.88776297983654,
Hippopolis,stimuli/subj_files/student1_cityA.csv,./stimuli/frankfurt.jpg,./stimuli/street_plate1.png,TELEP UTCA,stimuli/scenes/048a.jpg,scene,2,stimuli/objects/120a.jpg,stimuli/objects/120a.jpg,stimuli/objects/120b.jpg,stimuli/scenes/119b.jpg,stimuli/scenes/119a.jpg,target,lure,dist2,dist1,0,1,1,0,0,56,56,75,,,,,,,552.0811446774751,553.1296259090304,553.1296259090304,553.1296259090304,553.1296259090304,553.1296259090304,553.1296259090304,553.1296259090304,553.1296259090304,553.1296259090304,553.1296259090304,553.1296259090304,553.1296259090304,d,2.1883844919502735,target,None,,,,,,,,,,,,,,,,student1,2022-10-25_10h56.17.082,Hippopolis_4AFCT,2022.2.2,59.88776297983654,
Hippopolis,stimuli/subj_files/student1_cityA.csv,./stimuli/frankfurt.jpg,./stimuli/street_plate1.png,KÖTÉNY UTCA,stimuli/scenes/031a.jpg,scene,1,stimuli/scenes/064a.jpg,stimuli/objects/103a.jpg,stimuli/objects/103b.jpg,stimuli/scenes/064b.jpg,stimuli/scenes/064a.jpg,dist1,dist2,lure,target,0,1,1,0,0,57,57,22,,,,,,,555.3371676281095,556.4181029982865,556.4181029982865,556.4181029982865,556.4181029982865,556.4181029982865,556.4181029982865,556.4181029982865,556.4181029982865,556.4181029982865,556.4181029982865,556.4181029982865,556.4181029982865,j,2.9793763794004917,lure,None,,,,,,,,,,,,,,,,student1,2022-10-25_10h56.17.082,Hippopolis_4AFCT,2022.2.2,59.88776297983654,
Hippopolis,stimuli/subj_files/student1_cityA.csv,./stimuli/frankfurt.jpg,./stimuli/street_plate1.png,FÉNYKÉP UTCA,stimuli/scenes/010a.jpg,scene,1,stimuli/scenes/078a.jpg,stimuli/scenes/088a.jpg,stimuli/scenes/078a.jpg,stimuli/scenes/088b.jpg,stimuli/scenes/078b.jpg,dist1,target,dist2,lure,0,1,1,0,0,58,58,32,,,,,,,559.4203288704157,560.4577242806554,560.4577242806554,560.4577242806554,560.4577242806554,560.4577242806554,560.4577242806554,560.4577242806554,560.4577242806554,560.4577242806554,560.4577242806554,560.4577242806554,560.4577242806554,f,3.8837671037763357,target,None,,563.9207157623023,,,,,,,,,,,,,,student1,2022-10-25_10h56.17.082,Hippopolis_4AFCT,2022.2.2,59.88776297983654,
Hippopolis,stimuli/subj_files/student1_cityA.csv,./stimuli/frankfurt.jpg,./stimuli/street_plate1.png,FÓKA UTCA,stimuli/scenes/058a.jpg,scene,0,stimuli/scenes/058a.jpg,stimuli/scenes/058a.jpg,stimuli/scenes/058b.jpg,stimuli/objects/111b.jpg,stimuli/objects/111a.jpg,target,lure,dist2,dist1,0,1,1,0,0,59,59,51,,,,,,,564.3744485862553,565.406881576404,565.406881576404,565.406881576404,565.406881576404,565.406881576404,565.406881576404,565.406881576404,565.406881576404,565.406881576404,565.406881576404,565.406881576404,565.406881576404,d,1.7664806842803955,target,None,565.406881576404,,,,,,,,,,,,,,,student1,2022-10-25_10h56.17.082,Hippopolis_4AFCT,2022.2.2,59.88776297983654,
Hippopolis,stimuli/subj_files/student1_cityA.csv,./stimuli/frankfurt.jpg,./stimuli/street_plate1.png,HÁRFA UTCA,stimuli/objects/083a.jpg,object,2,stimuli/scenes/028a.jpg,stimuli/scenes/028b.jpg,stimuli/objects/012b.jpg,stimuli/objects/012a.jpg,stimuli/scenes/028a.jpg,lure,dist2,dist1,target,0,1,1,0,0,60,60,16,,,,,,,567.2035284917802,568.2454879190773,568.2454879190773,568.2454879190773,568.2454879190773,568.2454879190773,568.2454879190773,568.2454879190773,568.2454879190773,568.2454879190773,568.2454879190773,568.2454879190773,568.2454879190773,j,4.223732544109225,dist1,None,568.2454879190773,571.7040149066597,,,,,,,,,,,,,,student1,2022-10-25_10h56.17.082,Hippopolis_4AFCT,2022.2.2,59.88776297983654,
Hippopolis,stimuli/subj_files/student1_cityA.csv,./stimuli/frankfurt.jpg,./stimuli/street_plate1.png,HARMONIKA UTCA,stimuli/scenes/024a.jpg,scene,0,stimuli/scenes/024a.jpg,stimuli/scenes/101b.jpg,stimuli/scenes/024b.jpg,stimuli/scenes/101a.jpg,stimuli/scenes/024a.jpg,dist2,lure,dist1,target,0,1,1,0,0,61,61,25,,,,,,,572.4883481469005,573.5107200797647,573.5107200797647,573.5107200797647,573.5107200797647,573.5107200797647,573.5107200797647,573.5107200797647,573.5107200797647,573.5107200797647,573.5107200797647,573.5107200797647,573.5107200797647,k,2.3507102355360985,target,None,,,,,,,,,,,,,,,,student1,2022-10-25_10h56.17.082,Hippopolis_4AFCT,2022.2.2,59.88776297983654,
Hippopolis,stimuli/subj_files/student1_cityA.csv,./stimuli/frankfurt.jpg,./stimuli/street_plate1.png,KOKTÉL UTCA,stimuli/scenes/008a.jpg,scene,2,stimuli/objects/012a.jpg,stimuli/objects/036b.jpg,stimuli/objects/012b.jpg,stimuli/objects/036a.jpg,stimuli/objects/012a.jpg,dist2,lure,dist1,target,0,1,1,0,0,62,62,46,,,,,,,575.8864288628101,576.9564942494035,576.9564942494035,576.9564942494035,576.9564942494035,576.9564942494035,576.9564942494035,576.9564942494035,576.9564942494035,576.9564942494035,576.9564942494035,576.9564942494035,576.9564942494035,j,4.7930686213076115,dist1,None,,580.3721561580896,,,,,,,,,,,,,,student1,2022-10-25_10h56.17.082,Hippopolis_4AFCT,2022.2.2,59.88776297983654,
