CityName,StimuliFile,CityImage,StreetSign,Cue,Image,Category,Novelty,UpdateImage,TestImage1,TestImage2,TestImage3,TestImage4,TestImage1Type,TestImage2Type,TestImage3Type,TestImage4Type,CityBlock.thisRepN,CityBlock.thisTrialN,CityBlock.thisN,CityBlock.thisIndex,LearningTrials.thisRepN,LearningTrials.thisTrialN,LearningTrials.thisN,LearningTrials.thisIndex,learning_instructions_text.started,learning_instructions_text.stopped,intro_key.keys,intro_key.rt,intro_key.started,intro_key.stopped,cityname_text.started,cityname_text.stopped,city_image.started,city_image.stopped,fx_cross.started,fx_cross.stopped,plate_updating.started,plate_updating.stopped,city_text_updating.started,city_text_updating.stopped,street_text_updating.started,street_text_updating.stopped,test_image1.started,test_image1.stopped,test_image2.started,test_image2.stopped,test_image3.started,test_image3.stopped,test_image4.started,test_image4.stopped,button_d.started,button_d.stopped,button_f.started,button_f.stopped,button_j.started,button_j.stopped,button_k.started,button_k.stopped,key_resp.keys,key_resp.rt,key_resp.started,key_resp.stopped,test_resp,short_break_text.started,short_break_text.stopped,short_break_key.keys,short_break_key.started,short_break_key.stopped,short_break_key.rt,n_targets,n_lures,n_dist1s,n_dist2s,break_text.started,break_text.stopped,break_key_resp.keys,break_key_resp.rt,break_key_resp.started,break_key_resp.stopped,end_text.started,end_text.stopped,participant,date,expName,psychopyVersion,frameRate,
,,,,,,,,,,,,,,,,,,,,,,,,,11.305886699992698,None,space,28.257139600027585,11.305886699992698,None,,,,,,,,,,,,,,,,,,,,,,,,,,,,,,,,,,,,,,,,,,,,,,,,,,,,student1,2022-10-21_13h18.17.988,Hippopolis_4AFCT,2021.1.4,59.71539641903648,
Camponello,stimuli/subj_files/student1_cityB.csv,./stimuli/leipzig.jpg,./stimuli/street_plate2.png,MANDARIN UTCA,stimuli/scenes/075a.jpg,scene,0,stimuli/scenes/075a.jpg,stimuli/objects/072a.jpg,stimuli/objects/072b.jpg,stimuli/scenes/075b.jpg,stimuli/scenes/075a.jpg,dist1,dist2,lure,target,0,0,0,1,0,0,0,37,,,,,,,39.66872539999895,None,39.66872539999895,None,42.5982732999837,None,43.645629300008295,None,43.645629300008295,None,43.645629300008295,None,43.645629300008295,None,43.645629300008295,None,43.645629300008295,None,43.645629300008295,None,43.645629300008295,None,43.645629300008295,None,43.645629300008295,None,43.645629300008295,None,k,3.341362899984233,43.645629300008295,None,target,None,None,None,None,None,,,,,,,,,,,,,,student1,2022-10-21_13h18.17.988,Hippopolis_4AFCT,2021.1.4,59.71539641903648,
Camponello,stimuli/subj_files/student1_cityB.csv,./stimuli/leipzig.jpg,./stimuli/street_plate2.png,KÁRTYA UTCA,stimuli/scenes/076a.jpg,scene,0,stimuli/scenes/076a.jpg,stimuli/objects/008a.jpg,stimuli/scenes/076b.jpg,stimuli/scenes/076a.jpg,stimuli/objects/008b.jpg,dist1,lure,target,dist2,0,0,0,1,0,1,1,64,,,,,,,,,,,47.004034199984744,None,48.02509189999546,None,48.02509189999546,None,48.02509189999546,None,48.02509189999546,None,48.02509189999546,None,48.02509189999546,None,48.02509189999546,None,48.02509189999546,None,48.02509189999546,None,48.02509189999546,None,48.02509189999546,None,j,3.5170637000119314,48.02509189999546,None,target,None,None,None,None,None,,,,,,,,,,,,,,student1,2022-10-21_13h18.17.988,Hippopolis_4AFCT,2021.1.4,59.71539641903648,
Camponello,stimuli/subj_files/student1_cityB.csv,./stimuli/leipzig.jpg,./stimuli/street_plate2.png,REPÜLŐ UTCA,stimuli/scenes/098a.jpg,scene,0,stimuli/scenes/098a.jpg,stimuli/scenes/013a.jpg,stimuli/scenes/013b.jpg,stimuli/scenes/098a.jpg,stimuli/scenes/098b.jpg,dist1,dist2,target,lure,0,0,0,1,0,2,2,66,,,,,,,,,,,51.570857099985005,None,52.59727070000372,None,52.59727070000372,None,52.59727070000372,None,52.59727070000372,None,52.59727070000372,None,52.59727070000372,None,52.59727070000372,None,52.59727070000372,None,52.59727070000372,None,52.59727070000372,None,52.59727070000372,None,j,2.9062716999906115,52.59727070000372,None,target,None,None,None,None,None,,,,,,,,,,,,,,student1,2022-10-21_13h18.17.988,Hippopolis_4AFCT,2021.1.4,59.71539641903648,
Camponello,stimuli/subj_files/student1_cityB.csv,./stimuli/leipzig.jpg,./stimuli/street_plate2.png,SÜTEMÉNY UTCA,stimuli/objects/074a.jpg,object,2,stimuli/scenes/102a.jpg,stimuli/objects/061b.jpg,stimuli/objects/061a.jpg,stimuli/scenes/102a.jpg,stimuli/scenes/102b.jpg,dist2,dist1,target,lure,0,0,0,1,0,3,3,32,,,,,,,,,,,55.5206460999907,None,56.54362969999784,None,56.54362969999784,None,56.54362969999784,None,56.54362969999784,None,56.54362969999784,None,56.54362969999784,None,56.54362969999784,None,56.54362969999784,None,56.54362969999784,None,56.54362969999784,None,56.54362969999784,None,f,3.249380299996119,56.54362969999784,None,dist1,None,None,None,None,None,,,,,,,,,,,,,,student1,2022-10-21_13h18.17.988,Hippopolis_4AFCT,2021.1.4,59.71539641903648,
Camponello,stimuli/subj_files/student1_cityB.csv,./stimuli/leipzig.jpg,./stimuli/street_plate2.png,HENTES UTCA,stimuli/scenes/092a.jpg,scene,0,stimuli/scenes/092a.jpg,stimuli/scenes/114b.jpg,stimuli/scenes/114a.jpg,stimuli/scenes/092a.jpg,stimuli/scenes/092b.jpg,dist2,dist1,target,lure,0,0,0,1,0,4,4,46,,,,,,,,,,,59.82083879999118,None,60.85671849999926,None,60.85671849999926,None,60.85671849999926,None,60.85671849999926,None,60.85671849999926,None,60.85671849999926,None,60.85671849999926,None,60.85671849999926,None,60.85671849999926,None,60.85671849999926,None,60.85671849999926,None,j,3.794064099987736,60.85671849999926,None,target,None,None,None,None,None,,,,,,,,,,,,,,student1,2022-10-21_13h18.17.988,Hippopolis_4AFCT,2021.1.4,59.71539641903648,
Camponello,stimuli/subj_files/student1_cityB.csv,./stimuli/leipzig.jpg,./stimuli/street_plate2.png,KESELYŰ UTCA,stimuli/objects/003a.jpg,object,2,stimuli/scenes/100a.jpg,stimuli/objects/029a.jpg,stimuli/scenes/100b.jpg,stimuli/objects/029b.jpg,stimuli/scenes/100a.jpg,dist1,lure,dist2,target,0,0,0,1,0,5,5,6,,,,,,,,,,,64.66984359998605,None,65.69959489998291,None,65.69959489998291,None,65.69959489998291,None,65.69959489998291,None,65.69959489998291,None,65.69959489998291,None,65.69959489998291,None,65.69959489998291,None,65.69959489998291,None,65.69959489998291,None,65.69959489998291,None,None,,65.69959489998291,None,invalid,None,None,None,None,None,,,,,,,,,,,,,,student1,2022-10-21_13h18.17.988,Hippopolis_4AFCT,2021.1.4,59.71539641903648,
Camponello,stimuli/subj_files/student1_cityB.csv,./stimuli/leipzig.jpg,./stimuli/street_plate2.png,ZÁSZLÓ UTCA,stimuli/scenes/103a.jpg,scene,2,stimuli/objects/037a.jpg,stimuli/scenes/102b.jpg,stimuli/objects/037b.jpg,stimuli/scenes/102a.jpg,stimuli/objects/037a.jpg,dist2,lure,dist1,target,0,0,0,1,0,6,6,60,,,,,,,,,,,70.68687199999113,None,71.701997199998,None,71.701997199998,None,71.701997199998,None,71.701997199998,None,71.701997199998,None,71.701997199998,None,71.701997199998,None,71.701997199998,None,71.701997199998,None,71.701997199998,None,71.701997199998,None,k,3.4975710999860894,71.701997199998,None,target,None,None,None,None,None,,,,,,,,,,,,,,student1,2022-10-21_13h18.17.988,Hippopolis_4AFCT,2021.1.4,59.71539641903648,
Camponello,stimuli/subj_files/student1_cityB.csv,./stimuli/leipzig.jpg,./stimuli/street_plate2.png,ZEBRA UTCA,stimuli/scenes/106a.jpg,scene,0,stimuli/scenes/106a.jpg,stimuli/scenes/030a.jpg,stimuli/scenes/106a.jpg,stimuli/scenes/106b.jpg,stimuli/scenes/030b.jpg,dist1,target,lure,dist2,0,0,0,1,0,7,7,12,,,,,,,,,,,75.22020700000576,None,76.24278999998933,None,76.24278999998933,None,76.24278999998933,None,76.24278999998933,None,76.24278999998933,None,76.24278999998933,None,76.24278999998933,None,76.24278999998933,None,76.24278999998933,None,76.24278999998933,None,76.24278999998933,None,f,3.249705599999288,76.24278999998933,None,target,None,None,None,None,None,,,,,,,,,,,,,,student1,2022-10-21_13h18.17.988,Hippopolis_4AFCT,2021.1.4,59.71539641903648,
Camponello,stimuli/subj_files/student1_cityB.csv,./stimuli/leipzig.jpg,./stimuli/street_plate2.png,VÁSÁR UTCA,stimuli/scenes/089a.jpg,scene,0,stimuli/scenes/089a.jpg,stimuli/scenes/089a.jpg,stimuli/scenes/089b.jpg,stimuli/scenes/082b.jpg,stimuli/scenes/082a.jpg,target,lure,dist2,dist1,0,0,0,1,0,8,8,41,,,,,,,,,,,79.52003459999105,None,80.53485170000931,None,80.53485170000931,None,80.53485170000931,None,80.53485170000931,None,80.53485170000931,None,80.53485170000931,None,80.53485170000931,None,80.53485170000931,None,80.53485170000931,None,80.53485170000931,None,80.53485170000931,None,None,,80.53485170000931,None,invalid,None,None,None,None,None,,,,,,,,,,,,,,student1,2022-10-21_13h18.17.988,Hippopolis_4AFCT,2021.1.4,59.71539641903648,
Camponello,stimuli/subj_files/student1_cityB.csv,./stimuli/leipzig.jpg,./stimuli/street_plate2.png,RIBIZLI UTCA,stimuli/objects/088a.jpg,object,0,stimuli/objects/088a.jpg,stimuli/objects/088b.jpg,stimuli/objects/065a.jpg,stimuli/objects/088a.jpg,stimuli/objects/065b.jpg,lure,dist1,target,dist2,0,0,0,1,0,9,9,34,,,,,,,,,,,85.53645549999783,None,86.56371049999143,None,86.56371049999143,None,86.56371049999143,None,86.56371049999143,None,86.56371049999143,None,86.56371049999143,None,86.56371049999143,None,86.56371049999143,None,86.56371049999143,None,86.56371049999143,None,86.56371049999143,None,j,2.040151099994546,86.56371049999143,None,target,None,None,None,None,None,,,,,,,,,,,,,,student1,2022-10-21_13h18.17.988,Hippopolis_4AFCT,2021.1.4,59.71539641903648,
Camponello,stimuli/subj_files/student1_cityB.csv,./stimuli/leipzig.jpg,./stimuli/street_plate2.png,LABDA UTCA,stimuli/objects/082a.jpg,object,0,stimuli/objects/082a.jpg,stimuli/scenes/049a.jpg,stimuli/scenes/049b.jpg,stimuli/objects/082b.jpg,stimuli/objects/082a.jpg,dist1,dist2,lure,target,0,0,0,1,0,10,10,72,,,,,,,,,,,88.63603399999556,None,89.6729381000041,None,89.6729381000041,None,89.6729381000041,None,89.6729381000041,None,89.6729381000041,None,89.6729381000041,None,89.6729381000041,None,89.6729381000041,None,89.6729381000041,None,89.6729381000041,None,89.6729381000041,None,k,3.2245081000146456,89.6729381000041,None,target,None,None,None,None,None,,,,,,,,,,,,,,student1,2022-10-21_13h18.17.988,Hippopolis_4AFCT,2021.1.4,59.71539641903648,
Camponello,stimuli/subj_files/student1_cityB.csv,./stimuli/leipzig.jpg,./stimuli/street_plate2.png,KATONA UTCA,stimuli/objects/077a.jpg,object,0,stimuli/objects/077a.jpg,stimuli/objects/077a.jpg,stimuli/scenes/115a.jpg,stimuli/scenes/115b.jpg,stimuli/objects/077b.jpg,target,dist1,dist2,lure,0,0,0,1,0,11,11,74,,,,,,,,,,,92.91951529998914,None,93.95438519999152,None,93.95438519999152,None,93.95438519999152,None,93.95438519999152,None,93.95438519999152,None,93.95438519999152,None,93.95438519999152,None,93.95438519999152,None,93.95438519999152,None,93.95438519999152,None,93.95438519999152,None,d,2.91054380001151,93.95438519999152,None,target,None,None,None,None,None,,,,,,,,,,,,,,student1,2022-10-21_13h18.17.988,Hippopolis_4AFCT,2021.1.4,59.71539641903648,
Camponello,stimuli/subj_files/student1_cityB.csv,./stimuli/leipzig.jpg,./stimuli/street_plate2.png,KRÉTA UTCA,stimuli/scenes/091a.jpg,scene,0,stimuli/scenes/091a.jpg,stimuli/scenes/098b.jpg,stimuli/scenes/091b.jpg,stimuli/scenes/098a.jpg,stimuli/scenes/091a.jpg,dist2,lure,dist1,target,0,0,0,1,0,12,12,21,,,,,,,,,,,96.88558569998713,None,97.90920480000204,None,97.90920480000204,None,97.90920480000204,None,97.90920480000204,None,97.90920480000204,None,97.90920480000204,None,97.90920480000204,None,97.90920480000204,None,97.90920480000204,None,97.90920480000204,None,97.90920480000204,None,k,3.4044031999947038,97.90920480000204,None,target,None,None,None,None,None,,,,,,,,,,,,,,student1,2022-10-21_13h18.17.988,Hippopolis_4AFCT,2021.1.4,59.71539641903648,
Camponello,stimuli/subj_files/student1_cityB.csv,./stimuli/leipzig.jpg,./stimuli/street_plate2.png,MOSODA UTCA,stimuli/objects/052a.jpg,object,0,stimuli/objects/052a.jpg,stimuli/objects/052b.jpg,stimuli/scenes/035a.jpg,stimuli/objects/052a.jpg,stimuli/scenes/035b.jpg,lure,dist1,target,dist2,0,0,0,1,0,13,13,51,,,,,,,,,,,101.33599439999671,None,102.35685399998329,None,102.35685399998329,None,102.35685399998329,None,102.35685399998329,None,102.35685399998329,None,102.35685399998329,None,102.35685399998329,None,102.35685399998329,None,102.35685399998329,None,102.35685399998329,None,102.35685399998329,None,j,2.7970450000138953,102.35685399998329,None,target,None,None,None,None,None,,,,,,,,,,,,,,student1,2022-10-21_13h18.17.988,Hippopolis_4AFCT,2021.1.4,59.71539641903648,
Camponello,stimuli/subj_files/student1_cityB.csv,./stimuli/leipzig.jpg,./stimuli/street_plate2.png,TENISZ UTCA,stimuli/objects/102a.jpg,object,0,stimuli/objects/102a.jpg,stimuli/objects/102b.jpg,stimuli/objects/102a.jpg,stimuli/scenes/038a.jpg,stimuli/scenes/038b.jpg,lure,target,dist1,dist2,0,0,0,1,0,14,14,75,,,,,,,,,,,105.18603929999517,None,106.20618199999444,None,106.20618199999444,None,106.20618199999444,None,106.20618199999444,None,106.20618199999444,None,106.20618199999444,None,106.20618199999444,None,106.20618199999444,None,106.20618199999444,None,106.20618199999444,None,106.20618199999444,None,f,3.1306122000096366,106.20618199999444,None,target,None,None,None,None,None,,,,,,,,,,,,,,student1,2022-10-21_13h18.17.988,Hippopolis_4AFCT,2021.1.4,59.71539641903648,
Camponello,stimuli/subj_files/student1_cityB.csv,./stimuli/leipzig.jpg,./stimuli/street_plate2.png,KUTYA UTCA,stimuli/scenes/030a.jpg,scene,0,stimuli/scenes/030a.jpg,stimuli/scenes/030b.jpg,stimuli/scenes/052b.jpg,stimuli/scenes/052a.jpg,stimuli/scenes/030a.jpg,lure,dist2,dist1,target,0,0,0,1,0,15,15,35,,,,,,,,,,,109.36964309998439,None,110.38467989998753,None,110.38467989998753,None,110.38467989998753,None,110.38467989998753,None,110.38467989998753,None,110.38467989998753,None,110.38467989998753,None,110.38467989998753,None,110.38467989998753,None,110.38467989998753,None,110.38467989998753,None,k,3.5345977999968454,110.38467989998753,None,target,None,None,None,None,None,,,,,,,,,,,,,,student1,2022-10-21_13h18.17.988,Hippopolis_4AFCT,2021.1.4,59.71539641903648,
Camponello,stimuli/subj_files/student1_cityB.csv,./stimuli/leipzig.jpg,./stimuli/street_plate2.png,MAJOM UTCA,stimuli/objects/018a.jpg,object,0,stimuli/objects/018a.jpg,stimuli/objects/018a.jpg,stimuli/scenes/092b.jpg,stimuli/objects/018b.jpg,stimuli/scenes/092a.jpg,target,dist2,lure,dist1,0,0,0,1,0,16,16,78,,,,,,,,,,,113.93635299999733,None,114.95304759999271,None,114.95304759999271,None,114.95304759999271,None,114.95304759999271,None,114.95304759999271,None,114.95304759999271,None,114.95304759999271,None,114.95304759999271,None,114.95304759999271,None,114.95304759999271,None,114.95304759999271,None,d,3.313944299996365,114.95304759999271,None,target,None,None,None,None,None,,,,,,,,,,,,,,student1,2022-10-21_13h18.17.988,Hippopolis_4AFCT,2021.1.4,59.71539641903648,
Camponello,stimuli/subj_files/student1_cityB.csv,./stimuli/leipzig.jpg,./stimuli/street_plate2.png,FOLYÓ UTCA,stimuli/scenes/035a.jpg,scene,0,stimuli/scenes/035a.jpg,stimuli/objects/034a.jpg,stimuli/scenes/035a.jpg,stimuli/objects/034b.jpg,stimuli/scenes/035b.jpg,dist1,target,dist2,lure,0,0,0,1,0,17,17,61,,,,,,,,,,,118.28614519999246,None,119.3143979999877,None,119.3143979999877,None,119.3143979999877,None,119.3143979999877,None,119.3143979999877,None,119.3143979999877,None,119.3143979999877,None,119.3143979999877,None,119.3143979999877,None,119.3143979999877,None,119.3143979999877,None,None,,119.3143979999877,None,invalid,None,None,None,None,None,,,,,,,,,,,,,,student1,2022-10-21_13h18.17.988,Hippopolis_4AFCT,2021.1.4,59.71539641903648,
Camponello,stimuli/subj_files/student1_cityB.csv,./stimuli/leipzig.jpg,./stimuli/street_plate2.png,SZAXOFON UTCA,stimuli/objects/117a.jpg,object,0,stimuli/objects/117a.jpg,stimuli/scenes/021a.jpg,stimuli/objects/117a.jpg,stimuli/objects/117b.jpg,stimuli/scenes/021b.jpg,dist1,target,lure,dist2,0,0,0,1,0,18,18,20,,,,,,,,,,,124.30210870000883,None,125.3247832999914,None,125.3247832999914,None,125.3247832999914,None,125.3247832999914,None,125.3247832999914,None,125.3247832999914,None,125.3247832999914,None,125.3247832999914,None,125.3247832999914,None,125.3247832999914,None,125.3247832999914,None,f,3.4608256999927107,125.3247832999914,None,target,None,None,None,None,None,,,,,,,,,,,,,,student1,2022-10-21_13h18.17.988,Hippopolis_4AFCT,2021.1.4,59.71539641903648,
Camponello,stimuli/subj_files/student1_cityB.csv,./stimuli/leipzig.jpg,./stimuli/street_plate2.png,LOVAGLÁS UTCA,stimuli/objects/019a.jpg,object,0,stimuli/objects/019a.jpg,stimuli/objects/019b.jpg,stimuli/objects/019a.jpg,stimuli/scenes/017b.jpg,stimuli/scenes/017a.jpg,lure,target,dist2,dist1,0,0,0,1,0,19,19,53,,,,,,,,,,,128.80216980000841,None,129.82427789998474,None,129.82427789998474,None,129.82427789998474,None,129.82427789998474,None,129.82427789998474,None,129.82427789998474,None,129.82427789998474,None,129.82427789998474,None,129.82427789998474,None,129.82427789998474,None,129.82427789998474,None,f,1.91408849999425,129.82427789998474,None,target,None,None,None,None,None,,,,,,,,,,,,,,student1,2022-10-21_13h18.17.988,Hippopolis_4AFCT,2021.1.4,59.71539641903648,
Camponello,stimuli/subj_files/student1_cityB.csv,./stimuli/leipzig.jpg,./stimuli/street_plate2.png,TISZTÁS UTCA,stimuli/objects/116a.jpg,object,0,stimuli/objects/116a.jpg,stimuli/objects/058a.jpg,stimuli/objects/116a.jpg,stimuli/objects/116b.jpg,stimuli/objects/058b.jpg,dist1,target,lure,dist2,0,0,0,1,0,20,20,18,,,,,,,,,,,131.76868559999275,None,132.79503229999682,None,132.79503229999682,None,132.79503229999682,None,132.79503229999682,None,132.79503229999682,None,132.79503229999682,None,132.79503229999682,None,132.79503229999682,None,132.79503229999682,None,132.79503229999682,None,132.79503229999682,None,None,,132.79503229999682,None,invalid,None,None,None,None,None,,,,,,,,,,,,,,student1,2022-10-21_13h18.17.988,Hippopolis_4AFCT,2021.1.4,59.71539641903648,
Camponello,stimuli/subj_files/student1_cityB.csv,./stimuli/leipzig.jpg,./stimuli/street_plate2.png,SAJTÓ UTCA,stimuli/scenes/112a.jpg,scene,0,stimuli/scenes/112a.jpg,stimuli/objects/018a.jpg,stimuli/scenes/112b.jpg,stimuli/scenes/112a.jpg,stimuli/objects/018b.jpg,dist1,lure,target,dist2,0,0,0,1,0,21,21,15,,,,,,,,,,,137.78558820000035,None,138.80862570001045,None,138.80862570001045,None,138.80862570001045,None,138.80862570001045,None,138.80862570001045,None,138.80862570001045,None,138.80862570001045,None,138.80862570001045,None,138.80862570001045,None,138.80862570001045,None,138.80862570001045,None,j,2.2993413000076544,138.80862570001045,None,target,None,None,None,None,None,,,,,,,,,,,,,,student1,2022-10-21_13h18.17.988,Hippopolis_4AFCT,2021.1.4,59.71539641903648,
Camponello,stimuli/subj_files/student1_cityB.csv,./stimuli/leipzig.jpg,./stimuli/street_plate2.png,BETON UTCA,stimuli/objects/104a.jpg,object,2,stimuli/scenes/063a.jpg,stimuli/scenes/063b.jpg,stimuli/scenes/063a.jpg,stimuli/objects/054a.jpg,stimuli/objects/054b.jpg,lure,target,dist1,dist2,0,0,0,1,0,22,22,52,,,,,,,,,,,141.1351813999936,None,142.16084840000258,None,142.16084840000258,None,142.16084840000258,None,142.16084840000258,None,142.16084840000258,None,142.16084840000258,None,142.16084840000258,None,142.16084840000258,None,142.16084840000258,None,142.16084840000258,None,142.16084840000258,None,f,4.339466100005666,142.16084840000258,None,target,None,None,None,None,None,,,,,,,,,,,,,,student1,2022-10-21_13h18.17.988,Hippopolis_4AFCT,2021.1.4,59.71539641903648,
Camponello,stimuli/subj_files/student1_cityB.csv,./stimuli/leipzig.jpg,./stimuli/street_plate2.png,FÉSZEK UTCA,stimuli/objects/042a.jpg,object,1,stimuli/objects/044a.jpg,stimuli/scenes/020b.jpg,stimuli/objects/044a.jpg,stimuli/scenes/020a.jpg,stimuli/objects/044b.jpg,dist2,target,dist1,lure,0,0,0,1,0,23,23,10,,,,,,,,,,,146.51853110000957,None,147.53539879998425,None,147.53539879998425,None,147.53539879998425,None,147.53539879998425,None,147.53539879998425,None,147.53539879998425,None,147.53539879998425,None,147.53539879998425,None,147.53539879998425,None,147.53539879998425,None,147.53539879998425,None,f,2.7701739000040106,147.53539879998425,None,target,None,None,None,None,None,,,,,,,,,,,,,,student1,2022-10-21_13h18.17.988,Hippopolis_4AFCT,2021.1.4,59.71539641903648,
Camponello,stimuli/subj_files/student1_cityB.csv,./stimuli/leipzig.jpg,./stimuli/street_plate2.png,TORONY UTCA,stimuli/scenes/094a.jpg,scene,2,stimuli/objects/054a.jpg,stimuli/scenes/001a.jpg,stimuli/scenes/001b.jpg,stimuli/objects/054b.jpg,stimuli/objects/054a.jpg,dist1,dist2,lure,target,0,0,0,1,0,24,24,62,,,,,,,,,,,150.3351289999846,None,151.35136549998424,None,151.35136549998424,None,151.35136549998424,None,151.35136549998424,None,151.35136549998424,None,151.35136549998424,None,151.35136549998424,None,151.35136549998424,None,151.35136549998424,None,151.35136549998424,None,151.35136549998424,None,j,2.032708700018702,151.35136549998424,None,lure,None,None,None,None,None,,,,,,,,,,,,,,student1,2022-10-21_13h18.17.988,Hippopolis_4AFCT,2021.1.4,59.71539641903648,
Camponello,stimuli/subj_files/student1_cityB.csv,./stimuli/leipzig.jpg,./stimuli/street_plate2.png,MENTA UTCA,stimuli/objects/092a.jpg,object,0,stimuli/objects/092a.jpg,stimuli/scenes/069a.jpg,stimuli/scenes/069b.jpg,stimuli/objects/092a.jpg,stimuli/objects/092b.jpg,dist1,dist2,target,lure,0,0,0,1,0,25,25,67,,,,,,,,,,,153.401727199991,None,154.4201642999833,None,154.4201642999833,None,154.4201642999833,None,154.4201642999833,None,154.4201642999833,None,154.4201642999833,None,154.4201642999833,None,154.4201642999833,None,154.4201642999833,None,154.4201642999833,None,154.4201642999833,None,j,3.045749800017802,154.4201642999833,None,target,None,None,None,None,None,,,,,,,,,,,,,,student1,2022-10-21_13h18.17.988,Hippopolis_4AFCT,2021.1.4,59.71539641903648,
Camponello,stimuli/subj_files/student1_cityB.csv,./stimuli/leipzig.jpg,./stimuli/street_plate2.png,HARCSA UTCA,stimuli/scenes/080a.jpg,scene,2,stimuli/objects/029a.jpg,stimuli/scenes/054b.jpg,stimuli/scenes/054a.jpg,stimuli/objects/029b.jpg,stimuli/objects/029a.jpg,dist2,dist1,lure,target,0,0,0,1,0,26,26,59,,,,,,,,,,,157.48565919999965,None,158.49879799998598,None,158.49879799998598,None,158.49879799998598,None,158.49879799998598,None,158.49879799998598,None,158.49879799998598,None,158.49879799998598,None,158.49879799998598,None,158.49879799998598,None,158.49879799998598,None,158.49879799998598,None,k,3.7112369000096805,158.49879799998598,None,target,None,None,None,None,None,,,,,,,,,,,,,,student1,2022-10-21_13h18.17.988,Hippopolis_4AFCT,2021.1.4,59.71539641903648,
Camponello,stimuli/subj_files/student1_cityB.csv,./stimuli/leipzig.jpg,./stimuli/street_plate2.png,MÁRVÁNY UTCA,stimuli/scenes/023a.jpg,scene,0,stimuli/scenes/023a.jpg,stimuli/objects/030a.jpg,stimuli/scenes/023b.jpg,stimuli/objects/030b.jpg,stimuli/scenes/023a.jpg,dist1,lure,dist2,target,0,0,0,1,0,27,27,58,,,,,,,,,,,162.23532979999436,None,163.25166909999098,None,163.25166909999098,None,163.25166909999098,None,163.25166909999098,None,163.25166909999098,None,163.25166909999098,None,163.25166909999098,None,163.25166909999098,None,163.25166909999098,None,163.25166909999098,None,163.25166909999098,None,k,4.4561351999873295,163.25166909999098,None,target,None,None,None,None,None,,,,,,,,,,,,,,student1,2022-10-21_13h18.17.988,Hippopolis_4AFCT,2021.1.4,59.71539641903648,
Camponello,stimuli/subj_files/student1_cityB.csv,./stimuli/leipzig.jpg,./stimuli/street_plate2.png,TELEFON UTCA,stimuli/scenes/017a.jpg,scene,0,stimuli/scenes/017a.jpg,stimuli/objects/094b.jpg,stimuli/scenes/017b.jpg,stimuli/scenes/017a.jpg,stimuli/objects/094a.jpg,dist2,lure,target,dist1,0,0,0,1,0,28,28,27,,,,,,,,,,,167.73522860000958,None,168.7500621000072,None,168.7500621000072,None,168.7500621000072,None,168.7500621000072,None,168.7500621000072,None,168.7500621000072,None,168.7500621000072,None,168.7500621000072,None,168.7500621000072,None,168.7500621000072,None,168.7500621000072,None,j,3.417483800003538,168.7500621000072,None,target,None,None,None,None,None,,,,,,,,,,,,,,student1,2022-10-21_13h18.17.988,Hippopolis_4AFCT,2021.1.4,59.71539641903648,
Camponello,stimuli/subj_files/student1_cityB.csv,./stimuli/leipzig.jpg,./stimuli/street_plate2.png,BÚJÓCSKA UTCA,stimuli/scenes/015a.jpg,scene,1,stimuli/scenes/086a.jpg,stimuli/scenes/105b.jpg,stimuli/scenes/086a.jpg,stimuli/scenes/105a.jpg,stimuli/scenes/086b.jpg,dist2,target,dist1,lure,0,0,0,1,0,29,29,48,,,,,,,,,,,172.1843380999926,None,173.20864579998306,None,173.20864579998306,None,173.20864579998306,None,173.20864579998306,None,173.20864579998306,None,173.20864579998306,None,173.20864579998306,None,173.20864579998306,None,173.20864579998306,None,173.20864579998306,None,173.20864579998306,None,f,3.506613899982767,173.20864579998306,None,target,None,None,None,None,None,,,,,,,,,,,,,,student1,2022-10-21_13h18.17.988,Hippopolis_4AFCT,2021.1.4,59.71539641903648,
Camponello,stimuli/subj_files/student1_cityB.csv,./stimuli/leipzig.jpg,./stimuli/street_plate2.png,ÁLLOMÁS UTCA,stimuli/scenes/069a.jpg,scene,0,stimuli/scenes/069a.jpg,stimuli/scenes/106a.jpg,stimuli/scenes/106b.jpg,stimuli/scenes/069b.jpg,stimuli/scenes/069a.jpg,dist1,dist2,lure,target,0,0,0,1,0,30,30,42,,,,,,,,,,,176.73474539999734,None,177.74176649999572,None,177.74176649999572,None,177.74176649999572,None,177.74176649999572,None,177.74176649999572,None,177.74176649999572,None,177.74176649999572,None,177.74176649999572,None,177.74176649999572,None,177.74176649999572,None,177.74176649999572,None,k,3.4229720000003,177.74176649999572,None,target,None,None,None,None,None,,,,,,,,,,,,,,student1,2022-10-21_13h18.17.988,Hippopolis_4AFCT,2021.1.4,59.71539641903648,
Camponello,stimuli/subj_files/student1_cityB.csv,./stimuli/leipzig.jpg,./stimuli/street_plate2.png,SÜTŐ UTCA,stimuli/scenes/038a.jpg,scene,0,stimuli/scenes/038a.jpg,stimuli/scenes/038b.jpg,stimuli/objects/033b.jpg,stimuli/objects/033a.jpg,stimuli/scenes/038a.jpg,lure,dist2,dist1,target,0,0,0,1,0,31,31,5,,,,,,,,,,,181.18435850000242,None,182.20838890000596,None,182.20838890000596,None,182.20838890000596,None,182.20838890000596,None,182.20838890000596,None,182.20838890000596,None,182.20838890000596,None,182.20838890000596,None,182.20838890000596,None,182.20838890000596,None,182.20838890000596,None,k,2.241105700028129,182.20838890000596,None,target,None,None,None,None,None,,,,,,,,,,,,,,student1,2022-10-21_13h18.17.988,Hippopolis_4AFCT,2021.1.4,59.71539641903648,
Camponello,stimuli/subj_files/student1_cityB.csv,./stimuli/leipzig.jpg,./stimuli/street_plate2.png,SZŐLŐ UTCA,stimuli/scenes/099a.jpg,scene,0,stimuli/scenes/099a.jpg,stimuli/objects/105a.jpg,stimuli/scenes/099a.jpg,stimuli/scenes/099b.jpg,stimuli/objects/105b.jpg,dist1,target,lure,dist2,0,0,0,1,0,32,32,55,,,,,,,,,,,184.46840959999827,None,185.4907683999918,None,185.4907683999918,None,185.4907683999918,None,185.4907683999918,None,185.4907683999918,None,185.4907683999918,None,185.4907683999918,None,185.4907683999918,None,185.4907683999918,None,185.4907683999918,None,185.4907683999918,None,f,2.8422719000081997,185.4907683999918,None,target,None,None,None,None,None,,,,,,,,,,,,,,student1,2022-10-21_13h18.17.988,Hippopolis_4AFCT,2021.1.4,59.71539641903648,
Camponello,stimuli/subj_files/student1_cityB.csv,./stimuli/leipzig.jpg,./stimuli/street_plate2.png,GYŰRŰ UTCA,stimuli/objects/056a.jpg,object,1,stimuli/objects/013a.jpg,stimuli/objects/013b.jpg,stimuli/objects/087b.jpg,stimuli/objects/013a.jpg,stimuli/objects/087a.jpg,lure,dist2,target,dist1,0,0,0,1,0,33,33,22,,,,,,,,,,,188.35103230000823,None,189.38176970000495,None,189.38176970000495,None,189.38176970000495,None,189.38176970000495,None,189.38176970000495,None,189.38176970000495,None,189.38176970000495,None,189.38176970000495,None,189.38176970000495,None,189.38176970000495,None,189.38176970000495,None,None,,189.38176970000495,None,invalid,None,None,None,None,None,,,,,,,,,,,,,,student1,2022-10-21_13h18.17.988,Hippopolis_4AFCT,2021.1.4,59.71539641903648,
Camponello,stimuli/subj_files/student1_cityB.csv,./stimuli/leipzig.jpg,./stimuli/street_plate2.png,KESZTYŰ UTCA,stimuli/scenes/040a.jpg,scene,1,stimuli/scenes/105a.jpg,stimuli/objects/096b.jpg,stimuli/scenes/105a.jpg,stimuli/scenes/105b.jpg,stimuli/objects/096a.jpg,dist2,target,lure,dist1,0,0,0,1,0,34,34,16,,,,,,,,,,,194.36763409999548,None,195.38587410000036,None,195.38587410000036,None,195.38587410000036,None,195.38587410000036,None,195.38587410000036,None,195.38587410000036,None,195.38587410000036,None,195.38587410000036,None,195.38587410000036,None,195.38587410000036,None,195.38587410000036,None,f,3.2424634999770205,195.38587410000036,None,target,None,None,None,None,None,,,,,,,,,,,,,,student1,2022-10-21_13h18.17.988,Hippopolis_4AFCT,2021.1.4,59.71539641903648,
Camponello,stimuli/subj_files/student1_cityB.csv,./stimuli/leipzig.jpg,./stimuli/street_plate2.png,KANÁL UTCA,stimuli/scenes/057a.jpg,scene,1,stimuli/scenes/020a.jpg,stimuli/scenes/020b.jpg,stimuli/scenes/020a.jpg,stimuli/scenes/062a.jpg,stimuli/scenes/062b.jpg,lure,target,dist1,dist2,0,0,0,1,0,35,35,14,,,,,,,,,,,198.65071019998868,None,199.66475789999822,None,199.66475789999822,None,199.66475789999822,None,199.66475789999822,None,199.66475789999822,None,199.66475789999822,None,199.66475789999822,None,199.66475789999822,None,199.66475789999822,None,199.66475789999822,None,199.66475789999822,None,j,3.5857919999980368,199.66475789999822,None,dist1,None,None,None,None,None,,,,,,,,,,,,,,student1,2022-10-21_13h18.17.988,Hippopolis_4AFCT,2021.1.4,59.71539641903648,
Camponello,stimuli/subj_files/student1_cityB.csv,./stimuli/leipzig.jpg,./stimuli/street_plate2.png,KÓKUSZ UTCA,stimuli/scenes/052a.jpg,scene,0,stimuli/scenes/052a.jpg,stimuli/scenes/052a.jpg,stimuli/objects/077b.jpg,stimuli/objects/077a.jpg,stimuli/scenes/052b.jpg,target,dist2,dist1,lure,0,0,0,1,0,36,36,19,,,,,,,,,,,203.26751299999887,None,204.27837439998984,None,204.27837439998984,None,204.27837439998984,None,204.27837439998984,None,204.27837439998984,None,204.27837439998984,None,204.27837439998984,None,204.27837439998984,None,204.27837439998984,None,204.27837439998984,None,204.27837439998984,None,d,3.59768130001612,204.27837439998984,None,target,None,None,None,None,None,,,,,,,,,,,,,,student1,2022-10-21_13h18.17.988,Hippopolis_4AFCT,2021.1.4,59.71539641903648,
Camponello,stimuli/subj_files/student1_cityB.csv,./stimuli/leipzig.jpg,./stimuli/street_plate2.png,HORGONY UTCA,stimuli/objects/039a.jpg,object,0,stimuli/objects/039a.jpg,stimuli/objects/039b.jpg,stimuli/objects/039a.jpg,stimuli/objects/092b.jpg,stimuli/objects/092a.jpg,lure,target,dist2,dist1,0,0,0,1,0,37,37,26,,,,,,,,,,,207.90095300000394,None,208.924938799988,None,208.924938799988,None,208.924938799988,None,208.924938799988,None,208.924938799988,None,208.924938799988,None,208.924938799988,None,208.924938799988,None,208.924938799988,None,208.924938799988,None,208.924938799988,None,f,2.933081900002435,208.924938799988,None,target,None,None,None,None,None,,,,,,,,,,,,,,student1,2022-10-21_13h18.17.988,Hippopolis_4AFCT,2021.1.4,59.71539641903648,
Camponello,stimuli/subj_files/student1_cityB.csv,./stimuli/leipzig.jpg,./stimuli/street_plate2.png,SZOBOR UTCA,stimuli/objects/031a.jpg,object,1,stimuli/objects/010a.jpg,stimuli/objects/010a.jpg,stimuli/objects/044b.jpg,stimuli/objects/044a.jpg,stimuli/objects/010b.jpg,target,dist2,dist1,lure,0,0,0,1,0,38,38,79,,,,,,,,,,,211.88436870000442,None,212.91064660000848,None,212.91064660000848,None,212.91064660000848,None,212.91064660000848,None,212.91064660000848,None,212.91064660000848,None,212.91064660000848,None,212.91064660000848,None,212.91064660000848,None,212.91064660000848,None,212.91064660000848,None,d,1.9412390999787021,212.91064660000848,None,target,None,None,None,None,None,,,,,,,,,,,,,,student1,2022-10-21_13h18.17.988,Hippopolis_4AFCT,2021.1.4,59.71539641903648,
Camponello,stimuli/subj_files/student1_cityB.csv,./stimuli/leipzig.jpg,./stimuli/street_plate2.png,ORVOS UTCA,stimuli/objects/016a.jpg,object,0,stimuli/objects/016a.jpg,stimuli/scenes/089a.jpg,stimuli/scenes/089b.jpg,stimuli/objects/016a.jpg,stimuli/objects/016b.jpg,dist1,dist2,target,lure,0,0,0,1,0,39,39,4,,,,,,,,,,,214.883983000007,None,215.91026089998195,None,215.91026089998195,None,215.91026089998195,None,215.91026089998195,None,215.91026089998195,None,215.91026089998195,None,215.91026089998195,None,215.91026089998195,None,215.91026089998195,None,215.91026089998195,None,215.91026089998195,None,j,2.4704867999826092,215.91026089998195,None,target,None,None,None,None,None,,,,,,,,,,,,,,student1,2022-10-21_13h18.17.988,Hippopolis_4AFCT,2021.1.4,59.71539641903648,
Camponello,stimuli/subj_files/student1_cityB.csv,./stimuli/leipzig.jpg,./stimuli/street_plate2.png,TÁNYÉR UTCA,stimuli/objects/118a.jpg,object,0,stimuli/objects/118a.jpg,stimuli/objects/102b.jpg,stimuli/objects/102a.jpg,stimuli/objects/118b.jpg,stimuli/objects/118a.jpg,dist2,dist1,lure,target,0,0,0,1,0,40,40,28,,,,,,,,,,,218.40047980000963,None,219.41571460000705,None,219.41571460000705,None,219.41571460000705,None,219.41571460000705,None,219.41571460000705,None,219.41571460000705,None,219.41571460000705,None,219.41571460000705,None,219.41571460000705,None,219.41571460000705,None,219.41571460000705,None,k,2.8412060999835376,219.41571460000705,None,target,None,None,None,None,None,,,,,,,,,,,,,,student1,2022-10-21_13h18.17.988,Hippopolis_4AFCT,2021.1.4,59.71539641903648,
Camponello,stimuli/subj_files/student1_cityB.csv,./stimuli/leipzig.jpg,./stimuli/street_plate2.png,KOSÁR UTCA,stimuli/objects/057a.jpg,object,2,stimuli/scenes/001a.jpg,stimuli/scenes/001a.jpg,stimuli/scenes/001b.jpg,stimuli/objects/005b.jpg,stimuli/objects/005a.jpg,target,lure,dist2,dist1,0,0,0,1,0,41,41,38,,,,,,,,,,,222.28363590000663,None,223.2988020000048,None,223.2988020000048,None,223.2988020000048,None,223.2988020000048,None,223.2988020000048,None,223.2988020000048,None,223.2988020000048,None,223.2988020000048,None,223.2988020000048,None,223.2988020000048,None,223.2988020000048,None,d,4.482134899997618,223.2988020000048,None,target,None,None,None,None,None,,,,,,,,,,,,,,student1,2022-10-21_13h18.17.988,Hippopolis_4AFCT,2021.1.4,59.71539641903648,
Camponello,stimuli/subj_files/student1_cityB.csv,./stimuli/leipzig.jpg,./stimuli/street_plate2.png,TÁSKA UTCA,stimuli/objects/110a.jpg,object,2,stimuli/scenes/079a.jpg,stimuli/scenes/079a.jpg,stimuli/objects/037b.jpg,stimuli/objects/037a.jpg,stimuli/scenes/079b.jpg,target,dist2,dist1,lure,0,0,0,1,0,42,42,33,,,,,,,,,,,227.800808400003,None,228.8177255000046,None,228.8177255000046,None,228.8177255000046,None,228.8177255000046,None,228.8177255000046,None,228.8177255000046,None,228.8177255000046,None,228.8177255000046,None,228.8177255000046,None,228.8177255000046,None,228.8177255000046,None,None,,228.8177255000046,None,invalid,None,None,None,None,None,,,,,,,,,,,,,,student1,2022-10-21_13h18.17.988,Hippopolis_4AFCT,2021.1.4,59.71539641903648,
Camponello,stimuli/subj_files/student1_cityB.csv,./stimuli/leipzig.jpg,./stimuli/street_plate2.png,VITORLA UTCA,stimuli/scenes/110a.jpg,scene,1,stimuli/scenes/062a.jpg,stimuli/scenes/107a.jpg,stimuli/scenes/107b.jpg,stimuli/scenes/062b.jpg,stimuli/scenes/062a.jpg,dist1,dist2,lure,target,0,0,0,1,0,43,43,45,,,,,,,,,,,233.8172240999993,None,234.83464009998715,None,234.83464009998715,None,234.83464009998715,None,234.83464009998715,None,234.83464009998715,None,234.83464009998715,None,234.83464009998715,None,234.83464009998715,None,234.83464009998715,None,234.83464009998715,None,234.83464009998715,None,None,,234.83464009998715,None,invalid,None,None,None,None,None,,,,,,,,,,,,,,student1,2022-10-21_13h18.17.988,Hippopolis_4AFCT,2021.1.4,59.71539641903648,
Camponello,stimuli/subj_files/student1_cityB.csv,./stimuli/leipzig.jpg,./stimuli/street_plate2.png,SZŐNYEG UTCA,stimuli/objects/040a.jpg,object,0,stimuli/objects/040a.jpg,stimuli/objects/040a.jpg,stimuli/objects/040b.jpg,stimuli/objects/019b.jpg,stimuli/objects/019a.jpg,target,lure,dist2,dist1,0,0,0,1,0,44,44,29,,,,,,,,,,,239.83397310000146,None,240.85980770000606,None,240.85980770000606,None,240.85980770000606,None,240.85980770000606,None,240.85980770000606,None,240.85980770000606,None,240.85980770000606,None,240.85980770000606,None,240.85980770000606,None,240.85980770000606,None,240.85980770000606,None,d,3.445562000008067,240.85980770000606,None,target,244.333916100004,None,space,244.333916100004,None,5.9991930999967735,,,,,,,,,,,,,student1,2022-10-21_13h18.17.988,Hippopolis_4AFCT,2021.1.4,59.71539641903648,
Camponello,stimuli/subj_files/student1_cityB.csv,./stimuli/leipzig.jpg,./stimuli/street_plate2.png,FEJSZE UTCA,stimuli/objects/065a.jpg,object,0,stimuli/objects/065a.jpg,stimuli/scenes/075b.jpg,stimuli/objects/065b.jpg,stimuli/objects/065a.jpg,stimuli/scenes/075a.jpg,dist2,lure,target,dist1,0,0,0,1,0,45,45,9,,,,,,,,,,,250.35007230000338,None,251.3737778000068,None,251.3737778000068,None,251.3737778000068,None,251.3737778000068,None,251.3737778000068,None,251.3737778000068,None,251.3737778000068,None,251.3737778000068,None,251.3737778000068,None,251.3737778000068,None,251.3737778000068,None,j,2.0435456999985036,251.3737778000068,None,target,None,None,None,None,None,,,,,,,,,,,,,,student1,2022-10-21_13h18.17.988,Hippopolis_4AFCT,2021.1.4,59.71539641903648,
Camponello,stimuli/subj_files/student1_cityB.csv,./stimuli/leipzig.jpg,./stimuli/street_plate2.png,ECSET UTCA,stimuli/scenes/003a.jpg,scene,2,stimuli/objects/005a.jpg,stimuli/objects/035b.jpg,stimuli/objects/005b.jpg,stimuli/objects/035a.jpg,stimuli/objects/005a.jpg,dist2,lure,dist1,target,0,0,0,1,0,46,46,11,,,,,,,,,,,253.43346239998937,None,254.46561149999616,None,254.46561149999616,None,254.46561149999616,None,254.46561149999616,None,254.46561149999616,None,254.46561149999616,None,254.46561149999616,None,254.46561149999616,None,254.46561149999616,None,254.46561149999616,None,254.46561149999616,None,k,3.4432253999984823,254.46561149999616,None,target,None,None,None,None,None,,,,,,,,,,,,,,student1,2022-10-21_13h18.17.988,Hippopolis_4AFCT,2021.1.4,59.71539641903648,
Camponello,stimuli/subj_files/student1_cityB.csv,./stimuli/leipzig.jpg,./stimuli/street_plate2.png,LÉPCSŐ UTCA,stimuli/objects/049a.jpg,object,0,stimuli/objects/049a.jpg,stimuli/scenes/076b.jpg,stimuli/scenes/076a.jpg,stimuli/objects/049b.jpg,stimuli/objects/049a.jpg,dist2,dist1,lure,target,0,0,0,1,0,47,47,43,,,,,,,,,,,257.9336900000053,None,258.9443431000109,None,258.9443431000109,None,258.9443431000109,None,258.9443431000109,None,258.9443431000109,None,258.9443431000109,None,258.9443431000109,None,258.9443431000109,None,258.9443431000109,None,258.9443431000109,None,258.9443431000109,None,k,2.281233300018357,258.9443431000109,None,target,None,None,None,None,None,,,,,,,,,,,,,,student1,2022-10-21_13h18.17.988,Hippopolis_4AFCT,2021.1.4,59.71539641903648,
Camponello,stimuli/subj_files/student1_cityB.csv,./stimuli/leipzig.jpg,./stimuli/street_plate2.png,TÜKÖR UTCA,stimuli/scenes/006a.jpg,scene,0,stimuli/scenes/006a.jpg,stimuli/objects/116b.jpg,stimuli/objects/116a.jpg,stimuli/scenes/006a.jpg,stimuli/scenes/006b.jpg,dist2,dist1,target,lure,0,0,0,1,0,48,48,25,,,,,,,,,,,261.2500478999864,None,262.26671389999683,None,262.26671389999683,None,262.26671389999683,None,262.26671389999683,None,262.26671389999683,None,262.26671389999683,None,262.26671389999683,None,262.26671389999683,None,262.26671389999683,None,262.26671389999683,None,262.26671389999683,None,j,3.132917200011434,262.26671389999683,None,target,None,None,None,None,None,,,,,,,,,,,,,,student1,2022-10-21_13h18.17.988,Hippopolis_4AFCT,2021.1.4,59.71539641903648,
Camponello,stimuli/subj_files/student1_cityB.csv,./stimuli/leipzig.jpg,./stimuli/street_plate2.png,SZAPPAN UTCA,stimuli/objects/023a.jpg,object,1,stimuli/objects/087a.jpg,stimuli/scenes/012b.jpg,stimuli/objects/087b.jpg,stimuli/objects/087a.jpg,stimuli/scenes/012a.jpg,dist2,lure,target,dist1,0,0,0,1,0,49,49,7,,,,,,,,,,,265.4164703999995,None,266.4410796999873,None,266.4410796999873,None,266.4410796999873,None,266.4410796999873,None,266.4410796999873,None,266.4410796999873,None,266.4410796999873,None,266.4410796999873,None,266.4410796999873,None,266.4410796999873,None,266.4410796999873,None,f,3.91774480001186,266.4410796999873,None,lure,None,None,None,None,None,,,,,,,,,,,,,,student1,2022-10-21_13h18.17.988,Hippopolis_4AFCT,2021.1.4,59.71539641903648,
Camponello,stimuli/subj_files/student1_cityB.csv,./stimuli/leipzig.jpg,./stimuli/street_plate2.png,TULIPÁN UTCA,stimuli/objects/058a.jpg,object,0,stimuli/objects/058a.jpg,stimuli/objects/117a.jpg,stimuli/objects/117b.jpg,stimuli/objects/058b.jpg,stimuli/objects/058a.jpg,dist1,dist2,lure,target,0,0,0,1,0,50,50,1,,,,,,,,,,,270.3834510000015,None,271.4025846000004,None,271.4025846000004,None,271.4025846000004,None,271.4025846000004,None,271.4025846000004,None,271.4025846000004,None,271.4025846000004,None,271.4025846000004,None,271.4025846000004,None,271.4025846000004,None,271.4025846000004,None,k,2.2556780999875627,271.4025846000004,None,target,None,None,None,None,None,,,,,,,,,,,,,,student1,2022-10-21_13h18.17.988,Hippopolis_4AFCT,2021.1.4,59.71539641903648,
Camponello,stimuli/subj_files/student1_cityB.csv,./stimuli/leipzig.jpg,./stimuli/street_plate2.png,FÜZET UTCA,stimuli/scenes/047a.jpg,scene,1,stimuli/scenes/012a.jpg,stimuli/scenes/012b.jpg,stimuli/objects/010b.jpg,stimuli/scenes/012a.jpg,stimuli/objects/010a.jpg,lure,dist2,target,dist1,0,0,0,1,0,51,51,56,,,,,,,,,,,273.6833817999868,None,274.69944399999804,None,274.69944399999804,None,274.69944399999804,None,274.69944399999804,None,274.69944399999804,None,274.69944399999804,None,274.69944399999804,None,274.69944399999804,None,274.69944399999804,None,274.69944399999804,None,274.69944399999804,None,j,2.164693200000329,274.69944399999804,None,target,None,None,None,None,None,,,,,,,,,,,,,,student1,2022-10-21_13h18.17.988,Hippopolis_4AFCT,2021.1.4,59.71539641903648,
Camponello,stimuli/subj_files/student1_cityB.csv,./stimuli/leipzig.jpg,./stimuli/street_plate2.png,TÉRKÉP UTCA,stimuli/scenes/013a.jpg,scene,0,stimuli/scenes/013a.jpg,stimuli/scenes/006b.jpg,stimuli/scenes/006a.jpg,stimuli/scenes/013a.jpg,stimuli/scenes/013b.jpg,dist2,dist1,target,lure,0,0,0,1,0,52,52,63,,,,,,,,,,,276.8831802000059,None,277.8946305999998,None,277.8946305999998,None,277.8946305999998,None,277.8946305999998,None,277.8946305999998,None,277.8946305999998,None,277.8946305999998,None,277.8946305999998,None,277.8946305999998,None,277.8946305999998,None,277.8946305999998,None,j,2.7150820000097156,277.8946305999998,None,target,None,None,None,None,None,,,,,,,,,,,,,,student1,2022-10-21_13h18.17.988,Hippopolis_4AFCT,2021.1.4,59.71539641903648,
Camponello,stimuli/subj_files/student1_cityB.csv,./stimuli/leipzig.jpg,./stimuli/street_plate2.png,BANÁN UTCA,stimuli/scenes/045a.jpg,scene,0,stimuli/scenes/045a.jpg,stimuli/scenes/045b.jpg,stimuli/scenes/045a.jpg,stimuli/scenes/112b.jpg,stimuli/scenes/112a.jpg,lure,target,dist2,dist1,0,0,0,1,0,53,53,57,,,,,,,,,,,280.6333317999961,None,281.64976329999627,None,281.64976329999627,None,281.64976329999627,None,281.64976329999627,None,281.64976329999627,None,281.64976329999627,None,281.64976329999627,None,281.64976329999627,None,281.64976329999627,None,281.64976329999627,None,281.64976329999627,None,f,2.4334450000023935,281.64976329999627,None,target,None,None,None,None,None,,,,,,,,,,,,,,student1,2022-10-21_13h18.17.988,Hippopolis_4AFCT,2021.1.4,59.71539641903648,
Camponello,stimuli/subj_files/student1_cityB.csv,./stimuli/leipzig.jpg,./stimuli/street_plate2.png,POLIP UTCA,stimuli/scenes/077a.jpg,scene,0,stimuli/scenes/077a.jpg,stimuli/scenes/077b.jpg,stimuli/scenes/077a.jpg,stimuli/scenes/091b.jpg,stimuli/scenes/091a.jpg,lure,target,dist2,dist1,0,0,0,1,0,54,54,49,,,,,,,,,,,284.0995933999948,None,285.11106880000443,None,285.11106880000443,None,285.11106880000443,None,285.11106880000443,None,285.11106880000443,None,285.11106880000443,None,285.11106880000443,None,285.11106880000443,None,285.11106880000443,None,285.11106880000443,None,285.11106880000443,None,f,2.4337312999996357,285.11106880000443,None,target,None,None,None,None,None,,,,,,,,,,,,,,student1,2022-10-21_13h18.17.988,Hippopolis_4AFCT,2021.1.4,59.71539641903648,
Camponello,stimuli/subj_files/student1_cityB.csv,./stimuli/leipzig.jpg,./stimuli/street_plate2.png,PAPRIKA UTCA,stimuli/objects/033a.jpg,object,0,stimuli/objects/033a.jpg,stimuli/scenes/023a.jpg,stimuli/objects/033b.jpg,stimuli/scenes/023b.jpg,stimuli/objects/033a.jpg,dist1,lure,dist2,target,0,0,0,1,0,55,55,30,,,,,,,,,,,287.56664099998306,None,288.57513610000024,None,288.57513610000024,None,288.57513610000024,None,288.57513610000024,None,288.57513610000024,None,288.57513610000024,None,288.57513610000024,None,288.57513610000024,None,288.57513610000024,None,288.57513610000024,None,288.57513610000024,None,k,2.617414100008318,288.57513610000024,None,target,None,None,None,None,None,,,,,,,,,,,,,,student1,2022-10-21_13h18.17.988,Hippopolis_4AFCT,2021.1.4,59.71539641903648,
Camponello,stimuli/subj_files/student1_cityB.csv,./stimuli/leipzig.jpg,./stimuli/street_plate2.png,LEGELŐ UTCA,stimuli/objects/030a.jpg,object,0,stimuli/objects/030a.jpg,stimuli/objects/039a.jpg,stimuli/objects/030a.jpg,stimuli/objects/030b.jpg,stimuli/objects/039b.jpg,dist1,target,lure,dist2,0,0,0,1,0,56,56,70,,,,,,,,,,,291.21671290000086,None,292.24012949998723,None,292.24012949998723,None,292.24012949998723,None,292.24012949998723,None,292.24012949998723,None,292.24012949998723,None,292.24012949998723,None,292.24012949998723,None,292.24012949998723,None,292.24012949998723,None,292.24012949998723,None,f,3.4134326000057627,292.24012949998723,None,target,None,None,None,None,None,,,,,,,,,,,,,,student1,2022-10-21_13h18.17.988,Hippopolis_4AFCT,2021.1.4,59.71539641903648,
Camponello,stimuli/subj_files/student1_cityB.csv,./stimuli/leipzig.jpg,./stimuli/street_plate2.png,LEMEZ UTCA,stimuli/scenes/022a.jpg,scene,0,stimuli/scenes/022a.jpg,stimuli/scenes/077b.jpg,stimuli/scenes/022a.jpg,stimuli/scenes/022b.jpg,stimuli/scenes/077a.jpg,dist2,target,lure,dist1,0,0,0,1,0,57,57,13,,,,,,,,,,,295.68302930000937,None,296.69827629998326,None,296.69827629998326,None,296.69827629998326,None,296.69827629998326,None,296.69827629998326,None,296.69827629998326,None,296.69827629998326,None,296.69827629998326,None,296.69827629998326,None,296.69827629998326,None,296.69827629998326,None,f,4.474329599994235,296.69827629998326,None,target,None,None,None,None,None,,,,,,,,,,,,,,student1,2022-10-21_13h18.17.988,Hippopolis_4AFCT,2021.1.4,59.71539641903648,
Camponello,stimuli/subj_files/student1_cityB.csv,./stimuli/leipzig.jpg,./stimuli/street_plate2.png,ASZTAL UTCA,stimuli/scenes/120a.jpg,scene,2,stimuli/objects/035a.jpg,stimuli/scenes/079b.jpg,stimuli/scenes/079a.jpg,stimuli/objects/035b.jpg,stimuli/objects/035a.jpg,dist2,dist1,lure,target,0,0,0,1,0,58,58,24,,,,,,,,,,,301.19964050001,None,302.21044289998827,None,302.21044289998827,None,302.21044289998827,None,302.21044289998827,None,302.21044289998827,None,302.21044289998827,None,302.21044289998827,None,302.21044289998827,None,302.21044289998827,None,302.21044289998827,None,302.21044289998827,None,k,2.909996200003661,302.21044289998827,None,target,None,None,None,None,None,,,,,,,,,,,,,,student1,2022-10-21_13h18.17.988,Hippopolis_4AFCT,2021.1.4,59.71539641903648,
Camponello,stimuli/subj_files/student1_cityB.csv,./stimuli/leipzig.jpg,./stimuli/street_plate2.png,ZONGORA UTCA,stimuli/objects/034a.jpg,object,0,stimuli/objects/034a.jpg,stimuli/objects/034a.jpg,stimuli/objects/034b.jpg,stimuli/objects/016b.jpg,stimuli/objects/016a.jpg,target,lure,dist2,dist1,0,0,0,1,0,59,59,31,,,,,,,,,,,305.149585200008,None,306.16964340000413,None,306.16964340000413,None,306.16964340000413,None,306.16964340000413,None,306.16964340000413,None,306.16964340000413,None,306.16964340000413,None,306.16964340000413,None,306.16964340000413,None,306.16964340000413,None,306.16964340000413,None,d,1.748516199993901,306.16964340000413,None,target,None,None,None,None,None,,,,,,,,,,,,,,student1,2022-10-21_13h18.17.988,Hippopolis_4AFCT,2021.1.4,59.71539641903648,
Camponello,stimuli/subj_files/student1_cityB.csv,./stimuli/leipzig.jpg,./stimuli/street_plate2.png,PÁRNA UTCA,stimuli/objects/112a.jpg,object,0,stimuli/objects/112a.jpg,stimuli/objects/112b.jpg,stimuli/scenes/032b.jpg,stimuli/scenes/032a.jpg,stimuli/objects/112a.jpg,lure,dist2,dist1,target,0,0,0,1,0,60,60,77,,,,,,,,,,,307.94955309998477,None,308.9750708999927,None,308.9750708999927,None,308.9750708999927,None,308.9750708999927,None,308.9750708999927,None,308.9750708999927,None,308.9750708999927,None,308.9750708999927,None,308.9750708999927,None,308.9750708999927,None,308.9750708999927,None,k,2.1996069999877363,308.9750708999927,None,target,None,None,None,None,None,,,,,,,,,,,,,,student1,2022-10-21_13h18.17.988,Hippopolis_4AFCT,2021.1.4,59.71539641903648,
Camponello,stimuli/subj_files/student1_cityB.csv,./stimuli/leipzig.jpg,./stimuli/street_plate2.png,TIGRIS UTCA,stimuli/scenes/021a.jpg,scene,0,stimuli/scenes/021a.jpg,stimuli/scenes/022b.jpg,stimuli/scenes/021a.jpg,stimuli/scenes/021b.jpg,stimuli/scenes/022a.jpg,dist2,target,lure,dist1,0,0,0,1,0,61,61,68,,,,,,,,,,,311.1994515999977,None,312.21344110000064,None,312.21344110000064,None,312.21344110000064,None,312.21344110000064,None,312.21344110000064,None,312.21344110000064,None,312.21344110000064,None,312.21344110000064,None,312.21344110000064,None,312.21344110000064,None,312.21344110000064,None,f,3.9904941999993753,312.21344110000064,None,target,None,None,None,None,None,,,,,,,,,,,,,,student1,2022-10-21_13h18.17.988,Hippopolis_4AFCT,2021.1.4,59.71539641903648,
Camponello,stimuli/subj_files/student1_cityB.csv,./stimuli/leipzig.jpg,./stimuli/street_plate2.png,SIRÁLY UTCA,stimuli/objects/081a.jpg,object,0,stimuli/objects/081a.jpg,stimuli/objects/081a.jpg,stimuli/objects/081b.jpg,stimuli/scenes/019a.jpg,stimuli/scenes/019b.jpg,target,lure,dist1,dist2,0,0,0,1,0,62,62,50,,,,,,,,,,,316.23259530001087,None,317.253796999983,None,317.253796999983,None,317.253796999983,None,317.253796999983,None,317.253796999983,None,317.253796999983,None,317.253796999983,None,317.253796999983,None,317.253796999983,None,317.253796999983,None,317.253796999983,None,d,3.4202921999967657,317.253796999983,None,target,None,None,None,None,None,,,,,,,,,,,,,,student1,2022-10-21_13h18.17.988,Hippopolis_4AFCT,2021.1.4,59.71539641903648,
Camponello,stimuli/subj_files/student1_cityB.csv,./stimuli/leipzig.jpg,./stimuli/street_plate2.png,TERÍTŐ UTCA,stimuli/objects/098a.jpg,object,1,stimuli/objects/096a.jpg,stimuli/objects/096b.jpg,stimuli/objects/096a.jpg,stimuli/objects/013b.jpg,stimuli/objects/013a.jpg,lure,target,dist2,dist1,0,0,0,1,0,63,63,39,,,,,,,,,,,320.6990666000056,None,321.72733259998495,None,321.72733259998495,None,321.72733259998495,None,321.72733259998495,None,321.72733259998495,None,321.72733259998495,None,321.72733259998495,None,321.72733259998495,None,321.72733259998495,None,321.72733259998495,None,321.72733259998495,None,f,2.546471699984977,321.72733259998495,None,target,None,None,None,None,None,,,,,,,,,,,,,,student1,2022-10-21_13h18.17.988,Hippopolis_4AFCT,2021.1.4,59.71539641903648,
Camponello,stimuli/subj_files/student1_cityB.csv,./stimuli/leipzig.jpg,./stimuli/street_plate2.png,PALACK UTCA,stimuli/scenes/033a.jpg,scene,1,stimuli/scenes/107a.jpg,stimuli/objects/119b.jpg,stimuli/scenes/107b.jpg,stimuli/objects/119a.jpg,stimuli/scenes/107a.jpg,dist2,lure,dist1,target,0,0,0,1,0,64,64,44,,,,,,,,,,,324.29951149999397,None,325.33073049999075,None,325.33073049999075,None,325.33073049999075,None,325.33073049999075,None,325.33073049999075,None,325.33073049999075,None,325.33073049999075,None,325.33073049999075,None,325.33073049999075,None,325.33073049999075,None,325.33073049999075,None,None,,325.33073049999075,None,invalid,None,None,None,None,None,,,,,,,,,,,,,,student1,2022-10-21_13h18.17.988,Hippopolis_4AFCT,2021.1.4,59.71539641903648,
Camponello,stimuli/subj_files/student1_cityB.csv,./stimuli/leipzig.jpg,./stimuli/street_plate2.png,SALÁTA UTCA,stimuli/objects/008a.jpg,object,0,stimuli/objects/008a.jpg,stimuli/scenes/099b.jpg,stimuli/objects/008b.jpg,stimuli/objects/008a.jpg,stimuli/scenes/099a.jpg,dist2,lure,target,dist1,0,0,0,1,0,65,65,73,,,,,,,,,,,330.31579500000225,None,331.3317479999969,None,331.3317479999969,None,331.3317479999969,None,331.3317479999969,None,331.3317479999969,None,331.3317479999969,None,331.3317479999969,None,331.3317479999969,None,331.3317479999969,None,331.3317479999969,None,331.3317479999969,None,j,3.380328400002327,331.3317479999969,None,target,None,None,None,None,None,,,,,,,,,,,,,,student1,2022-10-21_13h18.17.988,Hippopolis_4AFCT,2021.1.4,59.71539641903648,
Camponello,stimuli/subj_files/student1_cityB.csv,./stimuli/leipzig.jpg,./stimuli/street_plate2.png,BOHÓC UTCA,stimuli/objects/064a.jpg,object,0,stimuli/objects/064a.jpg,stimuli/objects/040b.jpg,stimuli/objects/040a.jpg,stimuli/objects/064a.jpg,stimuli/objects/064b.jpg,dist2,dist1,target,lure,0,0,0,1,0,66,66,17,,,,,,,,,,,334.73205230000895,None,335.75389319998794,None,335.75389319998794,None,335.75389319998794,None,335.75389319998794,None,335.75389319998794,None,335.75389319998794,None,335.75389319998794,None,335.75389319998794,None,335.75389319998794,None,335.75389319998794,None,335.75389319998794,None,j,3.0211075999832246,335.75389319998794,None,target,None,None,None,None,None,,,,,,,,,,,,,,student1,2022-10-21_13h18.17.988,Hippopolis_4AFCT,2021.1.4,59.71539641903648,
Camponello,stimuli/subj_files/student1_cityB.csv,./stimuli/leipzig.jpg,./stimuli/street_plate2.png,FÜGE UTCA,stimuli/scenes/115a.jpg,scene,0,stimuli/scenes/115a.jpg,stimuli/scenes/115b.jpg,stimuli/scenes/115a.jpg,stimuli/objects/084b.jpg,stimuli/objects/084a.jpg,lure,target,dist2,dist1,0,0,0,1,0,67,67,47,,,,,,,,,,,338.79837679999764,None,339.82867699998314,None,339.82867699998314,None,339.82867699998314,None,339.82867699998314,None,339.82867699998314,None,339.82867699998314,None,339.82867699998314,None,339.82867699998314,None,339.82867699998314,None,339.82867699998314,None,339.82867699998314,None,f,1.891833499976201,339.82867699998314,None,target,None,None,None,None,None,,,,,,,,,,,,,,student1,2022-10-21_13h18.17.988,Hippopolis_4AFCT,2021.1.4,59.71539641903648,
Camponello,stimuli/subj_files/student1_cityB.csv,./stimuli/leipzig.jpg,./stimuli/street_plate2.png,VIHAR UTCA,stimuli/objects/048a.jpg,object,2,stimuli/scenes/054a.jpg,stimuli/scenes/054b.jpg,stimuli/scenes/100b.jpg,stimuli/scenes/054a.jpg,stimuli/scenes/100a.jpg,lure,dist2,target,dist1,0,0,0,1,0,68,68,65,,,,,,,,,,,341.74901390000014,None,342.7649426999851,None,342.7649426999851,None,342.7649426999851,None,342.7649426999851,None,342.7649426999851,None,342.7649426999851,None,342.7649426999851,None,342.7649426999851,None,342.7649426999851,None,342.7649426999851,None,342.7649426999851,None,j,3.7085536000085995,342.7649426999851,None,target,None,None,None,None,None,,,,,,,,,,,,,,student1,2022-10-21_13h18.17.988,Hippopolis_4AFCT,2021.1.4,59.71539641903648,
Camponello,stimuli/subj_files/student1_cityB.csv,./stimuli/leipzig.jpg,./stimuli/street_plate2.png,SZALVÉTA UTCA,stimuli/objects/072a.jpg,object,0,stimuli/objects/072a.jpg,stimuli/scenes/045b.jpg,stimuli/scenes/045a.jpg,stimuli/objects/072b.jpg,stimuli/objects/072a.jpg,dist2,dist1,lure,target,0,0,0,1,0,69,69,54,,,,,,,,,,,346.498262899986,None,347.5086243999831,None,347.5086243999831,None,347.5086243999831,None,347.5086243999831,None,347.5086243999831,None,347.5086243999831,None,347.5086243999831,None,347.5086243999831,None,347.5086243999831,None,347.5086243999831,None,347.5086243999831,None,j,4.126325000019278,347.5086243999831,None,lure,None,None,None,None,None,,,,,,,,,,,,,,student1,2022-10-21_13h18.17.988,Hippopolis_4AFCT,2021.1.4,59.71539641903648,
Camponello,stimuli/subj_files/student1_cityB.csv,./stimuli/leipzig.jpg,./stimuli/street_plate2.png,KALAPÁCS UTCA,stimuli/scenes/049a.jpg,scene,0,stimuli/scenes/049a.jpg,stimuli/objects/112b.jpg,stimuli/scenes/049a.jpg,stimuli/objects/112a.jpg,stimuli/scenes/049b.jpg,dist2,target,dist1,lure,0,0,0,1,0,70,70,3,,,,,,,,,,,351.66565919999266,None,352.674740699993,None,352.674740699993,None,352.674740699993,None,352.674740699993,None,352.674740699993,None,352.674740699993,None,352.674740699993,None,352.674740699993,None,352.674740699993,None,352.674740699993,None,352.674740699993,None,f,2.939175700012129,352.674740699993,None,target,None,None,None,None,None,,,,,,,,,,,,,,student1,2022-10-21_13h18.17.988,Hippopolis_4AFCT,2021.1.4,59.71539641903648,
Camponello,stimuli/subj_files/student1_cityB.csv,./stimuli/leipzig.jpg,./stimuli/street_plate2.png,SUGÁR UTCA,stimuli/objects/094a.jpg,object,0,stimuli/objects/094a.jpg,stimuli/objects/094b.jpg,stimuli/objects/064b.jpg,stimuli/objects/064a.jpg,stimuli/objects/094a.jpg,lure,dist2,dist1,target,0,0,0,1,0,71,71,40,,,,,,,,,,,355.6319808999833,None,356.6531013000058,None,356.6531013000058,None,356.6531013000058,None,356.6531013000058,None,356.6531013000058,None,356.6531013000058,None,356.6531013000058,None,356.6531013000058,None,356.6531013000058,None,356.6531013000058,None,356.6531013000058,None,k,3.4952700000139885,356.6531013000058,None,target,None,None,None,None,None,,,,,,,,,,,,,,student1,2022-10-21_13h18.17.988,Hippopolis_4AFCT,2021.1.4,59.71539641903648,
Camponello,stimuli/subj_files/student1_cityB.csv,./stimuli/leipzig.jpg,./stimuli/street_plate2.png,SZÖCSKE UTCA,stimuli/scenes/026a.jpg,scene,2,stimuli/objects/061a.jpg,stimuli/scenes/063a.jpg,stimuli/objects/061a.jpg,stimuli/scenes/063b.jpg,stimuli/objects/061b.jpg,dist1,target,dist2,lure,0,0,0,1,0,72,72,71,,,,,,,,,,,360.16495569999097,None,361.181061899988,None,361.181061899988,None,361.181061899988,None,361.181061899988,None,361.181061899988,None,361.181061899988,None,361.181061899988,None,361.181061899988,None,361.181061899988,None,361.181061899988,None,361.181061899988,None,k,3.606162799987942,361.181061899988,None,lure,None,None,None,None,None,,,,,,,,,,,,,,student1,2022-10-21_13h18.17.988,Hippopolis_4AFCT,2021.1.4,59.71539641903648,
Camponello,stimuli/subj_files/student1_cityB.csv,./stimuli/leipzig.jpg,./stimuli/street_plate2.png,TOLMÁCS UTCA,stimuli/scenes/082a.jpg,scene,0,stimuli/scenes/082a.jpg,stimuli/scenes/082b.jpg,stimuli/objects/081b.jpg,stimuli/objects/081a.jpg,stimuli/scenes/082a.jpg,lure,dist2,dist1,target,0,0,0,1,0,73,73,2,,,,,,,,,,,364.8155507000047,None,365.82574770000065,None,365.82574770000065,None,365.82574770000065,None,365.82574770000065,None,365.82574770000065,None,365.82574770000065,None,365.82574770000065,None,365.82574770000065,None,365.82574770000065,None,365.82574770000065,None,365.82574770000065,None,None,,365.82574770000065,None,invalid,None,None,None,None,None,,,,,,,,,,,,,,student1,2022-10-21_13h18.17.988,Hippopolis_4AFCT,2021.1.4,59.71539641903648,
Camponello,stimuli/subj_files/student1_cityB.csv,./stimuli/leipzig.jpg,./stimuli/street_plate2.png,KOCSI UTCA,stimuli/scenes/114a.jpg,scene,0,stimuli/scenes/114a.jpg,stimuli/objects/082b.jpg,stimuli/scenes/114b.jpg,stimuli/scenes/114a.jpg,stimuli/objects/082a.jpg,dist2,lure,target,dist1,0,0,0,1,0,74,74,69,,,,,,,,,,,370.8318454999826,None,371.84362669999246,None,371.84362669999246,None,371.84362669999246,None,371.84362669999246,None,371.84362669999246,None,371.84362669999246,None,371.84362669999246,None,371.84362669999246,None,371.84362669999246,None,371.84362669999246,None,371.84362669999246,None,j,4.0582815000088885,371.84362669999246,None,target,None,None,None,None,None,,,,,,,,,,,,,,student1,2022-10-21_13h18.17.988,Hippopolis_4AFCT,2021.1.4,59.71539641903648,
Camponello,stimuli/subj_files/student1_cityB.csv,./stimuli/leipzig.jpg,./stimuli/street_plate2.png,KAKAÓ UTCA,stimuli/objects/099a.jpg,object,1,stimuli/objects/119a.jpg,stimuli/scenes/086a.jpg,stimuli/objects/119a.jpg,stimuli/scenes/086b.jpg,stimuli/objects/119b.jpg,dist1,target,dist2,lure,0,0,0,1,0,75,75,0,,,,,,,,,,,375.931637200003,None,376.9572802000039,None,376.9572802000039,None,376.9572802000039,None,376.9572802000039,None,376.9572802000039,None,376.9572802000039,None,376.9572802000039,None,376.9572802000039,None,376.9572802000039,None,376.9572802000039,None,376.9572802000039,None,f,2.5584140999999363,376.9572802000039,None,target,None,None,None,None,None,,,,,,,,,,,,,,student1,2022-10-21_13h18.17.988,Hippopolis_4AFCT,2021.1.4,59.71539641903648,
Camponello,stimuli/subj_files/student1_cityB.csv,./stimuli/leipzig.jpg,./stimuli/street_plate2.png,LEVÉL UTCA,stimuli/scenes/019a.jpg,scene,0,stimuli/scenes/019a.jpg,stimuli/objects/052a.jpg,stimuli/scenes/019a.jpg,stimuli/scenes/019b.jpg,stimuli/objects/052b.jpg,dist1,target,lure,dist2,0,0,0,1,0,76,76,8,,,,,,,,,,,379.5479448999977,None,380.5604542999936,None,380.5604542999936,None,380.5604542999936,None,380.5604542999936,None,380.5604542999936,None,380.5604542999936,None,380.5604542999936,None,380.5604542999936,None,380.5604542999936,None,380.5604542999936,None,380.5604542999936,None,None,,380.5604542999936,None,invalid,None,None,None,None,None,,,,,,,,,,,,,,student1,2022-10-21_13h18.17.988,Hippopolis_4AFCT,2021.1.4,59.71539641903648,
Camponello,stimuli/subj_files/student1_cityB.csv,./stimuli/leipzig.jpg,./stimuli/street_plate2.png,KÍGYÓ UTCA,stimuli/scenes/032a.jpg,scene,0,stimuli/scenes/032a.jpg,stimuli/scenes/032a.jpg,stimuli/objects/088a.jpg,stimuli/scenes/032b.jpg,stimuli/objects/088b.jpg,target,dist1,lure,dist2,0,0,0,1,0,77,77,76,,,,,,,,,,,385.5649193999998,None,386.57485609999276,None,386.57485609999276,None,386.57485609999276,None,386.57485609999276,None,386.57485609999276,None,386.57485609999276,None,386.57485609999276,None,386.57485609999276,None,386.57485609999276,None,386.57485609999276,None,386.57485609999276,None,d,3.002242100017611,386.57485609999276,None,target,None,None,None,None,None,,,,,,,,,,,,,,student1,2022-10-21_13h18.17.988,Hippopolis_4AFCT,2021.1.4,59.71539641903648,
Camponello,stimuli/subj_files/student1_cityB.csv,./stimuli/leipzig.jpg,./stimuli/street_plate2.png,FÉSŰ UTCA,stimuli/objects/084a.jpg,object,0,stimuli/objects/084a.jpg,stimuli/objects/118b.jpg,stimuli/objects/118a.jpg,stimuli/objects/084a.jpg,stimuli/objects/084b.jpg,dist2,dist1,target,lure,0,0,0,1,0,78,78,23,,,,,,,,,,,389.59742820000974,None,390.6186265999859,None,390.6186265999859,None,390.6186265999859,None,390.6186265999859,None,390.6186265999859,None,390.6186265999859,None,390.6186265999859,None,390.6186265999859,None,390.6186265999859,None,390.6186265999859,None,390.6186265999859,None,j,4.146035900019342,390.6186265999859,None,target,None,None,None,None,None,,,,,,,,,,,,,,student1,2022-10-21_13h18.17.988,Hippopolis_4AFCT,2021.1.4,59.71539641903648,
Camponello,stimuli/subj_files/student1_cityB.csv,./stimuli/leipzig.jpg,./stimuli/street_plate2.png,SZILVA UTCA,stimuli/objects/105a.jpg,object,0,stimuli/objects/105a.jpg,stimuli/objects/049b.jpg,stimuli/objects/105b.jpg,stimuli/objects/049a.jpg,stimuli/objects/105a.jpg,dist2,lure,dist1,target,0,0,0,1,0,79,79,36,,,,,,,,,,,394.78101370000513,None,395.79976069999975,None,395.79976069999975,None,395.79976069999975,None,395.79976069999975,None,395.79976069999975,None,395.79976069999975,None,395.79976069999975,None,395.79976069999975,None,395.79976069999975,None,395.79976069999975,None,395.79976069999975,None,k,3.9152527000114787,395.79976069999975,None,target,None,None,None,None,None,,,,,,,,,,,,,,student1,2022-10-21_13h18.17.988,Hippopolis_4AFCT,2021.1.4,59.71539641903648,
Hippopolis,stimuli/subj_files/student1_cityA.csv,./stimuli/frankfurt.jpg,./stimuli/street_plate1.png,PÁFRÁNY UTCA,stimuli/scenes/101a.jpg,scene,0,stimuli/scenes/101a.jpg,stimuli/scenes/101a.jpg,stimuli/scenes/101b.jpg,stimuli/objects/051a.jpg,stimuli/objects/051b.jpg,target,lure,dist1,dist2,0,1,1,0,0,0,0,0,,,,,,,415.422155200009,None,415.422155200009,None,418.4071377000073,None,419.427826500003,None,419.427826500003,None,419.427826500003,None,419.427826500003,None,419.427826500003,None,419.427826500003,None,419.427826500003,None,419.427826500003,None,419.427826500003,None,419.427826500003,None,419.427826500003,None,d,2.965997699997388,419.427826500003,None,target,None,None,None,None,None,,64,4,2,0,399.731389099994,None,space,15.624894900014624,399.731389099994,None,,,student1,2022-10-21_13h18.17.988,Hippopolis_4AFCT,2021.1.4,59.71539641903648,
Hippopolis,stimuli/subj_files/student1_cityA.csv,./stimuli/frankfurt.jpg,./stimuli/street_plate1.png,TRIATLON UTCA,stimuli/objects/024a.jpg,object,0,stimuli/objects/024a.jpg,stimuli/objects/024b.jpg,stimuli/objects/080a.jpg,stimuli/objects/024a.jpg,stimuli/objects/080b.jpg,lure,dist1,target,dist2,0,1,1,0,0,1,1,2,,,,,,,,,,,422.41409370000474,None,423.4405809000018,None,423.4405809000018,None,423.4405809000018,None,423.4405809000018,None,423.4405809000018,None,423.4405809000018,None,423.4405809000018,None,423.4405809000018,None,423.4405809000018,None,423.4405809000018,None,423.4405809000018,None,j,2.1042636999918614,423.4405809000018,None,target,None,None,None,None,None,,,,,,,,,,,,,,student1,2022-10-21_13h18.17.988,Hippopolis_4AFCT,2021.1.4,59.71539641903648,
Hippopolis,stimuli/subj_files/student1_cityA.csv,./stimuli/frankfurt.jpg,./stimuli/street_plate1.png,SIVATAG UTCA,stimuli/scenes/016a.jpg,scene,2,stimuli/objects/046a.jpg,stimuli/objects/046b.jpg,stimuli/objects/006a.jpg,stimuli/objects/006b.jpg,stimuli/objects/046a.jpg,lure,dist1,dist2,target,0,1,1,0,0,2,2,23,,,,,,,,,,,425.5644428000087,None,426.58489699999336,None,426.58489699999336,None,426.58489699999336,None,426.58489699999336,None,426.58489699999336,None,426.58489699999336,None,426.58489699999336,None,426.58489699999336,None,426.58489699999336,None,426.58489699999336,None,426.58489699999336,None,k,4.5204566000029445,426.58489699999336,None,target,None,None,None,None,None,,,,,,,,,,,,,,student1,2022-10-21_13h18.17.988,Hippopolis_4AFCT,2021.1.4,59.71539641903648,
Hippopolis,stimuli/subj_files/student1_cityA.csv,./stimuli/frankfurt.jpg,./stimuli/street_plate1.png,HEGEDŰ UTCA,stimuli/scenes/113a.jpg,scene,2,stimuli/objects/036a.jpg,stimuli/objects/036b.jpg,stimuli/scenes/059b.jpg,stimuli/scenes/059a.jpg,stimuli/objects/036a.jpg,lure,dist2,dist1,target,0,1,1,0,0,3,3,69,,,,,,,,,,,431.13066289998824,None,432.15746739998576,None,432.15746739998576,None,432.15746739998576,None,432.15746739998576,None,432.15746739998576,None,432.15746739998576,None,432.15746739998576,None,432.15746739998576,None,432.15746739998576,None,432.15746739998576,None,432.15746739998576,None,k,2.723121999995783,432.15746739998576,None,target,None,None,None,None,None,,,,,,,,,,,,,,student1,2022-10-21_13h18.17.988,Hippopolis_4AFCT,2021.1.4,59.71539641903648,
Hippopolis,stimuli/subj_files/student1_cityA.csv,./stimuli/frankfurt.jpg,./stimuli/street_plate1.png,OLDAL UTCA,stimuli/scenes/093a.jpg,scene,2,stimuli/objects/107a.jpg,stimuli/objects/107b.jpg,stimuli/objects/022a.jpg,stimuli/objects/107a.jpg,stimuli/objects/022b.jpg,lure,dist1,target,dist2,0,1,1,0,0,4,4,11,,,,,,,,,,,434.89708629998495,None,435.9325293999864,None,435.9325293999864,None,435.9325293999864,None,435.9325293999864,None,435.9325293999864,None,435.9325293999864,None,435.9325293999864,None,435.9325293999864,None,435.9325293999864,None,435.9325293999864,None,435.9325293999864,None,j,3.3047165000170935,435.9325293999864,None,target,None,None,None,None,None,,,,,,,,,,,,,,student1,2022-10-21_13h18.17.988,Hippopolis_4AFCT,2021.1.4,59.71539641903648,
Hippopolis,stimuli/subj_files/student1_cityA.csv,./stimuli/frankfurt.jpg,./stimuli/street_plate1.png,FÉNYKÉP UTCA,stimuli/scenes/010a.jpg,scene,1,stimuli/scenes/078a.jpg,stimuli/scenes/088a.jpg,stimuli/scenes/078a.jpg,stimuli/scenes/088b.jpg,stimuli/scenes/078b.jpg,dist1,target,dist2,lure,0,1,1,0,0,5,5,32,,,,,,,,,,,439.26399330000277,None,440.2871440000017,None,440.2871440000017,None,440.2871440000017,None,440.2871440000017,None,440.2871440000017,None,440.2871440000017,None,440.2871440000017,None,440.2871440000017,None,440.2871440000017,None,440.2871440000017,None,440.2871440000017,None,f,2.3977281999832485,440.2871440000017,None,target,None,None,None,None,None,,,,,,,,,,,,,,student1,2022-10-21_13h18.17.988,Hippopolis_4AFCT,2021.1.4,59.71539641903648,
Hippopolis,stimuli/subj_files/student1_cityA.csv,./stimuli/frankfurt.jpg,./stimuli/street_plate1.png,MOTOR UTCA,stimuli/objects/097a.jpg,object,1,stimuli/objects/071a.jpg,stimuli/objects/015b.jpg,stimuli/objects/071b.jpg,stimuli/objects/071a.jpg,stimuli/objects/015a.jpg,dist2,lure,target,dist1,0,1,1,0,0,6,6,36,,,,,,,,,,,442.713811900001,None,443.7431980999827,None,443.7431980999827,None,443.7431980999827,None,443.7431980999827,None,443.7431980999827,None,443.7431980999827,None,443.7431980999827,None,443.7431980999827,None,443.7431980999827,None,443.7431980999827,None,443.7431980999827,None,j,3.6246112000080757,443.7431980999827,None,target,None,None,None,None,None,,,,,,,,,,,,,,student1,2022-10-21_13h18.17.988,Hippopolis_4AFCT,2021.1.4,59.71539641903648,
Hippopolis,stimuli/subj_files/student1_cityA.csv,./stimuli/frankfurt.jpg,./stimuli/street_plate1.png,TOBOZ UTCA,stimuli/objects/001a.jpg,object,2,stimuli/scenes/059a.jpg,stimuli/scenes/059a.jpg,stimuli/objects/085a.jpg,stimuli/objects/085b.jpg,stimuli/scenes/059b.jpg,target,dist1,dist2,lure,0,1,1,0,0,7,7,40,,,,,,,,,,,447.39664489999996,None,448.4144710999972,None,448.4144710999972,None,448.4144710999972,None,448.4144710999972,None,448.4144710999972,None,448.4144710999972,None,448.4144710999972,None,448.4144710999972,None,448.4144710999972,None,448.4144710999972,None,448.4144710999972,None,d,2.1853623999923,448.4144710999972,None,target,None,None,None,None,None,,,,,,,,,,,,,,student1,2022-10-21_13h18.17.988,Hippopolis_4AFCT,2021.1.4,59.71539641903648,
Hippopolis,stimuli/subj_files/student1_cityA.csv,./stimuli/frankfurt.jpg,./stimuli/street_plate1.png,HEGESZTŐ UTCA,stimuli/scenes/043a.jpg,scene,0,stimuli/scenes/043a.jpg,stimuli/scenes/043b.jpg,stimuli/scenes/043a.jpg,stimuli/objects/062a.jpg,stimuli/objects/062b.jpg,lure,target,dist1,dist2,0,1,1,0,0,8,8,77,,,,,,,,,,,450.6304730999982,None,451.65835439998773,None,451.65835439998773,None,451.65835439998773,None,451.65835439998773,None,451.65835439998773,None,451.65835439998773,None,451.65835439998773,None,451.65835439998773,None,451.65835439998773,None,451.65835439998773,None,451.65835439998773,None,f,1.814461800007848,451.65835439998773,None,target,None,None,None,None,None,,,,,,,,,,,,,,student1,2022-10-21_13h18.17.988,Hippopolis_4AFCT,2021.1.4,59.71539641903648,
Hippopolis,stimuli/subj_files/student1_cityA.csv,./stimuli/frankfurt.jpg,./stimuli/street_plate1.png,HERNYÓ UTCA,stimuli/scenes/066a.jpg,scene,1,stimuli/scenes/037a.jpg,stimuli/scenes/037a.jpg,stimuli/objects/045b.jpg,stimuli/scenes/037b.jpg,stimuli/objects/045a.jpg,target,dist2,lure,dist1,0,1,1,0,0,9,9,5,,,,,,,,,,,453.4970037000021,None,454.5169809999934,None,454.5169809999934,None,454.5169809999934,None,454.5169809999934,None,454.5169809999934,None,454.5169809999934,None,454.5169809999934,None,454.5169809999934,None,454.5169809999934,None,454.5169809999934,None,454.5169809999934,None,f,3.3654340999783017,454.5169809999934,None,dist2,None,None,None,None,None,,,,,,,,,,,,,,student1,2022-10-21_13h18.17.988,Hippopolis_4AFCT,2021.1.4,59.71539641903648,
Hippopolis,stimuli/subj_files/student1_cityA.csv,./stimuli/frankfurt.jpg,./stimuli/street_plate1.png,HÁRFA UTCA,stimuli/objects/083a.jpg,object,2,stimuli/scenes/028a.jpg,stimuli/scenes/028b.jpg,stimuli/objects/012b.jpg,stimuli/objects/012a.jpg,stimuli/scenes/028a.jpg,lure,dist2,dist1,target,0,1,1,0,0,10,10,16,,,,,,,,,,,457.9132978999987,None,458.92214059998514,None,458.92214059998514,None,458.92214059998514,None,458.92214059998514,None,458.92214059998514,None,458.92214059998514,None,458.92214059998514,None,458.92214059998514,None,458.92214059998514,None,458.92214059998514,None,458.92214059998514,None,j,2.1435645000019576,458.92214059998514,None,dist1,None,None,None,None,None,,,,,,,,,,,,,,student1,2022-10-21_13h18.17.988,Hippopolis_4AFCT,2021.1.4,59.71539641903648,
Hippopolis,stimuli/subj_files/student1_cityA.csv,./stimuli/frankfurt.jpg,./stimuli/street_plate1.png,KAKAS UTCA,stimuli/objects/002a.jpg,object,2,stimuli/scenes/074a.jpg,stimuli/scenes/074b.jpg,stimuli/scenes/074a.jpg,stimuli/scenes/070a.jpg,stimuli/scenes/070b.jpg,lure,target,dist1,dist2,0,1,1,0,0,11,11,24,,,,,,,,,,,461.0964881000109,None,462.11595330000273,None,462.11595330000273,None,462.11595330000273,None,462.11595330000273,None,462.11595330000273,None,462.11595330000273,None,462.11595330000273,None,462.11595330000273,None,462.11595330000273,None,462.11595330000273,None,462.11595330000273,None,j,4.566794900019886,462.11595330000273,None,dist1,None,None,None,None,None,,,,,,,,,,,,,,student1,2022-10-21_13h18.17.988,Hippopolis_4AFCT,2021.1.4,59.71539641903648,
Hippopolis,stimuli/subj_files/student1_cityA.csv,./stimuli/frankfurt.jpg,./stimuli/street_plate1.png,FIÓK UTCA,stimuli/scenes/002a.jpg,scene,1,stimuli/scenes/014a.jpg,stimuli/scenes/014a.jpg,stimuli/objects/004a.jpg,stimuli/objects/004b.jpg,stimuli/scenes/014b.jpg,target,dist1,dist2,lure,0,1,1,0,0,12,12,73,,,,,,,,,,,466.71318980000797,None,467.73214670000016,None,467.73214670000016,None,467.73214670000016,None,467.73214670000016,None,467.73214670000016,None,467.73214670000016,None,467.73214670000016,None,467.73214670000016,None,467.73214670000016,None,467.73214670000016,None,467.73214670000016,None,d,3.3009020000172313,467.73214670000016,None,target,None,None,None,None,None,,,,,,,,,,,,,,student1,2022-10-21_13h18.17.988,Hippopolis_4AFCT,2021.1.4,59.71539641903648,
Hippopolis,stimuli/subj_files/student1_cityA.csv,./stimuli/frankfurt.jpg,./stimuli/street_plate1.png,VASALÓ UTCA,stimuli/objects/025a.jpg,object,2,stimuli/scenes/056a.jpg,stimuli/scenes/044a.jpg,stimuli/scenes/056b.jpg,stimuli/scenes/056a.jpg,stimuli/scenes/044b.jpg,dist1,lure,target,dist2,0,1,1,0,0,13,13,70,,,,,,,,,,,471.06296770001063,None,472.0798405999958,None,472.0798405999958,None,472.0798405999958,None,472.0798405999958,None,472.0798405999958,None,472.0798405999958,None,472.0798405999958,None,472.0798405999958,None,472.0798405999958,None,472.0798405999958,None,472.0798405999958,None,d,3.798428700014483,472.0798405999958,None,dist1,None,None,None,None,None,,,,,,,,,,,,,,student1,2022-10-21_13h18.17.988,Hippopolis_4AFCT,2021.1.4,59.71539641903648,
Hippopolis,stimuli/subj_files/student1_cityA.csv,./stimuli/frankfurt.jpg,./stimuli/street_plate1.png,HORDÓ UTCA,stimuli/scenes/095a.jpg,scene,0,stimuli/scenes/095a.jpg,stimuli/scenes/095a.jpg,stimuli/scenes/046a.jpg,stimuli/scenes/095b.jpg,stimuli/scenes/046b.jpg,target,dist1,lure,dist2,0,1,1,0,0,14,14,27,,,,,,,,,,,475.89621050001006,None,476.93616219999967,None,476.93616219999967,None,476.93616219999967,None,476.93616219999967,None,476.93616219999967,None,476.93616219999967,None,476.93616219999967,None,476.93616219999967,None,476.93616219999967,None,476.93616219999967,None,476.93616219999967,None,d,2.1984430000011344,476.93616219999967,None,target,None,None,None,None,None,,,,,,,,,,,,,,student1,2022-10-21_13h18.17.988,Hippopolis_4AFCT,2021.1.4,59.71539641903648,
Hippopolis,stimuli/subj_files/student1_cityA.csv,./stimuli/frankfurt.jpg,./stimuli/street_plate1.png,KARTON UTCA,stimuli/objects/101a.jpg,object,2,stimuli/scenes/044a.jpg,stimuli/scenes/074a.jpg,stimuli/scenes/044b.jpg,stimuli/scenes/044a.jpg,stimuli/scenes/074b.jpg,dist1,lure,target,dist2,0,1,1,0,0,15,15,8,,,,,,,,,,,479.16334359999746,None,480.17281590000493,None,480.17281590000493,None,480.17281590000493,None,480.17281590000493,None,480.17281590000493,None,480.17281590000493,None,480.17281590000493,None,480.17281590000493,None,480.17281590000493,None,480.17281590000493,None,480.17281590000493,None,j,4.361251499998616,480.17281590000493,None,target,None,None,None,None,None,,,,,,,,,,,,,,student1,2022-10-21_13h18.17.988,Hippopolis_4AFCT,2021.1.4,59.71539641903648,
Hippopolis,stimuli/subj_files/student1_cityA.csv,./stimuli/frankfurt.jpg,./stimuli/street_plate1.png,DOMINÓ UTCA,stimuli/scenes/042a.jpg,scene,0,stimuli/scenes/042a.jpg,stimuli/scenes/042a.jpg,stimuli/scenes/042b.jpg,stimuli/objects/070a.jpg,stimuli/objects/070b.jpg,target,lure,dist1,dist2,0,1,1,0,0,16,16,63,,,,,,,,,,,484.5628587999963,None,485.5813598000095,None,485.5813598000095,None,485.5813598000095,None,485.5813598000095,None,485.5813598000095,None,485.5813598000095,None,485.5813598000095,None,485.5813598000095,None,485.5813598000095,None,485.5813598000095,None,485.5813598000095,None,d,1.7902981000079308,485.5813598000095,None,target,None,None,None,None,None,,,,,,,,,,,,,,student1,2022-10-21_13h18.17.988,Hippopolis_4AFCT,2021.1.4,59.71539641903648,
Hippopolis,stimuli/subj_files/student1_cityA.csv,./stimuli/frankfurt.jpg,./stimuli/street_plate1.png,ÜVEG UTCA,stimuli/scenes/061a.jpg,scene,2,stimuli/objects/085a.jpg,stimuli/objects/085b.jpg,stimuli/scenes/084a.jpg,stimuli/objects/085a.jpg,stimuli/scenes/084b.jpg,lure,dist1,target,dist2,0,1,1,0,0,17,17,19,,,,,,,,,,,487.39652099998784,None,488.4208853000018,None,488.4208853000018,None,488.4208853000018,None,488.4208853000018,None,488.4208853000018,None,488.4208853000018,None,488.4208853000018,None,488.4208853000018,None,488.4208853000018,None,488.4208853000018,None,488.4208853000018,None,j,3.8369783999805804,488.4208853000018,None,target,None,None,None,None,None,,,,,,,,,,,,,,student1,2022-10-21_13h18.17.988,Hippopolis_4AFCT,2021.1.4,59.71539641903648,
Hippopolis,stimuli/subj_files/student1_cityA.csv,./stimuli/frankfurt.jpg,./stimuli/street_plate1.png,PAPAGÁJ UTCA,stimuli/objects/093a.jpg,object,2,stimuli/scenes/097a.jpg,stimuli/scenes/097a.jpg,stimuli/scenes/109b.jpg,stimuli/scenes/109a.jpg,stimuli/scenes/097b.jpg,target,dist2,dist1,lure,0,1,1,0,0,18,18,55,,,,,,,,,,,492.2793478000094,None,493.3094856000098,None,493.3094856000098,None,493.3094856000098,None,493.3094856000098,None,493.3094856000098,None,493.3094856000098,None,493.3094856000098,None,493.3094856000098,None,493.3094856000098,None,493.3094856000098,None,493.3094856000098,None,j,3.737021500011906,493.3094856000098,None,dist1,None,None,None,None,None,,,,,,,,,,,,,,student1,2022-10-21_13h18.17.988,Hippopolis_4AFCT,2021.1.4,59.71539641903648,
Hippopolis,stimuli/subj_files/student1_cityA.csv,./stimuli/frankfurt.jpg,./stimuli/street_plate1.png,TALICSKA UTCA,stimuli/objects/014a.jpg,object,1,stimuli/objects/108a.jpg,stimuli/objects/109a.jpg,stimuli/objects/109b.jpg,stimuli/objects/108a.jpg,stimuli/objects/108b.jpg,dist1,dist2,target,lure,0,1,1,0,0,19,19,13,,,,,,,,,,,497.07921460000216,None,498.1058587000007,None,498.1058587000007,None,498.1058587000007,None,498.1058587000007,None,498.1058587000007,None,498.1058587000007,None,498.1058587000007,None,498.1058587000007,None,498.1058587000007,None,498.1058587000007,None,498.1058587000007,None,k,4.39969089999795,498.1058587000007,None,lure,None,None,None,None,None,,,,,,,,,,,,,,student1,2022-10-21_13h18.17.988,Hippopolis_4AFCT,2021.1.4,59.71539641903648,
Hippopolis,stimuli/subj_files/student1_cityA.csv,./stimuli/frankfurt.jpg,./stimuli/street_plate1.png,CSAVAR UTCA,stimuli/objects/078a.jpg,object,0,stimuli/objects/078a.jpg,stimuli/objects/078b.jpg,stimuli/objects/024b.jpg,stimuli/objects/078a.jpg,stimuli/objects/024a.jpg,lure,dist2,target,dist1,0,1,1,0,0,20,20,10,,,,,,,,,,,502.5290490000043,None,503.5582915999985,None,503.5582915999985,None,503.5582915999985,None,503.5582915999985,None,503.5582915999985,None,503.5582915999985,None,503.5582915999985,None,503.5582915999985,None,503.5582915999985,None,503.5582915999985,None,503.5582915999985,None,d,3.8988247999805026,503.5582915999985,None,lure,None,None,None,None,None,,,,,,,,,,,,,,student1,2022-10-21_13h18.17.988,Hippopolis_4AFCT,2021.1.4,59.71539641903648,
Hippopolis,stimuli/subj_files/student1_cityA.csv,./stimuli/frankfurt.jpg,./stimuli/street_plate1.png,RÓZSA UTCA,stimuli/objects/091a.jpg,object,0,stimuli/objects/091a.jpg,stimuli/objects/091b.jpg,stimuli/objects/078b.jpg,stimuli/objects/078a.jpg,stimuli/objects/091a.jpg,lure,dist2,dist1,target,0,1,1,0,0,21,21,45,,,,,,,,,,,507.47959410000476,None,508.495282399992,None,508.495282399992,None,508.495282399992,None,508.495282399992,None,508.495282399992,None,508.495282399992,None,508.495282399992,None,508.495282399992,None,508.495282399992,None,508.495282399992,None,508.495282399992,None,k,2.741727799992077,508.495282399992,None,target,None,None,None,None,None,,,,,,,,,,,,,,student1,2022-10-21_13h18.17.988,Hippopolis_4AFCT,2021.1.4,59.71539641903648,
Hippopolis,stimuli/subj_files/student1_cityA.csv,./stimuli/frankfurt.jpg,./stimuli/street_plate1.png,FÓKA UTCA,stimuli/scenes/058a.jpg,scene,0,stimuli/scenes/058a.jpg,stimuli/scenes/058a.jpg,stimuli/scenes/058b.jpg,stimuli/objects/111b.jpg,stimuli/objects/111a.jpg,target,lure,dist2,dist1,0,1,1,0,0,22,22,51,,,,,,,,,,,511.2621482999821,None,512.2952337999886,None,512.2952337999886,None,512.2952337999886,None,512.2952337999886,None,512.2952337999886,None,512.2952337999886,None,512.2952337999886,None,512.2952337999886,None,512.2952337999886,None,512.2952337999886,None,512.2952337999886,None,d,2.178727499995148,512.2952337999886,None,target,None,None,None,None,None,,,,,,,,,,,,,,student1,2022-10-21_13h18.17.988,Hippopolis_4AFCT,2021.1.4,59.71539641903648,
Hippopolis,stimuli/subj_files/student1_cityA.csv,./stimuli/frankfurt.jpg,./stimuli/street_plate1.png,BAGOLY UTCA,stimuli/scenes/029a.jpg,scene,2,stimuli/objects/028a.jpg,stimuli/objects/028b.jpg,stimuli/objects/028a.jpg,stimuli/scenes/028a.jpg,stimuli/scenes/028b.jpg,lure,target,dist1,dist2,0,1,1,0,0,23,23,21,,,,,,,,,,,514.4958065999963,None,515.5238711999846,None,515.5238711999846,None,515.5238711999846,None,515.5238711999846,None,515.5238711999846,None,515.5238711999846,None,515.5238711999846,None,515.5238711999846,None,515.5238711999846,None,515.5238711999846,None,515.5238711999846,None,f,2.4992553000047337,515.5238711999846,None,target,None,None,None,None,None,,,,,,,,,,,,,,student1,2022-10-21_13h18.17.988,Hippopolis_4AFCT,2021.1.4,59.71539641903648,
Hippopolis,stimuli/subj_files/student1_cityA.csv,./stimuli/frankfurt.jpg,./stimuli/street_plate1.png,KÖMÉNYMAG UTCA,stimuli/objects/068a.jpg,object,1,stimuli/objects/045a.jpg,stimuli/objects/045a.jpg,stimuli/objects/045b.jpg,stimuli/objects/071a.jpg,stimuli/objects/071b.jpg,target,lure,dist1,dist2,0,1,1,0,0,24,24,18,,,,,,,,,,,518.0453471000073,None,519.063009000005,None,519.063009000005,None,519.063009000005,None,519.063009000005,None,519.063009000005,None,519.063009000005,None,519.063009000005,None,519.063009000005,None,519.063009000005,None,519.063009000005,None,519.063009000005,None,f,3.553188699996099,519.063009000005,None,lure,None,None,None,None,None,,,,,,,,,,,,,,student1,2022-10-21_13h18.17.988,Hippopolis_4AFCT,2021.1.4,59.71539641903648,
Hippopolis,stimuli/subj_files/student1_cityA.csv,./stimuli/frankfurt.jpg,./stimuli/street_plate1.png,PAPUCS UTCA,stimuli/scenes/051a.jpg,scene,0,stimuli/scenes/051a.jpg,stimuli/scenes/051b.jpg,stimuli/scenes/051a.jpg,stimuli/scenes/090a.jpg,stimuli/scenes/090b.jpg,lure,target,dist1,dist2,0,1,1,0,0,25,25,68,,,,,,,,,,,522.6458247999835,None,523.6677523000108,None,523.6677523000108,None,523.6677523000108,None,523.6677523000108,None,523.6677523000108,None,523.6677523000108,None,523.6677523000108,None,523.6677523000108,None,523.6677523000108,None,523.6677523000108,None,523.6677523000108,None,f,3.4103802999889012,523.6677523000108,None,target,None,None,None,None,None,,,,,,,,,,,,,,student1,2022-10-21_13h18.17.988,Hippopolis_4AFCT,2021.1.4,59.71539641903648,
Hippopolis,stimuli/subj_files/student1_cityA.csv,./stimuli/frankfurt.jpg,./stimuli/street_plate1.png,PULÓVER UTCA,stimuli/objects/114a.jpg,object,0,stimuli/objects/114a.jpg,stimuli/scenes/050b.jpg,stimuli/scenes/050a.jpg,stimuli/objects/114b.jpg,stimuli/objects/114a.jpg,dist2,dist1,lure,target,0,1,1,0,0,26,26,43,,,,,,,,,,,527.095771799999,None,528.1184248999925,None,528.1184248999925,None,528.1184248999925,None,528.1184248999925,None,528.1184248999925,None,528.1184248999925,None,528.1184248999925,None,528.1184248999925,None,528.1184248999925,None,528.1184248999925,None,528.1184248999925,None,k,2.418215700017754,528.1184248999925,None,target,None,None,None,None,None,,,,,,,,,,,,,,student1,2022-10-21_13h18.17.988,Hippopolis_4AFCT,2021.1.4,59.71539641903648,
Hippopolis,stimuli/subj_files/student1_cityA.csv,./stimuli/frankfurt.jpg,./stimuli/street_plate1.png,MOCSÁR UTCA,stimuli/objects/080a.jpg,object,0,stimuli/objects/080a.jpg,stimuli/objects/080b.jpg,stimuli/objects/080a.jpg,stimuli/scenes/043b.jpg,stimuli/scenes/043a.jpg,lure,target,dist2,dist1,0,1,1,0,0,27,27,17,,,,,,,,,,,530.5619802000001,None,531.5743745999935,None,531.5743745999935,None,531.5743745999935,None,531.5743745999935,None,531.5743745999935,None,531.5743745999935,None,531.5743745999935,None,531.5743745999935,None,531.5743745999935,None,531.5743745999935,None,531.5743745999935,None,f,1.6548752000089735,531.5743745999935,None,target,None,None,None,None,None,,,,,,,,,,,,,,student1,2022-10-21_13h18.17.988,Hippopolis_4AFCT,2021.1.4,59.71539641903648,
Hippopolis,stimuli/subj_files/student1_cityA.csv,./stimuli/frankfurt.jpg,./stimuli/street_plate1.png,LÁNDZSA UTCA,stimuli/scenes/090a.jpg,scene,0,stimuli/scenes/090a.jpg,stimuli/scenes/090a.jpg,stimuli/objects/091b.jpg,stimuli/scenes/090b.jpg,stimuli/objects/091a.jpg,target,dist2,lure,dist1,0,1,1,0,0,28,28,39,,,,,,,,,,,533.2451487999933,None,534.266833200003,None,534.266833200003,None,534.266833200003,None,534.266833200003,None,534.266833200003,None,534.266833200003,None,534.266833200003,None,534.266833200003,None,534.266833200003,None,534.266833200003,None,534.266833200003,None,d,2.174934700015001,534.266833200003,None,target,None,None,None,None,None,,,,,,,,,,,,,,student1,2022-10-21_13h18.17.988,Hippopolis_4AFCT,2021.1.4,59.71539641903648,
Hippopolis,stimuli/subj_files/student1_cityA.csv,./stimuli/frankfurt.jpg,./stimuli/street_plate1.png,POGÁCSA UTCA,stimuli/scenes/046a.jpg,scene,0,stimuli/scenes/046a.jpg,stimuli/scenes/042a.jpg,stimuli/scenes/046a.jpg,stimuli/scenes/046b.jpg,stimuli/scenes/042b.jpg,dist1,target,lure,dist2,0,1,1,0,0,29,29,49,,,,,,,,,,,536.4620839999989,None,537.4656172999821,None,537.4656172999821,None,537.4656172999821,None,537.4656172999821,None,537.4656172999821,None,537.4656172999821,None,537.4656172999821,None,537.4656172999821,None,537.4656172999821,None,537.4656172999821,None,537.4656172999821,None,f,2.8316336999996565,537.4656172999821,None,target,None,None,None,None,None,,,,,,,,,,,,,,student1,2022-10-21_13h18.17.988,Hippopolis_4AFCT,2021.1.4,59.71539641903648,
Hippopolis,stimuli/subj_files/student1_cityA.csv,./stimuli/frankfurt.jpg,./stimuli/street_plate1.png,CSILLAG UTCA,stimuli/scenes/083a.jpg,scene,1,stimuli/scenes/117a.jpg,stimuli/scenes/117a.jpg,stimuli/scenes/117b.jpg,stimuli/objects/041a.jpg,stimuli/objects/041b.jpg,target,lure,dist1,dist2,0,1,1,0,0,30,30,15,,,,,,,,,,,540.3284161000047,None,541.3636502999871,None,541.3636502999871,None,541.3636502999871,None,541.3636502999871,None,541.3636502999871,None,541.3636502999871,None,541.3636502999871,None,541.3636502999871,None,541.3636502999871,None,541.3636502999871,None,541.3636502999871,None,d,4.148016300023301,541.3636502999871,None,target,None,None,None,None,None,,,,,,,,,,,,,,student1,2022-10-21_13h18.17.988,Hippopolis_4AFCT,2021.1.4,59.71539641903648,
Hippopolis,stimuli/subj_files/student1_cityA.csv,./stimuli/frankfurt.jpg,./stimuli/street_plate1.png,MARTINI UTCA,stimuli/objects/060a.jpg,object,1,stimuli/objects/011a.jpg,stimuli/objects/075b.jpg,stimuli/objects/075a.jpg,stimuli/objects/011b.jpg,stimuli/objects/011a.jpg,dist2,dist1,lure,target,0,1,1,0,0,31,31,60,,,,,,,,,,,545.5283971999888,None,546.5588851000066,None,546.5588851000066,None,546.5588851000066,None,546.5588851000066,None,546.5588851000066,None,546.5588851000066,None,546.5588851000066,None,546.5588851000066,None,546.5588851000066,None,546.5588851000066,None,546.5588851000066,None,k,2.8936444999999367,546.5588851000066,None,target,None,None,None,None,None,,,,,,,,,,,,,,student1,2022-10-21_13h18.17.988,Hippopolis_4AFCT,2021.1.4,59.71539641903648,
Hippopolis,stimuli/subj_files/student1_cityA.csv,./stimuli/frankfurt.jpg,./stimuli/street_plate1.png,AJÁNDÉK UTCA,stimuli/scenes/005a.jpg,scene,1,stimuli/scenes/009a.jpg,stimuli/scenes/078b.jpg,stimuli/scenes/078a.jpg,stimuli/scenes/009a.jpg,stimuli/scenes/009b.jpg,dist2,dist1,target,lure,0,1,1,0,0,32,32,28,,,,,,,,,,,549.4781642000016,None,550.4993948999909,None,550.4993948999909,None,550.4993948999909,None,550.4993948999909,None,550.4993948999909,None,550.4993948999909,None,550.4993948999909,None,550.4993948999909,None,550.4993948999909,None,550.4993948999909,None,550.4993948999909,None,j,3.2941567999951076,550.4993948999909,None,target,None,None,None,None,None,,,,,,,,,,,,,,student1,2022-10-21_13h18.17.988,Hippopolis_4AFCT,2021.1.4,59.71539641903648,
Hippopolis,stimuli/subj_files/student1_cityA.csv,./stimuli/frankfurt.jpg,./stimuli/street_plate1.png,BÖGRE UTCA,stimuli/objects/050a.jpg,object,1,stimuli/objects/076a.jpg,stimuli/scenes/037a.jpg,stimuli/objects/076a.jpg,stimuli/objects/076b.jpg,stimuli/scenes/037b.jpg,dist1,target,lure,dist2,0,1,1,0,0,33,33,41,,,,,,,,,,,553.8116762999853,None,554.8308871999907,None,554.8308871999907,None,554.8308871999907,None,554.8308871999907,None,554.8308871999907,None,554.8308871999907,None,554.8308871999907,None,554.8308871999907,None,554.8308871999907,None,554.8308871999907,None,554.8308871999907,None,f,3.4349933000048622,554.8308871999907,None,target,None,None,None,None,None,,,,,,,,,,,,,,student1,2022-10-21_13h18.17.988,Hippopolis_4AFCT,2021.1.4,59.71539641903648,
Hippopolis,stimuli/subj_files/student1_cityA.csv,./stimuli/frankfurt.jpg,./stimuli/street_plate1.png,PÉKSÉG UTCA,stimuli/scenes/073a.jpg,scene,2,stimuli/objects/059a.jpg,stimuli/objects/059a.jpg,stimuli/objects/046b.jpg,stimuli/objects/059b.jpg,stimuli/objects/046a.jpg,target,dist2,lure,dist1,0,1,1,0,0,34,34,61,,,,,,,,,,,558.2948449999967,None,559.319946100004,None,559.319946100004,None,559.319946100004,None,559.319946100004,None,559.319946100004,None,559.319946100004,None,559.319946100004,None,559.319946100004,None,559.319946100004,None,559.319946100004,None,559.319946100004,None,d,4.113519600010477,559.319946100004,None,target,None,None,None,None,None,,,,,,,,,,,,,,student1,2022-10-21_13h18.17.988,Hippopolis_4AFCT,2021.1.4,59.71539641903648,
Hippopolis,stimuli/subj_files/student1_cityA.csv,./stimuli/frankfurt.jpg,./stimuli/street_plate1.png,KOCKA UTCA,stimuli/objects/062a.jpg,object,0,stimuli/objects/062a.jpg,stimuli/scenes/095b.jpg,stimuli/objects/062a.jpg,stimuli/objects/062b.jpg,stimuli/scenes/095a.jpg,dist2,target,lure,dist1,0,1,1,0,0,35,35,35,,,,,,,,,,,563.4613460999972,None,564.485515599983,None,564.485515599983,None,564.485515599983,None,564.485515599983,None,564.485515599983,None,564.485515599983,None,564.485515599983,None,564.485515599983,None,564.485515599983,None,564.485515599983,None,564.485515599983,None,j,1.7716889000148512,564.485515599983,None,lure,None,None,None,None,None,,,,,,,,,,,,,,student1,2022-10-21_13h18.17.988,Hippopolis_4AFCT,2021.1.4,59.71539641903648,
Hippopolis,stimuli/subj_files/student1_cityA.csv,./stimuli/frankfurt.jpg,./stimuli/street_plate1.png,NARANCS UTCA,stimuli/objects/017a.jpg,object,1,stimuli/objects/075a.jpg,stimuli/objects/075a.jpg,stimuli/scenes/041b.jpg,stimuli/scenes/041a.jpg,stimuli/objects/075b.jpg,target,dist2,dist1,lure,0,1,1,0,0,36,36,76,,,,,,,,,,,566.2779786000028,None,567.2978407999908,None,567.2978407999908,None,567.2978407999908,None,567.2978407999908,None,567.2978407999908,None,567.2978407999908,None,567.2978407999908,None,567.2978407999908,None,567.2978407999908,None,567.2978407999908,None,567.2978407999908,None,k,4.242115700006252,567.2978407999908,None,lure,None,None,None,None,None,,,,,,,,,,,,,,student1,2022-10-21_13h18.17.988,Hippopolis_4AFCT,2021.1.4,59.71539641903648,
Hippopolis,stimuli/subj_files/student1_cityA.csv,./stimuli/frankfurt.jpg,./stimuli/street_plate1.png,PADLÓ UTCA,stimuli/objects/100a.jpg,object,0,stimuli/objects/100a.jpg,stimuli/scenes/058a.jpg,stimuli/scenes/058b.jpg,stimuli/objects/100a.jpg,stimuli/objects/100b.jpg,dist1,dist2,target,lure,0,1,1,0,0,37,37,59,,,,,,,,,,,571.5612248999823,None,572.5790508000064,None,572.5790508000064,None,572.5790508000064,None,572.5790508000064,None,572.5790508000064,None,572.5790508000064,None,572.5790508000064,None,572.5790508000064,None,572.5790508000064,None,572.5790508000064,None,572.5790508000064,None,j,3.01469390001148,572.5790508000064,None,target,None,None,None,None,None,,,,,,,,,,,,,,student1,2022-10-21_13h18.17.988,Hippopolis_4AFCT,2021.1.4,59.71539641903648,
Hippopolis,stimuli/subj_files/student1_cityA.csv,./stimuli/frankfurt.jpg,./stimuli/street_plate1.png,FOGAS UTCA,stimuli/scenes/025a.jpg,scene,1,stimuli/scenes/018a.jpg,stimuli/scenes/018b.jpg,stimuli/scenes/064a.jpg,stimuli/scenes/018a.jpg,stimuli/scenes/064b.jpg,lure,dist1,target,dist2,0,1,1,0,0,38,38,38,,,,,,,,,,,575.6113881999918,None,576.6244242000103,None,576.6244242000103,None,576.6244242000103,None,576.6244242000103,None,576.6244242000103,None,576.6244242000103,None,576.6244242000103,None,576.6244242000103,None,576.6244242000103,None,576.6244242000103,None,576.6244242000103,None,j,1.6621465999924112,576.6244242000103,None,target,None,None,None,None,None,,,,,,,,,,,,,,student1,2022-10-21_13h18.17.988,Hippopolis_4AFCT,2021.1.4,59.71539641903648,
Hippopolis,stimuli/subj_files/student1_cityA.csv,./stimuli/frankfurt.jpg,./stimuli/street_plate1.png,ÁLOM UTCA,stimuli/objects/070a.jpg,object,0,stimuli/objects/070a.jpg,stimuli/objects/070b.jpg,stimuli/objects/114b.jpg,stimuli/objects/114a.jpg,stimuli/objects/070a.jpg,lure,dist2,dist1,target,0,1,1,0,0,39,39,50,,,,,,,,,,,578.3115393999906,None,579.3365853999858,None,579.3365853999858,None,579.3365853999858,None,579.3365853999858,None,579.3365853999858,None,579.3365853999858,None,579.3365853999858,None,579.3365853999858,None,579.3365853999858,None,579.3365853999858,None,579.3365853999858,None,k,2.036589900002582,579.3365853999858,None,target,None,None,None,None,None,,,,,,,,,,,,,,student1,2022-10-21_13h18.17.988,Hippopolis_4AFCT,2021.1.4,59.71539641903648,
Hippopolis,stimuli/subj_files/student1_cityA.csv,./stimuli/frankfurt.jpg,./stimuli/street_plate1.png,KERET UTCA,stimuli/scenes/027a.jpg,scene,0,stimuli/scenes/027a.jpg,stimuli/objects/100a.jpg,stimuli/objects/100b.jpg,stimuli/scenes/027a.jpg,stimuli/scenes/027b.jpg,dist1,dist2,target,lure,0,1,1,0,0,40,40,3,,,,,,,,,,,581.3944099000073,None,582.4133064000052,None,582.4133064000052,None,582.4133064000052,None,582.4133064000052,None,582.4133064000052,None,582.4133064000052,None,582.4133064000052,None,582.4133064000052,None,582.4133064000052,None,582.4133064000052,None,582.4133064000052,None,j,2.1495572999992874,582.4133064000052,None,target,None,None,None,None,None,,,,,,,,,,,,,,student1,2022-10-21_13h18.17.988,Hippopolis_4AFCT,2021.1.4,59.71539641903648,
Hippopolis,stimuli/subj_files/student1_cityA.csv,./stimuli/frankfurt.jpg,./stimuli/street_plate1.png,KULLANCS UTCA,stimuli/objects/089a.jpg,object,0,stimuli/objects/089a.jpg,stimuli/scenes/072a.jpg,stimuli/objects/089a.jpg,stimuli/scenes/072b.jpg,stimuli/objects/089b.jpg,dist1,target,dist2,lure,0,1,1,0,0,41,41,34,,,,,,,,,,,584.5948671000078,None,585.6214443999925,None,585.6214443999925,None,585.6214443999925,None,585.6214443999925,None,585.6214443999925,None,585.6214443999925,None,585.6214443999925,None,585.6214443999925,None,585.6214443999925,None,585.6214443999925,None,585.6214443999925,None,f,2.0229907000029925,585.6214443999925,None,target,None,None,None,None,None,,,,,,,,,,,,,,student1,2022-10-21_13h18.17.988,Hippopolis_4AFCT,2021.1.4,59.71539641903648,
Hippopolis,stimuli/subj_files/student1_cityA.csv,./stimuli/frankfurt.jpg,./stimuli/street_plate1.png,LAKAT UTCA,stimuli/objects/066a.jpg,object,2,stimuli/scenes/084a.jpg,stimuli/scenes/084b.jpg,stimuli/scenes/034a.jpg,stimuli/scenes/084a.jpg,stimuli/scenes/034b.jpg,lure,dist1,target,dist2,0,1,1,0,0,42,42,58,,,,,,,,,,,587.6608674000017,None,588.6759644999984,None,588.6759644999984,None,588.6759644999984,None,588.6759644999984,None,588.6759644999984,None,588.6759644999984,None,588.6759644999984,None,588.6759644999984,None,588.6759644999984,None,588.6759644999984,None,588.6759644999984,None,j,3.7326386000204366,588.6759644999984,None,target,None,None,None,None,None,,,,,,,,,,,,,,student1,2022-10-21_13h18.17.988,Hippopolis_4AFCT,2021.1.4,59.71539641903648,
Hippopolis,stimuli/subj_files/student1_cityA.csv,./stimuli/frankfurt.jpg,./stimuli/street_plate1.png,SZOMSZÉD UTCA,stimuli/objects/026a.jpg,object,1,stimuli/objects/004a.jpg,stimuli/objects/027b.jpg,stimuli/objects/004b.jpg,stimuli/objects/004a.jpg,stimuli/objects/027a.jpg,dist2,lure,target,dist1,0,1,1,0,0,43,43,65,,,,,,,,,,,592.4282194999978,None,593.4479418999981,None,593.4479418999981,None,593.4479418999981,None,593.4479418999981,None,593.4479418999981,None,593.4479418999981,None,593.4479418999981,None,593.4479418999981,None,593.4479418999981,None,593.4479418999981,None,593.4479418999981,None,j,1.708780899993144,593.4479418999981,None,target,None,None,None,None,None,,,,,,,,,,,,,,student1,2022-10-21_13h18.17.988,Hippopolis_4AFCT,2021.1.4,59.71539641903648,
Hippopolis,stimuli/subj_files/student1_cityA.csv,./stimuli/frankfurt.jpg,./stimuli/street_plate1.png,KÖNYVTÁR UTCA,stimuli/objects/113a.jpg,object,1,stimuli/objects/109a.jpg,stimuli/objects/109a.jpg,stimuli/objects/109b.jpg,stimuli/scenes/067a.jpg,stimuli/scenes/067b.jpg,target,lure,dist1,dist2,0,1,1,0,0,44,44,42,,,,,,,,,,,595.1775435000018,None,596.2017428000108,None,596.2017428000108,None,596.2017428000108,None,596.2017428000108,None,596.2017428000108,None,596.2017428000108,None,596.2017428000108,None,596.2017428000108,None,596.2017428000108,None,596.2017428000108,None,596.2017428000108,None,j,4.389744399988558,596.2017428000108,None,dist1,600.6112214000023,None,space,600.6112214000023,None,2.2840412000077777,,,,,,,,,,,,,student1,2022-10-21_13h18.17.988,Hippopolis_4AFCT,2021.1.4,59.71539641903648,
Hippopolis,stimuli/subj_files/student1_cityA.csv,./stimuli/frankfurt.jpg,./stimuli/street_plate1.png,TOLLTARTÓ UTCA,stimuli/objects/032a.jpg,object,2,stimuli/scenes/119a.jpg,stimuli/scenes/119a.jpg,stimuli/scenes/104b.jpg,stimuli/scenes/104a.jpg,stimuli/scenes/119b.jpg,target,dist2,dist1,lure,0,1,1,0,0,45,45,67,,,,,,,,,,,602.9272940999945,None,603.9469739999913,None,603.9469739999913,None,603.9469739999913,None,603.9469739999913,None,603.9469739999913,None,603.9469739999913,None,603.9469739999913,None,603.9469739999913,None,603.9469739999913,None,603.9469739999913,None,603.9469739999913,None,d,2.149978100002045,603.9469739999913,None,target,None,None,None,None,None,,,,,,,,,,,,,,student1,2022-10-21_13h18.17.988,Hippopolis_4AFCT,2021.1.4,59.71539641903648,
Hippopolis,stimuli/subj_files/student1_cityA.csv,./stimuli/frankfurt.jpg,./stimuli/street_plate1.png,PÁLMAFA UTCA,stimuli/objects/090a.jpg,object,1,stimuli/objects/007a.jpg,stimuli/objects/053a.jpg,stimuli/objects/007a.jpg,stimuli/objects/053b.jpg,stimuli/objects/007b.jpg,dist1,target,dist2,lure,0,1,1,0,0,46,46,12,,,,,,,,,,,606.1278189999866,None,607.1567729999952,None,607.1567729999952,None,607.1567729999952,None,607.1567729999952,None,607.1567729999952,None,607.1567729999952,None,607.1567729999952,None,607.1567729999952,None,607.1567729999952,None,607.1567729999952,None,607.1567729999952,None,d,2.656149099988397,607.1567729999952,None,dist1,None,None,None,None,None,,,,,,,,,,,,,,student1,2022-10-21_13h18.17.988,Hippopolis_4AFCT,2021.1.4,59.71539641903648,
Hippopolis,stimuli/subj_files/student1_cityA.csv,./stimuli/frankfurt.jpg,./stimuli/street_plate1.png,KORONG UTCA,stimuli/scenes/065a.jpg,scene,1,stimuli/scenes/004a.jpg,stimuli/scenes/004a.jpg,stimuli/scenes/011b.jpg,stimuli/scenes/011a.jpg,stimuli/scenes/004b.jpg,target,dist2,dist1,lure,0,1,1,0,0,47,47,53,,,,,,,,,,,609.8442587000027,None,610.8629243999894,None,610.8629243999894,None,610.8629243999894,None,610.8629243999894,None,610.8629243999894,None,610.8629243999894,None,610.8629243999894,None,610.8629243999894,None,610.8629243999894,None,610.8629243999894,None,610.8629243999894,None,d,3.5825326000049245,610.8629243999894,None,target,None,None,None,None,None,,,,,,,,,,,,,,student1,2022-10-21_13h18.17.988,Hippopolis_4AFCT,2021.1.4,59.71539641903648,
