CityName,StimuliFile,CityImage,StreetSign,Cue,Image,Category,Novelty,UpdateImage,TestImage1,TestImage2,TestImage3,TestImage4,TestImage1Type,TestImage2Type,TestImage3Type,TestImage4Type,CityBlock.thisRepN,CityBlock.thisTrialN,CityBlock.thisN,CityBlock.thisIndex,LearningTrials.thisRepN,LearningTrials.thisTrialN,LearningTrials.thisN,LearningTrials.thisIndex,trials.thisRepN,trials.thisTrialN,trials.thisN,trials.thisIndex,learning_instructions_text.started,intro_key.started,intro_key.keys,intro_key.rt,cityname_text.started,city_image.started,fx_cross.started,plate.started,city_text.started,street_text.started,learning_image.started,short_break_key.keys,fx_cross.stopped,short_break_text.started,short_break_key.started,short_break_key.rt,test_text.started,key_resp.started,key_resp.keys,key_resp.rt,plate_test.started,city_text_test.started,street_text_test.started,test_question.started,test_key_resp.started,button_image.started,test_key_resp.keys,verbal_test_key_resp.keys,test_key_resp.rt,plate_verbal.started,street_text_verbal.started,city_text_verbal.started,question_verbal.started,verbal_test_key_resp.started,verbal_test_key_resp.rt,n_remembered,break_text.started,break_key_resp.started,break_key_resp.keys,break_key_resp.rt,end_text.started,participant,date,expName,psychopyVersion,frameRate,
,,,,,,,,,,,,,,,,,,,,,,,,,,,,,710.1725062262267,710.1725062262267,space,37.50809119269252,,,,,,,,,,,,,,,,,,,,,,,,,,,,,,,,,,,,,,student1,2022-10-25_09h32.59.613,Hippopolis_Learning,2022.2.2,60.02819073884674,
Hippopolis,stimuli/subj_files/student1_cityA.csv,./stimuli/frankfurt.jpg,./stimuli/street_plate1.png,PÁFRÁNY UTCA,stimuli/scenes/101a.jpg,scene,0,stimuli/scenes/101a.jpg,stimuli/scenes/101a.jpg,stimuli/scenes/101b.jpg,stimuli/objects/051a.jpg,stimuli/objects/051b.jpg,target,lure,dist1,dist2,0,0,0,0,0,0,0,0,,,,,,,,,747.7671572901309,747.7671572901309,750.7444183677435,751.7641156464815,751.7641156464815,751.7641156464815,751.7641156464815,None,,,,,,,,,,,,,,,,,,,,,,,,,,,,,,student1,2022-10-25_09h32.59.613,Hippopolis_Learning,2022.2.2,60.02819073884674,
Hippopolis,stimuli/subj_files/student1_cityA.csv,./stimuli/frankfurt.jpg,./stimuli/street_plate1.png,ZSEMLE UTCA,stimuli/objects/115a.jpg,object,1,stimuli/objects/053a.jpg,stimuli/objects/007a.jpg,stimuli/objects/053a.jpg,stimuli/objects/007b.jpg,stimuli/objects/053b.jpg,dist1,target,dist2,lure,0,0,0,0,0,1,1,47,,,,,,,,,,,754.7124730348587,755.7544271759689,755.7544271759689,755.7544271759689,755.7544271759689,None,,,,,,,,,,,,,,,,,,,,,,,,,,,,,,student1,2022-10-25_09h32.59.613,Hippopolis_Learning,2022.2.2,60.02819073884674,
Hippopolis,stimuli/subj_files/student1_cityA.csv,./stimuli/frankfurt.jpg,./stimuli/street_plate1.png,CITROM UTCA,stimuli/scenes/036a.jpg,scene,2,stimuli/objects/043a.jpg,stimuli/objects/043b.jpg,stimuli/objects/067a.jpg,stimuli/objects/043a.jpg,stimuli/objects/067b.jpg,lure,dist1,target,dist2,0,0,0,0,0,2,2,26,,,,,,,,,,,758.7296045124531,759.7729314342141,759.7729314342141,759.7729314342141,759.7729314342141,None,,,,,,,,,,,,,,,,,,,,,,,,,,,,,,student1,2022-10-25_09h32.59.613,Hippopolis_Learning,2022.2.2,60.02819073884674,
Hippopolis,stimuli/subj_files/student1_cityA.csv,./stimuli/frankfurt.jpg,./stimuli/street_plate1.png,MOCSÁR UTCA,stimuli/objects/080a.jpg,object,0,stimuli/objects/080a.jpg,stimuli/objects/080b.jpg,stimuli/objects/080a.jpg,stimuli/scenes/043b.jpg,stimuli/scenes/043a.jpg,lure,target,dist2,dist1,0,0,0,0,0,3,3,17,,,,,,,,,,,762.7313287314028,763.7726129628718,763.7726129628718,763.7726129628718,763.7726129628718,None,,,,,,,,,,,,,,,,,,,,,,,,,,,,,,student1,2022-10-25_09h32.59.613,Hippopolis_Learning,2022.2.2,60.02819073884674,
Hippopolis,stimuli/subj_files/student1_cityA.csv,./stimuli/frankfurt.jpg,./stimuli/street_plate1.png,VÖDÖR UTCA,stimuli/scenes/055a.jpg,scene,1,stimuli/scenes/088a.jpg,stimuli/scenes/088b.jpg,stimuli/scenes/088a.jpg,stimuli/scenes/087b.jpg,stimuli/scenes/087a.jpg,lure,target,dist2,dist1,0,0,0,0,0,4,4,56,,,,,,,,,,,766.7355686817318,767.7691346686333,767.7691346686333,767.7691346686333,767.7691346686333,None,767.7691346686333,,,,,,,,,,,,,,,,,,,,,,,,,,,,,student1,2022-10-25_09h32.59.613,Hippopolis_Learning,2022.2.2,60.02819073884674,
Hippopolis,stimuli/subj_files/student1_cityA.csv,./stimuli/frankfurt.jpg,./stimuli/street_plate1.png,TELEP UTCA,stimuli/scenes/048a.jpg,scene,2,stimuli/objects/120a.jpg,stimuli/objects/120a.jpg,stimuli/objects/120b.jpg,stimuli/scenes/119b.jpg,stimuli/scenes/119a.jpg,target,lure,dist2,dist1,0,0,0,0,0,5,5,75,,,,,,,,,,,770.7399821728468,771.7577527668327,771.7577527668327,771.7577527668327,771.7577527668327,None,,,,,,,,,,,,,,,,,,,,,,,,,,,,,,student1,2022-10-25_09h32.59.613,Hippopolis_Learning,2022.2.2,60.02819073884674,
Hippopolis,stimuli/subj_files/student1_cityA.csv,./stimuli/frankfurt.jpg,./stimuli/street_plate1.png,RÁDIÓ UTCA,stimuli/scenes/068a.jpg,scene,1,stimuli/scenes/067a.jpg,stimuli/scenes/018b.jpg,stimuli/scenes/067a.jpg,stimuli/scenes/067b.jpg,stimuli/scenes/018a.jpg,dist2,target,lure,dist1,0,0,0,0,0,6,6,44,,,,,,,,,,,774.7416329942644,775.7723209280521,775.7723209280521,775.7723209280521,775.7723209280521,None,,,,,,,,,,,,,,,,,,,,,,,,,,,,,,student1,2022-10-25_09h32.59.613,Hippopolis_Learning,2022.2.2,60.02819073884674,
Hippopolis,stimuli/subj_files/student1_cityA.csv,./stimuli/frankfurt.jpg,./stimuli/street_plate1.png,KULLANCS UTCA,stimuli/objects/089a.jpg,object,0,stimuli/objects/089a.jpg,stimuli/scenes/072a.jpg,stimuli/objects/089a.jpg,stimuli/scenes/072b.jpg,stimuli/objects/089b.jpg,dist1,target,dist2,lure,0,0,0,0,0,7,7,34,,,,,,,,,,,778.7528945356607,779.8015521075577,779.8015521075577,779.8015521075577,779.8015521075577,None,,,,,,,,,,,,,,,,,,,,,,,,,,,,,,student1,2022-10-25_09h32.59.613,Hippopolis_Learning,2022.2.2,60.02819073884674,
Hippopolis,stimuli/subj_files/student1_cityA.csv,./stimuli/frankfurt.jpg,./stimuli/street_plate1.png,MOTOR UTCA,stimuli/objects/097a.jpg,object,1,stimuli/objects/071a.jpg,stimuli/objects/015b.jpg,stimuli/objects/071b.jpg,stimuli/objects/071a.jpg,stimuli/objects/015a.jpg,dist2,lure,target,dist1,0,0,0,0,0,8,8,36,,,,,,,,,,,782.760102732107,783.7794379983097,783.7794379983097,783.7794379983097,783.7794379983097,None,,,,,,,,,,,,,,,,,,,,,,,,,,,,,,student1,2022-10-25_09h32.59.613,Hippopolis_Learning,2022.2.2,60.02819073884674,
Hippopolis,stimuli/subj_files/student1_cityA.csv,./stimuli/frankfurt.jpg,./stimuli/street_plate1.png,FOGAS UTCA,stimuli/scenes/025a.jpg,scene,1,stimuli/scenes/018a.jpg,stimuli/scenes/018b.jpg,stimuli/scenes/064a.jpg,stimuli/scenes/018a.jpg,stimuli/scenes/064b.jpg,lure,dist1,target,dist2,0,0,0,0,0,9,9,38,,,,,,,,,,,786.7665047980845,787.797590509057,787.797590509057,787.797590509057,787.797590509057,None,,,,,,,,,,,,,,,,,,,,,,,,,,,,,,student1,2022-10-25_09h32.59.613,Hippopolis_Learning,2022.2.2,60.02819073884674,
Hippopolis,stimuli/subj_files/student1_cityA.csv,./stimuli/frankfurt.jpg,./stimuli/street_plate1.png,PAPAGÁJ UTCA,stimuli/objects/093a.jpg,object,2,stimuli/scenes/097a.jpg,stimuli/scenes/097a.jpg,stimuli/scenes/109b.jpg,stimuli/scenes/109a.jpg,stimuli/scenes/097b.jpg,target,dist2,dist1,lure,0,0,0,0,0,10,10,55,,,,,,,,,,,790.7782813664526,791.8123797960579,791.8123797960579,791.8123797960579,791.8123797960579,None,,,,,,,,,,,,,,,,,,,,,,,,,,,,,,student1,2022-10-25_09h32.59.613,Hippopolis_Learning,2022.2.2,60.02819073884674,
Hippopolis,stimuli/subj_files/student1_cityA.csv,./stimuli/frankfurt.jpg,./stimuli/street_plate1.png,LÉTRA UTCA,stimuli/objects/047a.jpg,object,1,stimuli/objects/015a.jpg,stimuli/objects/108b.jpg,stimuli/objects/015b.jpg,stimuli/objects/108a.jpg,stimuli/objects/015a.jpg,dist2,lure,dist1,target,0,0,0,0,0,11,11,33,,,,,,,,,,,794.7937760148197,795.840941067785,795.840941067785,795.840941067785,795.840941067785,None,,,,,,,,,,,,,,,,,,,,,,,,,,,,,,student1,2022-10-25_09h32.59.613,Hippopolis_Learning,2022.2.2,60.02819073884674,
Hippopolis,stimuli/subj_files/student1_cityA.csv,./stimuli/frankfurt.jpg,./stimuli/street_plate1.png,HEGESZTŐ UTCA,stimuli/scenes/043a.jpg,scene,0,stimuli/scenes/043a.jpg,stimuli/scenes/043b.jpg,stimuli/scenes/043a.jpg,stimuli/objects/062a.jpg,stimuli/objects/062b.jpg,lure,target,dist1,dist2,0,0,0,0,0,12,12,77,,,,,,,,,,,798.8116423990577,799.8565215542912,799.8565215542912,799.8565215542912,799.8565215542912,None,,,,,,,,,,,,,,,,,,,,,,,,,,,,,,student1,2022-10-25_09h32.59.613,Hippopolis_Learning,2022.2.2,60.02819073884674,
Hippopolis,stimuli/subj_files/student1_cityA.csv,./stimuli/frankfurt.jpg,./stimuli/street_plate1.png,KIRAKÓ UTCA,stimuli/objects/079a.jpg,object,2,stimuli/scenes/070a.jpg,stimuli/scenes/070a.jpg,stimuli/scenes/070b.jpg,stimuli/objects/043b.jpg,stimuli/objects/043a.jpg,target,lure,dist2,dist1,0,0,0,0,0,13,13,57,,,,,,,,,,,802.8191650230438,803.8680857066065,803.8680857066065,803.8680857066065,803.8680857066065,None,,,,,,,,,,,,,,,,,,,,,,,,,,,,,,student1,2022-10-25_09h32.59.613,Hippopolis_Learning,2022.2.2,60.02819073884674,
Hippopolis,stimuli/subj_files/student1_cityA.csv,./stimuli/frankfurt.jpg,./stimuli/street_plate1.png,TALICSKA UTCA,stimuli/objects/014a.jpg,object,1,stimuli/objects/108a.jpg,stimuli/objects/109a.jpg,stimuli/objects/109b.jpg,stimuli/objects/108a.jpg,stimuli/objects/108b.jpg,dist1,dist2,target,lure,0,0,0,0,0,14,14,13,,,,,,,,,,,806.8268801588565,807.861802443862,807.861802443862,807.861802443862,807.861802443862,None,,,,,,,,,,,,,,,,,,,,,,,,,,,,,,student1,2022-10-25_09h32.59.613,Hippopolis_Learning,2022.2.2,60.02819073884674,
Hippopolis,stimuli/subj_files/student1_cityA.csv,./stimuli/frankfurt.jpg,./stimuli/street_plate1.png,CSILLAG UTCA,stimuli/scenes/083a.jpg,scene,1,stimuli/scenes/117a.jpg,stimuli/scenes/117a.jpg,stimuli/scenes/117b.jpg,stimuli/objects/041a.jpg,stimuli/objects/041b.jpg,target,lure,dist1,dist2,0,0,0,0,0,15,15,15,,,,,,,,,,,810.8277145884931,811.8621050529182,811.8621050529182,811.8621050529182,811.8621050529182,None,,,,,,,,,,,,,,,,,,,,,,,,,,,,,,student1,2022-10-25_09h32.59.613,Hippopolis_Learning,2022.2.2,60.02819073884674,
Hippopolis,stimuli/subj_files/student1_cityA.csv,./stimuli/frankfurt.jpg,./stimuli/street_plate1.png,KERET UTCA,stimuli/scenes/027a.jpg,scene,0,stimuli/scenes/027a.jpg,stimuli/objects/100a.jpg,stimuli/objects/100b.jpg,stimuli/scenes/027a.jpg,stimuli/scenes/027b.jpg,dist1,dist2,target,lure,0,0,0,0,0,16,16,3,,,,,,,,,,,814.8333773929626,815.8586024995893,815.8586024995893,815.8586024995893,815.8586024995893,None,,,,,,,,,,,,,,,,,,,,,,,,,,,,,,student1,2022-10-25_09h32.59.613,Hippopolis_Learning,2022.2.2,60.02819073884674,
Hippopolis,stimuli/subj_files/student1_cityA.csv,./stimuli/frankfurt.jpg,./stimuli/street_plate1.png,TRIATLON UTCA,stimuli/objects/024a.jpg,object,0,stimuli/objects/024a.jpg,stimuli/objects/024b.jpg,stimuli/objects/080a.jpg,stimuli/objects/024a.jpg,stimuli/objects/080b.jpg,lure,dist1,target,dist2,0,0,0,0,0,17,17,2,,,,,,,,,,,818.8435149565339,819.8929083701223,819.8929083701223,819.8929083701223,819.8929083701223,None,,,,,,,,,,,,,,,,,,,,,,,,,,,,,,student1,2022-10-25_09h32.59.613,Hippopolis_Learning,2022.2.2,60.02819073884674,
Hippopolis,stimuli/subj_files/student1_cityA.csv,./stimuli/frankfurt.jpg,./stimuli/street_plate1.png,HARMONIKA UTCA,stimuli/scenes/024a.jpg,scene,0,stimuli/scenes/024a.jpg,stimuli/scenes/101b.jpg,stimuli/scenes/024b.jpg,stimuli/scenes/101a.jpg,stimuli/scenes/024a.jpg,dist2,lure,dist1,target,0,0,0,0,0,18,18,25,,,,,,,,,,,822.8445969484746,823.8891579434276,823.8891579434276,823.8891579434276,823.8891579434276,None,,,,,,,,,,,,,,,,,,,,,,,,,,,,,,student1,2022-10-25_09h32.59.613,Hippopolis_Learning,2022.2.2,60.02819073884674,
Hippopolis,stimuli/subj_files/student1_cityA.csv,./stimuli/frankfurt.jpg,./stimuli/street_plate1.png,LÁNDZSA UTCA,stimuli/scenes/090a.jpg,scene,0,stimuli/scenes/090a.jpg,stimuli/scenes/090a.jpg,stimuli/objects/091b.jpg,stimuli/scenes/090b.jpg,stimuli/objects/091a.jpg,target,dist2,lure,dist1,0,0,0,0,0,19,19,39,,,,,,,,,,,826.8471117466688,827.8900094795972,827.8900094795972,827.8900094795972,827.8900094795972,None,,,,,,,,,,,,,,,,,,,,,,,,,,,,,,student1,2022-10-25_09h32.59.613,Hippopolis_Learning,2022.2.2,60.02819073884674,
Hippopolis,stimuli/subj_files/student1_cityA.csv,./stimuli/frankfurt.jpg,./stimuli/street_plate1.png,MARTINI UTCA,stimuli/objects/060a.jpg,object,1,stimuli/objects/011a.jpg,stimuli/objects/075b.jpg,stimuli/objects/075a.jpg,stimuli/objects/011b.jpg,stimuli/objects/011a.jpg,dist2,dist1,lure,target,0,0,0,0,0,20,20,60,,,,,,,,,,,830.8491149377078,831.8921992760152,831.8921992760152,831.8921992760152,831.8921992760152,None,,,,,,,,,,,,,,,,,,,,,,,,,,,,,,student1,2022-10-25_09h32.59.613,Hippopolis_Learning,2022.2.2,60.02819073884674,
Hippopolis,stimuli/subj_files/student1_cityA.csv,./stimuli/frankfurt.jpg,./stimuli/street_plate1.png,TOBOZ UTCA,stimuli/objects/001a.jpg,object,2,stimuli/scenes/059a.jpg,stimuli/scenes/059a.jpg,stimuli/objects/085a.jpg,stimuli/objects/085b.jpg,stimuli/scenes/059b.jpg,target,dist1,dist2,lure,0,0,0,0,0,21,21,40,,,,,,,,,,,834.8642960935831,835.9107333905995,835.9107333905995,835.9107333905995,835.9107333905995,None,,,,,,,,,,,,,,,,,,,,,,,,,,,,,,student1,2022-10-25_09h32.59.613,Hippopolis_Learning,2022.2.2,60.02819073884674,
Hippopolis,stimuli/subj_files/student1_cityA.csv,./stimuli/frankfurt.jpg,./stimuli/street_plate1.png,KÖTÉL UTCA,stimuli/objects/051a.jpg,object,0,stimuli/objects/051a.jpg,stimuli/scenes/024b.jpg,stimuli/objects/051b.jpg,stimuli/scenes/024a.jpg,stimuli/objects/051a.jpg,dist2,lure,dist1,target,0,0,0,0,0,22,22,7,,,,,,,,,,,838.8714663460851,839.9183262996376,839.9183262996376,839.9183262996376,839.9183262996376,None,,,,,,,,,,,,,,,,,,,,,,,,,,,,,,student1,2022-10-25_09h32.59.613,Hippopolis_Learning,2022.2.2,60.02819073884674,
Hippopolis,stimuli/subj_files/student1_cityA.csv,./stimuli/frankfurt.jpg,./stimuli/street_plate1.png,PULÓVER UTCA,stimuli/objects/114a.jpg,object,0,stimuli/objects/114a.jpg,stimuli/scenes/050b.jpg,stimuli/scenes/050a.jpg,stimuli/objects/114b.jpg,stimuli/objects/114a.jpg,dist2,dist1,lure,target,0,0,0,0,0,23,23,43,,,,,,,,,,,842.8825335074216,843.9253621976823,843.9253621976823,843.9253621976823,843.9253621976823,None,,,,,,,,,,,,,,,,,,,,,,,,,,,,,,student1,2022-10-25_09h32.59.613,Hippopolis_Learning,2022.2.2,60.02819073884674,
Hippopolis,stimuli/subj_files/student1_cityA.csv,./stimuli/frankfurt.jpg,./stimuli/street_plate1.png,KORONA UTCA,stimuli/scenes/108a.jpg,scene,1,stimuli/scenes/011a.jpg,stimuli/objects/076a.jpg,stimuli/scenes/011b.jpg,stimuli/objects/076b.jpg,stimuli/scenes/011a.jpg,dist1,lure,dist2,target,0,0,0,0,0,24,24,9,,,,,,,,,,,846.8842418659478,847.9236690793186,847.9236690793186,847.9236690793186,847.9236690793186,None,,,,,,,,,,,,,,,,,,,,,,,,,,,,,,student1,2022-10-25_09h32.59.613,Hippopolis_Learning,2022.2.2,60.02819073884674,
Hippopolis,stimuli/subj_files/student1_cityA.csv,./stimuli/frankfurt.jpg,./stimuli/street_plate1.png,SZOMSZÉD UTCA,stimuli/objects/026a.jpg,object,1,stimuli/objects/004a.jpg,stimuli/objects/027b.jpg,stimuli/objects/004b.jpg,stimuli/objects/004a.jpg,stimuli/objects/027a.jpg,dist2,lure,target,dist1,0,0,0,0,0,25,25,65,,,,,,,,,,,850.8994786906987,851.9351116269827,851.9351116269827,851.9351116269827,851.9351116269827,None,,,,,,,,,,,,,,,,,,,,,,,,,,,,,,student1,2022-10-25_09h32.59.613,Hippopolis_Learning,2022.2.2,60.02819073884674,
Hippopolis,stimuli/subj_files/student1_cityA.csv,./stimuli/frankfurt.jpg,./stimuli/street_plate1.png,HAJÓ UTCA,stimuli/objects/086a.jpg,object,1,stimuli/objects/041a.jpg,stimuli/scenes/014a.jpg,stimuli/scenes/014b.jpg,stimuli/objects/041a.jpg,stimuli/objects/041b.jpg,dist1,dist2,target,lure,0,0,0,0,0,26,26,71,,,,,,,,,,,854.9111890140921,855.9377828594297,855.9377828594297,855.9377828594297,855.9377828594297,None,,,,,,,,,,,,,,,,,,,,,,,,,,,,,,student1,2022-10-25_09h32.59.613,Hippopolis_Learning,2022.2.2,60.02819073884674,
Hippopolis,stimuli/subj_files/student1_cityA.csv,./stimuli/frankfurt.jpg,./stimuli/street_plate1.png,OLDAL UTCA,stimuli/scenes/093a.jpg,scene,2,stimuli/objects/107a.jpg,stimuli/objects/107b.jpg,stimuli/objects/022a.jpg,stimuli/objects/107a.jpg,stimuli/objects/022b.jpg,lure,dist1,target,dist2,0,0,0,0,0,27,27,11,,,,,,,,,,,858.9168592840433,859.9627775102854,859.9627775102854,859.9627775102854,859.9627775102854,None,,,,,,,,,,,,,,,,,,,,,,,,,,,,,,student1,2022-10-25_09h32.59.613,Hippopolis_Learning,2022.2.2,60.02819073884674,
Hippopolis,stimuli/subj_files/student1_cityA.csv,./stimuli/frankfurt.jpg,./stimuli/street_plate1.png,BÖGRE UTCA,stimuli/objects/050a.jpg,object,1,stimuli/objects/076a.jpg,stimuli/scenes/037a.jpg,stimuli/objects/076a.jpg,stimuli/objects/076b.jpg,stimuli/scenes/037b.jpg,dist1,target,lure,dist2,0,0,0,0,0,28,28,41,,,,,,,,,,,862.9303594492376,863.9672908354551,863.9672908354551,863.9672908354551,863.9672908354551,None,,,,,,,,,,,,,,,,,,,,,,,,,,,,,,student1,2022-10-25_09h32.59.613,Hippopolis_Learning,2022.2.2,60.02819073884674,
Hippopolis,stimuli/subj_files/student1_cityA.csv,./stimuli/frankfurt.jpg,./stimuli/street_plate1.png,KAKAS UTCA,stimuli/objects/002a.jpg,object,2,stimuli/scenes/074a.jpg,stimuli/scenes/074b.jpg,stimuli/scenes/074a.jpg,stimuli/scenes/070a.jpg,stimuli/scenes/070b.jpg,lure,target,dist1,dist2,0,0,0,0,0,29,29,24,,,,,,,,,,,866.9384347293526,868.0004733521491,868.0004733521491,868.0004733521491,868.0004733521491,None,,,,,,,,,,,,,,,,,,,,,,,,,,,,,,student1,2022-10-25_09h32.59.613,Hippopolis_Learning,2022.2.2,60.02819073884674,
Hippopolis,stimuli/subj_files/student1_cityA.csv,./stimuli/frankfurt.jpg,./stimuli/street_plate1.png,KORONG UTCA,stimuli/scenes/065a.jpg,scene,1,stimuli/scenes/004a.jpg,stimuli/scenes/004a.jpg,stimuli/scenes/011b.jpg,stimuli/scenes/011a.jpg,stimuli/scenes/004b.jpg,target,dist2,dist1,lure,0,0,0,0,0,30,30,53,,,,,,,,,,,870.9404363669455,871.984991453588,871.984991453588,871.984991453588,871.984991453588,None,,,,,,,,,,,,,,,,,,,,,,,,,,,,,,student1,2022-10-25_09h32.59.613,Hippopolis_Learning,2022.2.2,60.02819073884674,
Hippopolis,stimuli/subj_files/student1_cityA.csv,./stimuli/frankfurt.jpg,./stimuli/street_plate1.png,TOLLTARTÓ UTCA,stimuli/objects/032a.jpg,object,2,stimuli/scenes/119a.jpg,stimuli/scenes/119a.jpg,stimuli/scenes/104b.jpg,stimuli/scenes/104a.jpg,stimuli/scenes/119b.jpg,target,dist2,dist1,lure,0,0,0,0,0,31,31,67,,,,,,,,,,,874.9403324909508,875.9848340842873,875.9848340842873,875.9848340842873,875.9848340842873,None,,,,,,,,,,,,,,,,,,,,,,,,,,,,,,student1,2022-10-25_09h32.59.613,Hippopolis_Learning,2022.2.2,60.02819073884674,
Hippopolis,stimuli/subj_files/student1_cityA.csv,./stimuli/frankfurt.jpg,./stimuli/street_plate1.png,HERNYÓ UTCA,stimuli/scenes/066a.jpg,scene,1,stimuli/scenes/037a.jpg,stimuli/scenes/037a.jpg,stimuli/objects/045b.jpg,stimuli/scenes/037b.jpg,stimuli/objects/045a.jpg,target,dist2,lure,dist1,0,0,0,0,0,32,32,5,,,,,,,,,,,878.9563440326601,879.992955705151,879.992955705151,879.992955705151,879.992955705151,None,,,,,,,,,,,,,,,,,,,,,,,,,,,,,,student1,2022-10-25_09h32.59.613,Hippopolis_Learning,2022.2.2,60.02819073884674,
Hippopolis,stimuli/subj_files/student1_cityA.csv,./stimuli/frankfurt.jpg,./stimuli/street_plate1.png,ÁRNYÉK UTCA,stimuli/objects/020a.jpg,object,1,stimuli/objects/027a.jpg,stimuli/scenes/004a.jpg,stimuli/objects/027b.jpg,stimuli/objects/027a.jpg,stimuli/scenes/004b.jpg,dist1,lure,target,dist2,0,0,0,0,0,33,33,52,,,,,,,,,,,882.9659392014146,884.0006789267063,884.0006789267063,884.0006789267063,884.0006789267063,None,,,,,,,,,,,,,,,,,,,,,,,,,,,,,,student1,2022-10-25_09h32.59.613,Hippopolis_Learning,2022.2.2,60.02819073884674,
Hippopolis,stimuli/subj_files/student1_cityA.csv,./stimuli/frankfurt.jpg,./stimuli/street_plate1.png,AKÁC UTCA,stimuli/scenes/081a.jpg,scene,2,stimuli/objects/055a.jpg,stimuli/objects/055b.jpg,stimuli/objects/107b.jpg,stimuli/objects/107a.jpg,stimuli/objects/055a.jpg,lure,dist2,dist1,target,0,0,0,0,0,34,34,74,,,,,,,,,,,886.9808351639658,888.0214824546129,888.0214824546129,888.0214824546129,888.0214824546129,None,,,,,,,,,,,,,,,,,,,,,,,,,,,,,,student1,2022-10-25_09h32.59.613,Hippopolis_Learning,2022.2.2,60.02819073884674,
Hippopolis,stimuli/subj_files/student1_cityA.csv,./stimuli/frankfurt.jpg,./stimuli/street_plate1.png,MOGYORÓ UTCA,stimuli/objects/106a.jpg,object,1,stimuli/objects/103a.jpg,stimuli/scenes/116a.jpg,stimuli/objects/103b.jpg,stimuli/objects/103a.jpg,stimuli/scenes/116b.jpg,dist1,lure,target,dist2,0,0,0,0,0,35,35,54,,,,,,,,,,,890.9818086139858,892.0283609833568,892.0283609833568,892.0283609833568,892.0283609833568,None,,,,,,,,,,,,,,,,,,,,,,,,,,,,,,student1,2022-10-25_09h32.59.613,Hippopolis_Learning,2022.2.2,60.02819073884674,
Hippopolis,stimuli/subj_files/student1_cityA.csv,./stimuli/frankfurt.jpg,./stimuli/street_plate1.png,HEGEDŰ UTCA,stimuli/scenes/113a.jpg,scene,2,stimuli/objects/036a.jpg,stimuli/objects/036b.jpg,stimuli/scenes/059b.jpg,stimuli/scenes/059a.jpg,stimuli/objects/036a.jpg,lure,dist2,dist1,target,0,0,0,0,0,36,36,69,,,,,,,,,,,894.9926353693008,896.0110509898514,896.0110509898514,896.0110509898514,896.0110509898514,None,,,,,,,,,,,,,,,,,,,,,,,,,,,,,,student1,2022-10-25_09h32.59.613,Hippopolis_Learning,2022.2.2,60.02819073884674,
Hippopolis,stimuli/subj_files/student1_cityA.csv,./stimuli/frankfurt.jpg,./stimuli/street_plate1.png,VASALÓ UTCA,stimuli/objects/025a.jpg,object,2,stimuli/scenes/056a.jpg,stimuli/scenes/044a.jpg,stimuli/scenes/056b.jpg,stimuli/scenes/056a.jpg,stimuli/scenes/044b.jpg,dist1,lure,target,dist2,0,0,0,0,0,37,37,70,,,,,,,,,,,899.0095970351249,900.0354012362659,900.0354012362659,900.0354012362659,900.0354012362659,None,,,,,,,,,,,,,,,,,,,,,,,,,,,,,,student1,2022-10-25_09h32.59.613,Hippopolis_Learning,2022.2.2,60.02819073884674,
Hippopolis,stimuli/subj_files/student1_cityA.csv,./stimuli/frankfurt.jpg,./stimuli/street_plate1.png,SZIKLA UTCA,stimuli/scenes/111a.jpg,scene,2,stimuli/objects/073a.jpg,stimuli/objects/120b.jpg,stimuli/objects/120a.jpg,stimuli/objects/073a.jpg,stimuli/objects/073b.jpg,dist2,dist1,target,lure,0,0,0,0,0,38,38,1,,,,,,,,,,,903.0099453628063,904.0559344999492,904.0559344999492,904.0559344999492,904.0559344999492,None,,,,,,,,,,,,,,,,,,,,,,,,,,,,,,student1,2022-10-25_09h32.59.613,Hippopolis_Learning,2022.2.2,60.02819073884674,
Hippopolis,stimuli/subj_files/student1_cityA.csv,./stimuli/frankfurt.jpg,./stimuli/street_plate1.png,KÖMÉNYMAG UTCA,stimuli/objects/068a.jpg,object,1,stimuli/objects/045a.jpg,stimuli/objects/045a.jpg,stimuli/objects/045b.jpg,stimuli/objects/071a.jpg,stimuli/objects/071b.jpg,target,lure,dist1,dist2,0,0,0,0,0,39,39,18,,,,,,,,,,,907.0158044118434,908.0607930421829,908.0607930421829,908.0607930421829,908.0607930421829,None,,,,,,,,,,,,,,,,,,,,,,,,,,,,,,student1,2022-10-25_09h32.59.613,Hippopolis_Learning,2022.2.2,60.02819073884674,
Hippopolis,stimuli/subj_files/student1_cityA.csv,./stimuli/frankfurt.jpg,./stimuli/street_plate1.png,CUKOR UTCA,stimuli/objects/111a.jpg,object,0,stimuli/objects/111a.jpg,stimuli/objects/089b.jpg,stimuli/objects/111b.jpg,stimuli/objects/111a.jpg,stimuli/objects/089a.jpg,dist2,lure,target,dist1,0,0,0,0,0,40,40,30,,,,,,,,,,,911.0174567885697,912.0570388827473,912.0570388827473,912.0570388827473,912.0570388827473,None,912.0570388827473,,,,,,,,,,,,,,,,,,,,,,,,,,,,,student1,2022-10-25_09h32.59.613,Hippopolis_Learning,2022.2.2,60.02819073884674,
Hippopolis,stimuli/subj_files/student1_cityA.csv,./stimuli/frankfurt.jpg,./stimuli/street_plate1.png,BAGOLY UTCA,stimuli/scenes/029a.jpg,scene,2,stimuli/objects/028a.jpg,stimuli/objects/028b.jpg,stimuli/objects/028a.jpg,stimuli/scenes/028a.jpg,stimuli/scenes/028b.jpg,lure,target,dist1,dist2,0,0,0,0,0,41,41,21,,,,,,,,,,,915.033977760002,916.0709900073707,916.0709900073707,916.0709900073707,916.0709900073707,None,,,,,,,,,,,,,,,,,,,,,,,,,,,,,,student1,2022-10-25_09h32.59.613,Hippopolis_Learning,2022.2.2,60.02819073884674,
Hippopolis,stimuli/subj_files/student1_cityA.csv,./stimuli/frankfurt.jpg,./stimuli/street_plate1.png,OROSZLÁN UTCA,stimuli/scenes/072a.jpg,scene,0,stimuli/scenes/072a.jpg,stimuli/scenes/072a.jpg,stimuli/scenes/072b.jpg,stimuli/scenes/027b.jpg,stimuli/scenes/027a.jpg,target,lure,dist2,dist1,0,0,0,0,0,42,42,66,,,,,,,,,,,919.0446748249233,920.0627974774688,920.0627974774688,920.0627974774688,920.0627974774688,None,,,,,,,,,,,,,,,,,,,,,,,,,,,,,,student1,2022-10-25_09h32.59.613,Hippopolis_Learning,2022.2.2,60.02819073884674,
Hippopolis,stimuli/subj_files/student1_cityA.csv,./stimuli/frankfurt.jpg,./stimuli/street_plate1.png,MUNKA UTCA,stimuli/scenes/039a.jpg,scene,2,stimuli/objects/067a.jpg,stimuli/scenes/097a.jpg,stimuli/objects/067b.jpg,stimuli/objects/067a.jpg,stimuli/scenes/097b.jpg,dist1,lure,target,dist2,0,0,0,0,0,43,43,4,,,,,,,,,,,923.0480759907514,924.0700740944594,924.0700740944594,924.0700740944594,924.0700740944594,None,,,,,,,,,,,,,,,,,,,,,,,,,,,,,,student1,2022-10-25_09h32.59.613,Hippopolis_Learning,2022.2.2,60.02819073884674,
Hippopolis,stimuli/subj_files/student1_cityA.csv,./stimuli/frankfurt.jpg,./stimuli/street_plate1.png,HORDÓ UTCA,stimuli/scenes/095a.jpg,scene,0,stimuli/scenes/095a.jpg,stimuli/scenes/095a.jpg,stimuli/scenes/046a.jpg,stimuli/scenes/095b.jpg,stimuli/scenes/046b.jpg,target,dist1,lure,dist2,0,0,0,0,0,44,44,27,,,,,,,,,,,927.0552241615951,928.1161814145744,928.1161814145744,928.1161814145744,928.1161814145744,space,,931.0567328520119,931.0567328520119,3.612933313474059,,,,,,,,,,,,,,,,,,,,,,,,,,student1,2022-10-25_09h32.59.613,Hippopolis_Learning,2022.2.2,60.02819073884674,
Hippopolis,stimuli/subj_files/student1_cityA.csv,./stimuli/frankfurt.jpg,./stimuli/street_plate1.png,TOJÁS UTCA,stimuli/objects/021a.jpg,object,2,stimuli/scenes/034a.jpg,stimuli/scenes/034a.jpg,stimuli/objects/059a.jpg,stimuli/objects/059b.jpg,stimuli/scenes/034b.jpg,target,dist1,dist2,lure,0,0,0,0,0,45,45,37,,,,,,,,,,,934.6879570242018,935.7100412771106,935.7100412771106,935.7100412771106,935.7100412771106,None,,,,,,,,,,,,,,,,,,,,,,,,,,,,,,student1,2022-10-25_09h32.59.613,Hippopolis_Learning,2022.2.2,60.02819073884674,
Hippopolis,stimuli/subj_files/student1_cityA.csv,./stimuli/frankfurt.jpg,./stimuli/street_plate1.png,KÖTÉNY UTCA,stimuli/scenes/031a.jpg,scene,1,stimuli/scenes/064a.jpg,stimuli/objects/103a.jpg,stimuli/objects/103b.jpg,stimuli/scenes/064b.jpg,stimuli/scenes/064a.jpg,dist1,dist2,lure,target,0,0,0,0,0,46,46,22,,,,,,,,,,,938.6898295935243,939.7193456552923,939.7193456552923,939.7193456552923,939.7193456552923,None,,,,,,,,,,,,,,,,,,,,,,,,,,,,,,student1,2022-10-25_09h32.59.613,Hippopolis_Learning,2022.2.2,60.02819073884674,
Hippopolis,stimuli/subj_files/student1_cityA.csv,./stimuli/frankfurt.jpg,./stimuli/street_plate1.png,LIGET UTCA,stimuli/objects/038a.jpg,object,2,stimuli/scenes/109a.jpg,stimuli/scenes/109a.jpg,stimuli/objects/055a.jpg,stimuli/scenes/109b.jpg,stimuli/objects/055b.jpg,target,dist1,lure,dist2,0,0,0,0,0,47,47,62,,,,,,,,,,,942.7044863924384,943.7325621824712,943.7325621824712,943.7325621824712,943.7325621824712,None,,,,,,,,,,,,,,,,,,,,,,,,,,,,,,student1,2022-10-25_09h32.59.613,Hippopolis_Learning,2022.2.2,60.02819073884674,
Hippopolis,stimuli/subj_files/student1_cityA.csv,./stimuli/frankfurt.jpg,./stimuli/street_plate1.png,KÖNYVTÁR UTCA,stimuli/objects/113a.jpg,object,1,stimuli/objects/109a.jpg,stimuli/objects/109a.jpg,stimuli/objects/109b.jpg,stimuli/scenes/067a.jpg,stimuli/scenes/067b.jpg,target,lure,dist1,dist2,0,0,0,0,0,48,48,42,,,,,,,,,,,946.7097262274474,947.7417430914938,947.7417430914938,947.7417430914938,947.7417430914938,None,,,,,,,,,,,,,,,,,,,,,,,,,,,,,,student1,2022-10-25_09h32.59.613,Hippopolis_Learning,2022.2.2,60.02819073884674,
Hippopolis,stimuli/subj_files/student1_cityA.csv,./stimuli/frankfurt.jpg,./stimuli/street_plate1.png,KOKTÉL UTCA,stimuli/scenes/008a.jpg,scene,2,stimuli/objects/012a.jpg,stimuli/objects/036b.jpg,stimuli/objects/012b.jpg,stimuli/objects/036a.jpg,stimuli/objects/012a.jpg,dist2,lure,dist1,target,0,0,0,0,0,49,49,46,,,,,,,,,,,950.7132959589362,951.7565709426999,951.7565709426999,951.7565709426999,951.7565709426999,None,,,,,,,,,,,,,,,,,,,,,,,,,,,,,,student1,2022-10-25_09h32.59.613,Hippopolis_Learning,2022.2.2,60.02819073884674,
Hippopolis,stimuli/subj_files/student1_cityA.csv,./stimuli/frankfurt.jpg,./stimuli/street_plate1.png,EGÉR UTCA,stimuli/scenes/071a.jpg,scene,1,stimuli/scenes/116a.jpg,stimuli/scenes/116b.jpg,stimuli/scenes/116a.jpg,stimuli/scenes/009b.jpg,stimuli/scenes/009a.jpg,lure,target,dist2,dist1,0,0,0,0,0,50,50,29,,,,,,,,,,,954.7246806584299,955.745245333761,955.745245333761,955.745245333761,955.745245333761,None,,,,,,,,,,,,,,,,,,,,,,,,,,,,,,student1,2022-10-25_09h32.59.613,Hippopolis_Learning,2022.2.2,60.02819073884674,
Hippopolis,stimuli/subj_files/student1_cityA.csv,./stimuli/frankfurt.jpg,./stimuli/street_plate1.png,PAPUCS UTCA,stimuli/scenes/051a.jpg,scene,0,stimuli/scenes/051a.jpg,stimuli/scenes/051b.jpg,stimuli/scenes/051a.jpg,stimuli/scenes/090a.jpg,stimuli/scenes/090b.jpg,lure,target,dist1,dist2,0,0,0,0,0,51,51,68,,,,,,,,,,,958.7289383355528,959.7553723249584,959.7553723249584,959.7553723249584,959.7553723249584,None,,,,,,,,,,,,,,,,,,,,,,,,,,,,,,student1,2022-10-25_09h32.59.613,Hippopolis_Learning,2022.2.2,60.02819073884674,
Hippopolis,stimuli/subj_files/student1_cityA.csv,./stimuli/frankfurt.jpg,./stimuli/street_plate1.png,MUSTÁR UTCA,stimuli/scenes/050a.jpg,scene,0,stimuli/scenes/050a.jpg,stimuli/objects/009a.jpg,stimuli/objects/009b.jpg,stimuli/scenes/050a.jpg,stimuli/scenes/050b.jpg,dist1,dist2,target,lure,0,0,0,0,0,52,52,78,,,,,,,,,,,962.7380872108042,963.759393947199,963.759393947199,963.759393947199,963.759393947199,None,963.759393947199,,,,,,,,,,,,,,,,,,,,,,,,,,,,,student1,2022-10-25_09h32.59.613,Hippopolis_Learning,2022.2.2,60.02819073884674,
Hippopolis,stimuli/subj_files/student1_cityA.csv,./stimuli/frankfurt.jpg,./stimuli/street_plate1.png,PETÁRDA UTCA,stimuli/objects/009a.jpg,object,0,stimuli/objects/009a.jpg,stimuli/objects/009a.jpg,stimuli/scenes/051a.jpg,stimuli/objects/009b.jpg,stimuli/scenes/051b.jpg,target,dist1,lure,dist2,0,0,0,0,0,53,53,64,,,,,,,,,,,966.7542125806212,967.7772323414683,967.7772323414683,967.7772323414683,967.7772323414683,None,,,,,,,,,,,,,,,,,,,,,,,,,,,,,,student1,2022-10-25_09h32.59.613,Hippopolis_Learning,2022.2.2,60.02819073884674,
Hippopolis,stimuli/subj_files/student1_cityA.csv,./stimuli/frankfurt.jpg,./stimuli/street_plate1.png,FÉNYKÉP UTCA,stimuli/scenes/010a.jpg,scene,1,stimuli/scenes/078a.jpg,stimuli/scenes/088a.jpg,stimuli/scenes/078a.jpg,stimuli/scenes/088b.jpg,stimuli/scenes/078b.jpg,dist1,target,dist2,lure,0,0,0,0,0,54,54,32,,,,,,,,,,,970.7563417311758,971.8035173583776,971.8035173583776,971.8035173583776,971.8035173583776,None,,,,,,,,,,,,,,,,,,,,,,,,,,,,,,student1,2022-10-25_09h32.59.613,Hippopolis_Learning,2022.2.2,60.02819073884674,
Hippopolis,stimuli/subj_files/student1_cityA.csv,./stimuli/frankfurt.jpg,./stimuli/street_plate1.png,BONBON UTCA,stimuli/objects/095a.jpg,object,2,stimuli/scenes/007a.jpg,stimuli/objects/028b.jpg,stimuli/objects/028a.jpg,stimuli/scenes/007a.jpg,stimuli/scenes/007b.jpg,dist2,dist1,target,lure,0,0,0,0,0,55,55,72,,,,,,,,,,,974.7627058550715,975.806684024632,975.806684024632,975.806684024632,975.806684024632,None,,,,,,,,,,,,,,,,,,,,,,,,,,,,,,student1,2022-10-25_09h32.59.613,Hippopolis_Learning,2022.2.2,60.02819073884674,
Hippopolis,stimuli/subj_files/student1_cityA.csv,./stimuli/frankfurt.jpg,./stimuli/street_plate1.png,DOMINÓ UTCA,stimuli/scenes/042a.jpg,scene,0,stimuli/scenes/042a.jpg,stimuli/scenes/042a.jpg,stimuli/scenes/042b.jpg,stimuli/objects/070a.jpg,stimuli/objects/070b.jpg,target,lure,dist1,dist2,0,0,0,0,0,56,56,63,,,,,,,,,,,978.7773066721857,979.8156428746879,979.8156428746879,979.8156428746879,979.8156428746879,None,,,,,,,,,,,,,,,,,,,,,,,,,,,,,,student1,2022-10-25_09h32.59.613,Hippopolis_Learning,2022.2.2,60.02819073884674,
Hippopolis,stimuli/subj_files/student1_cityA.csv,./stimuli/frankfurt.jpg,./stimuli/street_plate1.png,BOLYGÓ UTCA,stimuli/scenes/118a.jpg,scene,1,stimuli/scenes/087a.jpg,stimuli/objects/011a.jpg,stimuli/scenes/087b.jpg,stimuli/objects/011b.jpg,stimuli/scenes/087a.jpg,dist1,lure,dist2,target,0,0,0,0,0,57,57,31,,,,,,,,,,,982.7828995008022,983.8168436698616,983.8168436698616,983.8168436698616,983.8168436698616,None,,,,,,,,,,,,,,,,,,,,,,,,,,,,,,student1,2022-10-25_09h32.59.613,Hippopolis_Learning,2022.2.2,60.02819073884674,
Hippopolis,stimuli/subj_files/student1_cityA.csv,./stimuli/frankfurt.jpg,./stimuli/street_plate1.png,PÁLMAFA UTCA,stimuli/objects/090a.jpg,object,1,stimuli/objects/007a.jpg,stimuli/objects/053a.jpg,stimuli/objects/007a.jpg,stimuli/objects/053b.jpg,stimuli/objects/007b.jpg,dist1,target,dist2,lure,0,0,0,0,0,58,58,12,,,,,,,,,,,986.7919482309371,987.8393104616553,987.8393104616553,987.8393104616553,987.8393104616553,None,,,,,,,,,,,,,,,,,,,,,,,,,,,,,,student1,2022-10-25_09h32.59.613,Hippopolis_Learning,2022.2.2,60.02819073884674,
Hippopolis,stimuli/subj_files/student1_cityA.csv,./stimuli/frankfurt.jpg,./stimuli/street_plate1.png,HÁRFA UTCA,stimuli/objects/083a.jpg,object,2,stimuli/scenes/028a.jpg,stimuli/scenes/028b.jpg,stimuli/objects/012b.jpg,stimuli/objects/012a.jpg,stimuli/scenes/028a.jpg,lure,dist2,dist1,target,0,0,0,0,0,59,59,16,,,,,,,,,,,990.8065048847347,991.8412197288126,991.8412197288126,991.8412197288126,991.8412197288126,None,,,,,,,,,,,,,,,,,,,,,,,,,,,,,,student1,2022-10-25_09h32.59.613,Hippopolis_Learning,2022.2.2,60.02819073884674,
Hippopolis,stimuli/subj_files/student1_cityA.csv,./stimuli/frankfurt.jpg,./stimuli/street_plate1.png,TERASZ UTCA,stimuli/objects/063a.jpg,object,2,stimuli/scenes/104a.jpg,stimuli/scenes/104a.jpg,stimuli/scenes/056a.jpg,stimuli/scenes/104b.jpg,stimuli/scenes/056b.jpg,target,dist1,lure,dist2,0,0,0,0,0,60,60,48,,,,,,,,,,,994.8204983063042,995.8429287094623,995.8429287094623,995.8429287094623,995.8429287094623,None,,,,,,,,,,,,,,,,,,,,,,,,,,,,,,student1,2022-10-25_09h32.59.613,Hippopolis_Learning,2022.2.2,60.02819073884674,
Hippopolis,stimuli/subj_files/student1_cityA.csv,./stimuli/frankfurt.jpg,./stimuli/street_plate1.png,KARTON UTCA,stimuli/objects/101a.jpg,object,2,stimuli/scenes/044a.jpg,stimuli/scenes/074a.jpg,stimuli/scenes/044b.jpg,stimuli/scenes/044a.jpg,stimuli/scenes/074b.jpg,dist1,lure,target,dist2,0,0,0,0,0,61,61,8,,,,,,,,,,,998.829463377595,999.8732381481677,999.8732381481677,999.8732381481677,999.8732381481677,None,,,,,,,,,,,,,,,,,,,,,,,,,,,,,,student1,2022-10-25_09h32.59.613,Hippopolis_Learning,2022.2.2,60.02819073884674,
Hippopolis,stimuli/subj_files/student1_cityA.csv,./stimuli/frankfurt.jpg,./stimuli/street_plate1.png,PADLÓ UTCA,stimuli/objects/100a.jpg,object,0,stimuli/objects/100a.jpg,stimuli/scenes/058a.jpg,stimuli/scenes/058b.jpg,stimuli/objects/100a.jpg,stimuli/objects/100b.jpg,dist1,dist2,target,lure,0,0,0,0,0,62,62,59,,,,,,,,,,,1002.83706872724,1003.8639723360538,1003.8639723360538,1003.8639723360538,1003.8639723360538,None,,,,,,,,,,,,,,,,,,,,,,,,,,,,,,student1,2022-10-25_09h32.59.613,Hippopolis_Learning,2022.2.2,60.02819073884674,
Hippopolis,stimuli/subj_files/student1_cityA.csv,./stimuli/frankfurt.jpg,./stimuli/street_plate1.png,MÁLNA UTCA,stimuli/objects/069a.jpg,object,2,stimuli/scenes/053a.jpg,stimuli/objects/073a.jpg,stimuli/objects/073b.jpg,stimuli/scenes/053b.jpg,stimuli/scenes/053a.jpg,dist1,dist2,lure,target,0,0,0,0,0,63,63,14,,,,,,,,,,,1006.8395978305489,1007.8889707177877,1007.8889707177877,1007.8889707177877,1007.8889707177877,None,,,,,,,,,,,,,,,,,,,,,,,,,,,,,,student1,2022-10-25_09h32.59.613,Hippopolis_Learning,2022.2.2,60.02819073884674,
Hippopolis,stimuli/subj_files/student1_cityA.csv,./stimuli/frankfurt.jpg,./stimuli/street_plate1.png,FÓKA UTCA,stimuli/scenes/058a.jpg,scene,0,stimuli/scenes/058a.jpg,stimuli/scenes/058a.jpg,stimuli/scenes/058b.jpg,stimuli/objects/111b.jpg,stimuli/objects/111a.jpg,target,lure,dist2,dist1,0,0,0,0,0,64,64,51,,,,,,,,,,,1010.8541482649744,1011.8715602699667,1011.8715602699667,1011.8715602699667,1011.8715602699667,None,,,,,,,,,,,,,,,,,,,,,,,,,,,,,,student1,2022-10-25_09h32.59.613,Hippopolis_Learning,2022.2.2,60.02819073884674,
Hippopolis,stimuli/subj_files/student1_cityA.csv,./stimuli/frankfurt.jpg,./stimuli/street_plate1.png,KECSKE UTCA,stimuli/scenes/085a.jpg,scene,2,stimuli/objects/022a.jpg,stimuli/objects/022b.jpg,stimuli/objects/022a.jpg,stimuli/scenes/053a.jpg,stimuli/scenes/053b.jpg,lure,target,dist1,dist2,0,0,0,0,0,65,65,6,,,,,,,,,,,1014.8584252260625,1015.894579095766,1015.894579095766,1015.894579095766,1015.894579095766,None,,,,,,,,,,,,,,,,,,,,,,,,,,,,,,student1,2022-10-25_09h32.59.613,Hippopolis_Learning,2022.2.2,60.02819073884674,
Hippopolis,stimuli/subj_files/student1_cityA.csv,./stimuli/frankfurt.jpg,./stimuli/street_plate1.png,LAKAT UTCA,stimuli/objects/066a.jpg,object,2,stimuli/scenes/084a.jpg,stimuli/scenes/084b.jpg,stimuli/scenes/034a.jpg,stimuli/scenes/084a.jpg,stimuli/scenes/034b.jpg,lure,dist1,target,dist2,0,0,0,0,0,66,66,58,,,,,,,,,,,1018.8674170412123,1019.9065848756582,1019.9065848756582,1019.9065848756582,1019.9065848756582,None,,,,,,,,,,,,,,,,,,,,,,,,,,,,,,student1,2022-10-25_09h32.59.613,Hippopolis_Learning,2022.2.2,60.02819073884674,
Hippopolis,stimuli/subj_files/student1_cityA.csv,./stimuli/frankfurt.jpg,./stimuli/street_plate1.png,RÓZSA UTCA,stimuli/objects/091a.jpg,object,0,stimuli/objects/091a.jpg,stimuli/objects/091b.jpg,stimuli/objects/078b.jpg,stimuli/objects/078a.jpg,stimuli/objects/091a.jpg,lure,dist2,dist1,target,0,0,0,0,0,67,67,45,,,,,,,,,,,1022.8798837326467,1023.9030505996197,1023.9030505996197,1023.9030505996197,1023.9030505996197,None,,,,,,,,,,,,,,,,,,,,,,,,,,,,,,student1,2022-10-25_09h32.59.613,Hippopolis_Learning,2022.2.2,60.02819073884674,
Hippopolis,stimuli/subj_files/student1_cityA.csv,./stimuli/frankfurt.jpg,./stimuli/street_plate1.png,NARANCS UTCA,stimuli/objects/017a.jpg,object,1,stimuli/objects/075a.jpg,stimuli/objects/075a.jpg,stimuli/scenes/041b.jpg,stimuli/scenes/041a.jpg,stimuli/objects/075b.jpg,target,dist2,dist1,lure,0,0,0,0,0,68,68,76,,,,,,,,,,,1026.8915558028966,1027.9383165463805,1027.9383165463805,1027.9383165463805,1027.9383165463805,None,,,,,,,,,,,,,,,,,,,,,,,,,,,,,,student1,2022-10-25_09h32.59.613,Hippopolis_Learning,2022.2.2,60.02819073884674,
Hippopolis,stimuli/subj_files/student1_cityA.csv,./stimuli/frankfurt.jpg,./stimuli/street_plate1.png,POGÁCSA UTCA,stimuli/scenes/046a.jpg,scene,0,stimuli/scenes/046a.jpg,stimuli/scenes/042a.jpg,stimuli/scenes/046a.jpg,stimuli/scenes/046b.jpg,stimuli/scenes/042b.jpg,dist1,target,lure,dist2,0,0,0,0,0,69,69,49,,,,,,,,,,,1030.8956878334284,1031.9288768805563,1031.9288768805563,1031.9288768805563,1031.9288768805563,None,,,,,,,,,,,,,,,,,,,,,,,,,,,,,,student1,2022-10-25_09h32.59.613,Hippopolis_Learning,2022.2.2,60.02819073884674,
Hippopolis,stimuli/subj_files/student1_cityA.csv,./stimuli/frankfurt.jpg,./stimuli/street_plate1.png,ÁLOM UTCA,stimuli/objects/070a.jpg,object,0,stimuli/objects/070a.jpg,stimuli/objects/070b.jpg,stimuli/objects/114b.jpg,stimuli/objects/114a.jpg,stimuli/objects/070a.jpg,lure,dist2,dist1,target,0,0,0,0,0,70,70,50,,,,,,,,,,,1034.9062241092324,1035.944195812568,1035.944195812568,1035.944195812568,1035.944195812568,None,,,,,,,,,,,,,,,,,,,,,,,,,,,,,,student1,2022-10-25_09h32.59.613,Hippopolis_Learning,2022.2.2,60.02819073884674,
Hippopolis,stimuli/subj_files/student1_cityA.csv,./stimuli/frankfurt.jpg,./stimuli/street_plate1.png,KERÉK UTCA,stimuli/scenes/096a.jpg,scene,1,stimuli/scenes/041a.jpg,stimuli/scenes/117a.jpg,stimuli/scenes/041b.jpg,stimuli/scenes/041a.jpg,stimuli/scenes/117b.jpg,dist1,lure,target,dist2,0,0,0,0,0,71,71,20,,,,,,,,,,,1038.9225314185023,1039.946867045015,1039.946867045015,1039.946867045015,1039.946867045015,None,1039.946867045015,,,,,,,,,,,,,,,,,,,,,,,,,,,,,student1,2022-10-25_09h32.59.613,Hippopolis_Learning,2022.2.2,60.02819073884674,
Hippopolis,stimuli/subj_files/student1_cityA.csv,./stimuli/frankfurt.jpg,./stimuli/street_plate1.png,FIÓK UTCA,stimuli/scenes/002a.jpg,scene,1,stimuli/scenes/014a.jpg,stimuli/scenes/014a.jpg,stimuli/objects/004a.jpg,stimuli/objects/004b.jpg,stimuli/scenes/014b.jpg,target,dist1,dist2,lure,0,0,0,0,0,72,72,73,,,,,,,,,,,1042.9309845715761,1043.9549000300467,1043.9549000300467,1043.9549000300467,1043.9549000300467,None,,,,,,,,,,,,,,,,,,,,,,,,,,,,,,student1,2022-10-25_09h32.59.613,Hippopolis_Learning,2022.2.2,60.02819073884674,
Hippopolis,stimuli/subj_files/student1_cityA.csv,./stimuli/frankfurt.jpg,./stimuli/street_plate1.png,AJÁNDÉK UTCA,stimuli/scenes/005a.jpg,scene,1,stimuli/scenes/009a.jpg,stimuli/scenes/078b.jpg,stimuli/scenes/078a.jpg,stimuli/scenes/009a.jpg,stimuli/scenes/009b.jpg,dist2,dist1,target,lure,0,0,0,0,0,73,73,28,,,,,,,,,,,1046.9450927544385,1047.9814298078418,1047.9814298078418,1047.9814298078418,1047.9814298078418,None,,,,,,,,,,,,,,,,,,,,,,,,,,,,,,student1,2022-10-25_09h32.59.613,Hippopolis_Learning,2022.2.2,60.02819073884674,
Hippopolis,stimuli/subj_files/student1_cityA.csv,./stimuli/frankfurt.jpg,./stimuli/street_plate1.png,PIZSAMA UTCA,stimuli/scenes/060a.jpg,scene,2,stimuli/objects/006a.jpg,stimuli/scenes/007b.jpg,stimuli/scenes/007a.jpg,stimuli/objects/006b.jpg,stimuli/objects/006a.jpg,dist2,dist1,lure,target,0,0,0,0,0,74,74,79,,,,,,,,,,,1050.9581525344402,1051.995266482234,1051.995266482234,1051.995266482234,1051.995266482234,None,,,,,,,,,,,,,,,,,,,,,,,,,,,,,,student1,2022-10-25_09h32.59.613,Hippopolis_Learning,2022.2.2,60.02819073884674,
Hippopolis,stimuli/subj_files/student1_cityA.csv,./stimuli/frankfurt.jpg,./stimuli/street_plate1.png,SIVATAG UTCA,stimuli/scenes/016a.jpg,scene,2,stimuli/objects/046a.jpg,stimuli/objects/046b.jpg,stimuli/objects/006a.jpg,stimuli/objects/006b.jpg,stimuli/objects/046a.jpg,lure,dist1,dist2,target,0,0,0,0,0,75,75,23,,,,,,,,,,,1054.958788542077,1055.9941356629133,1055.9941356629133,1055.9941356629133,1055.9941356629133,None,,,,,,,,,,,,,,,,,,,,,,,,,,,,,,student1,2022-10-25_09h32.59.613,Hippopolis_Learning,2022.2.2,60.02819073884674,
Hippopolis,stimuli/subj_files/student1_cityA.csv,./stimuli/frankfurt.jpg,./stimuli/street_plate1.png,ÜVEG UTCA,stimuli/scenes/061a.jpg,scene,2,stimuli/objects/085a.jpg,stimuli/objects/085b.jpg,stimuli/scenes/084a.jpg,stimuli/objects/085a.jpg,stimuli/scenes/084b.jpg,lure,dist1,target,dist2,0,0,0,0,0,76,76,19,,,,,,,,,,,1058.9628512188792,1059.9964769203216,1059.9964769203216,1059.9964769203216,1059.9964769203216,None,,,,,,,,,,,,,,,,,,,,,,,,,,,,,,student1,2022-10-25_09h32.59.613,Hippopolis_Learning,2022.2.2,60.02819073884674,
Hippopolis,stimuli/subj_files/student1_cityA.csv,./stimuli/frankfurt.jpg,./stimuli/street_plate1.png,CSAVAR UTCA,stimuli/objects/078a.jpg,object,0,stimuli/objects/078a.jpg,stimuli/objects/078b.jpg,stimuli/objects/024b.jpg,stimuli/objects/078a.jpg,stimuli/objects/024a.jpg,lure,dist2,target,dist1,0,0,0,0,0,77,77,10,,,,,,,,,,,1062.9696495085955,1063.992860848084,1063.992860848084,1063.992860848084,1063.992860848084,None,,,,,,,,,,,,,,,,,,,,,,,,,,,,,,student1,2022-10-25_09h32.59.613,Hippopolis_Learning,2022.2.2,60.02819073884674,
Hippopolis,stimuli/subj_files/student1_cityA.csv,./stimuli/frankfurt.jpg,./stimuli/street_plate1.png,PÉKSÉG UTCA,stimuli/scenes/073a.jpg,scene,2,stimuli/objects/059a.jpg,stimuli/objects/059a.jpg,stimuli/objects/046b.jpg,stimuli/objects/059b.jpg,stimuli/objects/046a.jpg,target,dist2,lure,dist1,0,0,0,0,0,78,78,61,,,,,,,,,,,1066.981207748875,1068.000186914578,1068.000186914578,1068.000186914578,1068.000186914578,None,,,,,,,,,,,,,,,,,,,,,,,,,,,,,,student1,2022-10-25_09h32.59.613,Hippopolis_Learning,2022.2.2,60.02819073884674,
Hippopolis,stimuli/subj_files/student1_cityA.csv,./stimuli/frankfurt.jpg,./stimuli/street_plate1.png,KOCKA UTCA,stimuli/objects/062a.jpg,object,0,stimuli/objects/062a.jpg,stimuli/scenes/095b.jpg,stimuli/objects/062a.jpg,stimuli/objects/062b.jpg,stimuli/scenes/095a.jpg,dist2,target,lure,dist1,0,0,0,0,0,79,79,35,,,,,,,,,,,1070.981056600809,1072.0213481001556,1072.0213481001556,1072.0213481001556,1072.0213481001556,None,1072.0213481001556,,,,,,,,,,,,,,,,,,,,,,,,,,,,,student1,2022-10-25_09h32.59.613,Hippopolis_Learning,2022.2.2,60.02819073884674,
Hippopolis,stimuli/subj_files/student1_cityA.csv,./stimuli/frankfurt.jpg,./stimuli/street_plate1.png,RÓZSA UTCA,stimuli/objects/091a.jpg,object,0,stimuli/objects/091a.jpg,stimuli/objects/091b.jpg,stimuli/objects/078b.jpg,stimuli/objects/078a.jpg,stimuli/objects/091a.jpg,lure,dist2,dist1,target,0,0,0,0,,,,,0,0,0,45,,,,,,,1137.3730897977948,,,,,,,,,,1074.982532326132,1074.982532326132,space,58.34099181368947,1133.3938895948231,1133.3938895948231,1133.3938895948231,1133.3938895948231,1133.3938895948231,1133.3938895948231,None,None,,,,,,,,,,,,,,student1,2022-10-25_09h32.59.613,Hippopolis_Learning,2022.2.2,60.02819073884674,
Hippopolis,stimuli/subj_files/student1_cityA.csv,./stimuli/frankfurt.jpg,./stimuli/street_plate1.png,RÁDIÓ UTCA,stimuli/scenes/068a.jpg,scene,1,stimuli/scenes/067a.jpg,stimuli/scenes/018b.jpg,stimuli/scenes/067a.jpg,stimuli/scenes/067b.jpg,stimuli/scenes/018a.jpg,dist2,target,lure,dist1,0,0,0,0,,,,,0,1,1,44,,,,,,,1140.739519705996,,,,,,,,,,,,,,1138.3971262387931,1138.3971262387931,1138.3971262387931,1138.3971262387931,1138.3971262387931,1138.3971262387931,left,None,2.3020320422947407,,,,,,,,,,,,,student1,2022-10-25_09h32.59.613,Hippopolis_Learning,2022.2.2,60.02819073884674,
Hippopolis,stimuli/subj_files/student1_cityA.csv,./stimuli/frankfurt.jpg,./stimuli/street_plate1.png,LÉTRA UTCA,stimuli/objects/047a.jpg,object,1,stimuli/objects/015a.jpg,stimuli/objects/108b.jpg,stimuli/objects/015b.jpg,stimuli/objects/108a.jpg,stimuli/objects/015a.jpg,dist2,lure,dist1,target,0,0,0,0,,,,,0,2,2,33,,,,,,,1145.7686737570912,,,,,,,,,,,,,,1141.7623880058527,1141.7623880058527,1141.7623880058527,1141.7623880058527,1141.7623880058527,1141.7623880058527,None,None,,,,,,,,,,,,,,student1,2022-10-25_09h32.59.613,Hippopolis_Learning,2022.2.2,60.02819073884674,
Hippopolis,stimuli/subj_files/student1_cityA.csv,./stimuli/frankfurt.jpg,./stimuli/street_plate1.png,FÓKA UTCA,stimuli/scenes/058a.jpg,scene,0,stimuli/scenes/058a.jpg,stimuli/scenes/058a.jpg,stimuli/scenes/058b.jpg,stimuli/objects/111b.jpg,stimuli/objects/111a.jpg,target,lure,dist2,dist1,0,0,0,0,,,,,0,3,3,51,,,,,,,1148.2883760109544,,,,,,,,,,,,,,1146.7954091094434,1146.7954091094434,1146.7954091094434,1146.7954091094434,1146.7954091094434,1146.7954091094434,left,None,1.4570509996265173,,,,,,,,,,,,,student1,2022-10-25_09h32.59.613,Hippopolis_Learning,2022.2.2,60.02819073884674,
Hippopolis,stimuli/subj_files/student1_cityA.csv,./stimuli/frankfurt.jpg,./stimuli/street_plate1.png,MUNKA UTCA,stimuli/scenes/039a.jpg,scene,2,stimuli/objects/067a.jpg,stimuli/scenes/097a.jpg,stimuli/objects/067b.jpg,stimuli/objects/067a.jpg,stimuli/scenes/097b.jpg,dist1,lure,target,dist2,0,0,0,0,,,,,0,4,4,4,,,,,,,1150.9621203541756,,,,,,,,,,,,,,1149.3181657586247,1149.3181657586247,1149.3181657586247,1149.3181657586247,1149.3181657586247,1149.3181657586247,left,None,1.605251144617796,,,,,,,,,,,,,student1,2022-10-25_09h32.59.613,Hippopolis_Learning,2022.2.2,60.02819073884674,
Hippopolis,stimuli/subj_files/student1_cityA.csv,./stimuli/frankfurt.jpg,./stimuli/street_plate1.png,HERNYÓ UTCA,stimuli/scenes/066a.jpg,scene,1,stimuli/scenes/037a.jpg,stimuli/scenes/037a.jpg,stimuli/objects/045b.jpg,stimuli/scenes/037b.jpg,stimuli/objects/045a.jpg,target,dist2,lure,dist1,0,0,0,0,,,,,0,5,5,5,,,,,,,1153.2226796429604,,,,,,,,,,,,,,1151.9811119604856,1151.9811119604856,1151.9811119604856,1151.9811119604856,1151.9811119604856,1151.9811119604856,left,None,1.1983583718538284,,,,,,,,,,,,,student1,2022-10-25_09h32.59.613,Hippopolis_Learning,2022.2.2,60.02819073884674,
Hippopolis,stimuli/subj_files/student1_cityA.csv,./stimuli/frankfurt.jpg,./stimuli/street_plate1.png,KÖMÉNYMAG UTCA,stimuli/objects/068a.jpg,object,1,stimuli/objects/045a.jpg,stimuli/objects/045a.jpg,stimuli/objects/045b.jpg,stimuli/objects/071a.jpg,stimuli/objects/071b.jpg,target,lure,dist1,dist2,0,0,0,0,,,,,0,6,6,18,,,,,,,1158.2363303359598,,,,,,,,,,,,,,1154.2516868989915,1154.2516868989915,1154.2516868989915,1154.2516868989915,1154.2516868989915,1154.2516868989915,None,None,,,,,,,,,,,,,,student1,2022-10-25_09h32.59.613,Hippopolis_Learning,2022.2.2,60.02819073884674,
Hippopolis,stimuli/subj_files/student1_cityA.csv,./stimuli/frankfurt.jpg,./stimuli/street_plate1.png,ZSEMLE UTCA,stimuli/objects/115a.jpg,object,1,stimuli/objects/053a.jpg,stimuli/objects/007a.jpg,stimuli/objects/053a.jpg,stimuli/objects/007b.jpg,stimuli/objects/053b.jpg,dist1,target,dist2,lure,0,0,0,0,,,,,0,7,7,47,,,,,,,1163.2554746456444,,,,,,,,,,,,,,1159.2674816697836,1159.2674816697836,1159.2674816697836,1159.2674816697836,1159.2674816697836,1159.2674816697836,None,None,,,,,,,,,,,,,,student1,2022-10-25_09h32.59.613,Hippopolis_Learning,2022.2.2,60.02819073884674,
Hippopolis,stimuli/subj_files/student1_cityA.csv,./stimuli/frankfurt.jpg,./stimuli/street_plate1.png,ÜVEG UTCA,stimuli/scenes/061a.jpg,scene,2,stimuli/objects/085a.jpg,stimuli/objects/085b.jpg,stimuli/scenes/084a.jpg,stimuli/objects/085a.jpg,stimuli/scenes/084b.jpg,lure,dist1,target,dist2,0,0,0,0,,,,,0,8,8,19,,,,,,,1168.1519947331399,,,,,,1169.1712687313557,,,,,,,,1164.2803679071367,1164.2803679071367,1164.2803679071367,1164.2803679071367,1164.2803679071367,1164.2803679071367,left,None,3.8420570082962513,,,,,,,,,,,,,student1,2022-10-25_09h32.59.613,Hippopolis_Learning,2022.2.2,60.02819073884674,
Hippopolis,stimuli/subj_files/student1_cityA.csv,./stimuli/frankfurt.jpg,./stimuli/street_plate1.png,EGÉR UTCA,stimuli/scenes/071a.jpg,scene,1,stimuli/scenes/116a.jpg,stimuli/scenes/116b.jpg,stimuli/scenes/116a.jpg,stimuli/scenes/009b.jpg,stimuli/scenes/009a.jpg,lure,target,dist2,dist1,0,0,0,0,,,,,0,9,9,29,,,,,,,1170.8018712010235,,,,,,,,,,,,,,1169.1712687313557,1169.1712687313557,1169.1712687313557,1169.1712687313557,1169.1712687313557,1169.1712687313557,left,None,1.5750857014209032,,,,,,,,,,,,,student1,2022-10-25_09h32.59.613,Hippopolis_Learning,2022.2.2,60.02819073884674,
Hippopolis,stimuli/subj_files/student1_cityA.csv,./stimuli/frankfurt.jpg,./stimuli/street_plate1.png,CUKOR UTCA,stimuli/objects/111a.jpg,object,0,stimuli/objects/111a.jpg,stimuli/objects/089b.jpg,stimuli/objects/111b.jpg,stimuli/objects/111a.jpg,stimuli/objects/089a.jpg,dist2,lure,target,dist1,0,0,0,0,,,,,0,10,10,30,,,,,,,1175.820676824078,,,,,,,,,,,,,,1171.8181564286351,1171.8181564286351,1171.8181564286351,1171.8181564286351,1171.8181564286351,1171.8181564286351,None,None,,,,,,,,,,,,,,student1,2022-10-25_09h32.59.613,Hippopolis_Learning,2022.2.2,60.02819073884674,
Hippopolis,stimuli/subj_files/student1_cityA.csv,./stimuli/frankfurt.jpg,./stimuli/street_plate1.png,PADLÓ UTCA,stimuli/objects/100a.jpg,object,0,stimuli/objects/100a.jpg,stimuli/scenes/058a.jpg,stimuli/scenes/058b.jpg,stimuli/objects/100a.jpg,stimuli/objects/100b.jpg,dist1,dist2,target,lure,0,0,0,0,,,,,0,11,11,59,,,,,,,1179.3930449020118,,,,,,,,,,,,,,1176.842377917841,1176.842377917841,1176.842377917841,1176.842377917841,1176.842377917841,1176.842377917841,left,None,2.512172218412161,,,,,,,,,,,,,student1,2022-10-25_09h32.59.613,Hippopolis_Learning,2022.2.2,60.02819073884674,
Hippopolis,stimuli/subj_files/student1_cityA.csv,./stimuli/frankfurt.jpg,./stimuli/street_plate1.png,ÁLOM UTCA,stimuli/objects/070a.jpg,object,0,stimuli/objects/070a.jpg,stimuli/objects/070b.jpg,stimuli/objects/114b.jpg,stimuli/objects/114a.jpg,stimuli/objects/070a.jpg,lure,dist2,dist1,target,0,0,0,0,,,,,0,12,12,50,,,,,,,1182.461375804618,,,,,,,,,,,,,,1180.4038044791669,1180.4038044791669,1180.4038044791669,1180.4038044791669,1180.4038044791669,1180.4038044791669,left,None,2.0230947621166706,,,,,,,,,,,,,student1,2022-10-25_09h32.59.613,Hippopolis_Learning,2022.2.2,60.02819073884674,
Hippopolis,stimuli/subj_files/student1_cityA.csv,./stimuli/frankfurt.jpg,./stimuli/street_plate1.png,MOGYORÓ UTCA,stimuli/objects/106a.jpg,object,1,stimuli/objects/103a.jpg,stimuli/scenes/116a.jpg,stimuli/objects/103b.jpg,stimuli/objects/103a.jpg,stimuli/scenes/116b.jpg,dist1,lure,target,dist2,0,0,0,0,,,,,0,13,13,54,,,,,,,1187.4684866555035,,,,,,,,,,,,,,1183.482327060774,1183.482327060774,1183.482327060774,1183.482327060774,1183.482327060774,1183.482327060774,None,None,,,,,,,,,,,,,,student1,2022-10-25_09h32.59.613,Hippopolis_Learning,2022.2.2,60.02819073884674,
Hippopolis,stimuli/subj_files/student1_cityA.csv,./stimuli/frankfurt.jpg,./stimuli/street_plate1.png,BÖGRE UTCA,stimuli/objects/050a.jpg,object,1,stimuli/objects/076a.jpg,stimuli/scenes/037a.jpg,stimuli/objects/076a.jpg,stimuli/objects/076b.jpg,stimuli/scenes/037b.jpg,dist1,target,lure,dist2,0,0,0,0,,,,,0,14,14,41,,,,,,,1190.255712253973,,,,,,,,,,,,,,1188.4980139136314,1188.4980139136314,1188.4980139136314,1188.4980139136314,1188.4980139136314,1188.4980139136314,left,None,1.7212521731853485,,,,,,,,,,,,,student1,2022-10-25_09h32.59.613,Hippopolis_Learning,2022.2.2,60.02819073884674,
Hippopolis,stimuli/subj_files/student1_cityA.csv,./stimuli/frankfurt.jpg,./stimuli/street_plate1.png,PAPAGÁJ UTCA,stimuli/objects/093a.jpg,object,2,stimuli/scenes/097a.jpg,stimuli/scenes/097a.jpg,stimuli/scenes/109b.jpg,stimuli/scenes/109a.jpg,stimuli/scenes/097b.jpg,target,dist2,dist1,lure,0,0,0,0,,,,,0,15,15,55,,,,,,,1192.5028581488878,,,,,,,,,,,,,,1191.278060240671,1191.278060240671,1191.278060240671,1191.278060240671,1191.278060240671,1191.278060240671,left,None,1.180142417550087,,,,,,,,,,,,,student1,2022-10-25_09h32.59.613,Hippopolis_Learning,2022.2.2,60.02819073884674,
Hippopolis,stimuli/subj_files/student1_cityA.csv,./stimuli/frankfurt.jpg,./stimuli/street_plate1.png,POGÁCSA UTCA,stimuli/scenes/046a.jpg,scene,0,stimuli/scenes/046a.jpg,stimuli/scenes/042a.jpg,stimuli/scenes/046a.jpg,stimuli/scenes/046b.jpg,stimuli/scenes/042b.jpg,dist1,target,lure,dist2,0,0,0,0,,,,,0,16,16,49,,,,,,,1197.531706791371,,,,,,,,,,,,,,1193.5129630565643,1193.5129630565643,1193.5129630565643,1193.5129630565643,1193.5129630565643,1193.5129630565643,None,None,,,,,,,,,,,,,,student1,2022-10-25_09h32.59.613,Hippopolis_Learning,2022.2.2,60.02819073884674,
Hippopolis,stimuli/subj_files/student1_cityA.csv,./stimuli/frankfurt.jpg,./stimuli/street_plate1.png,MARTINI UTCA,stimuli/objects/060a.jpg,object,1,stimuli/objects/011a.jpg,stimuli/objects/075b.jpg,stimuli/objects/075a.jpg,stimuli/objects/011b.jpg,stimuli/objects/011a.jpg,dist2,dist1,lure,target,0,0,0,0,,,,,0,17,17,60,,,,,,,1201.423969199881,,,,,,,,,,,,,,1198.551675889641,1198.551675889641,1198.551675889641,1198.551675889641,1198.551675889641,1198.551675889641,left,None,2.8349710386246443,,,,,,,,,,,,,student1,2022-10-25_09h32.59.613,Hippopolis_Learning,2022.2.2,60.02819073884674,
Hippopolis,stimuli/subj_files/student1_cityA.csv,./stimuli/frankfurt.jpg,./stimuli/street_plate1.png,KARTON UTCA,stimuli/objects/101a.jpg,object,2,stimuli/scenes/044a.jpg,stimuli/scenes/074a.jpg,stimuli/scenes/044b.jpg,stimuli/scenes/044a.jpg,stimuli/scenes/074b.jpg,dist1,lure,target,dist2,0,0,0,0,,,,,0,18,18,8,,,,,,,1206.3230886794627,,,,,,,,,,,,,,1202.4330630265176,1202.4330630265176,1202.4330630265176,1202.4330630265176,1202.4330630265176,1202.4330630265176,left,None,3.84954977594316,,,,,,,,,,,,,student1,2022-10-25_09h32.59.613,Hippopolis_Learning,2022.2.2,60.02819073884674,
Hippopolis,stimuli/subj_files/student1_cityA.csv,./stimuli/frankfurt.jpg,./stimuli/street_plate1.png,TOLLTARTÓ UTCA,stimuli/objects/032a.jpg,object,2,stimuli/scenes/119a.jpg,stimuli/scenes/119a.jpg,stimuli/scenes/104b.jpg,stimuli/scenes/104a.jpg,stimuli/scenes/119b.jpg,target,dist2,dist1,lure,0,0,0,0,,,,,0,19,19,67,,,,,,,1208.8730241768062,,,,,,,,,,,,,,1207.3453197274357,1207.3453197274357,1207.3453197274357,1207.3453197274357,1207.3453197274357,1207.3453197274357,left,None,1.4970753453671932,,,,,,,,,,,,,student1,2022-10-25_09h32.59.613,Hippopolis_Learning,2022.2.2,60.02819073884674,
Hippopolis,stimuli/subj_files/student1_cityA.csv,./stimuli/frankfurt.jpg,./stimuli/street_plate1.png,HEGEDŰ UTCA,stimuli/scenes/113a.jpg,scene,2,stimuli/objects/036a.jpg,stimuli/objects/036b.jpg,stimuli/scenes/059b.jpg,stimuli/scenes/059a.jpg,stimuli/objects/036a.jpg,lure,dist2,dist1,target,0,0,0,0,,,,,0,20,20,69,,,,,,,1212.8034747503698,,,,,,,,,,,,,,1209.8839317932725,1209.8839317932725,1209.8839317932725,1209.8839317932725,1209.8839317932725,1209.8839317932725,left,None,2.878673968836665,,,,,,,,,,,,,student1,2022-10-25_09h32.59.613,Hippopolis_Learning,2022.2.2,60.02819073884674,
Hippopolis,stimuli/subj_files/student1_cityA.csv,./stimuli/frankfurt.jpg,./stimuli/street_plate1.png,PETÁRDA UTCA,stimuli/objects/009a.jpg,object,0,stimuli/objects/009a.jpg,stimuli/objects/009a.jpg,stimuli/scenes/051a.jpg,stimuli/objects/009b.jpg,stimuli/scenes/051b.jpg,target,dist1,lure,dist2,0,0,0,0,,,,,0,21,21,64,,,,,,,1217.773423757404,,,,,,,,,,,,,,1213.8301880210638,1213.8301880210638,1213.8301880210638,1213.8301880210638,1213.8301880210638,1213.8301880210638,right,None,3.9082774240523577,,,,,,,,,,,,,student1,2022-10-25_09h32.59.613,Hippopolis_Learning,2022.2.2,60.02819073884674,
Hippopolis,stimuli/subj_files/student1_cityA.csv,./stimuli/frankfurt.jpg,./stimuli/street_plate1.png,HÁRFA UTCA,stimuli/objects/083a.jpg,object,2,stimuli/scenes/028a.jpg,stimuli/scenes/028b.jpg,stimuli/objects/012b.jpg,stimuli/objects/012a.jpg,stimuli/scenes/028a.jpg,lure,dist2,dist1,target,0,0,0,0,,,,,0,22,22,16,,,,,,,1222.7883508205414,,,,,,,,,,,,,,1218.794353865087,1218.794353865087,1218.794353865087,1218.794353865087,1218.794353865087,1218.794353865087,None,None,,,,,,,,,,,,,,student1,2022-10-25_09h32.59.613,Hippopolis_Learning,2022.2.2,60.02819073884674,
Hippopolis,stimuli/subj_files/student1_cityA.csv,./stimuli/frankfurt.jpg,./stimuli/street_plate1.png,KIRAKÓ UTCA,stimuli/objects/079a.jpg,object,2,stimuli/scenes/070a.jpg,stimuli/scenes/070a.jpg,stimuli/scenes/070b.jpg,stimuli/objects/043b.jpg,stimuli/objects/043a.jpg,target,lure,dist2,dist1,0,0,0,0,,,,,0,23,23,57,,,,,,,1225.209836633876,,,,,,,,,,,,,,1223.812480872497,1223.812480872497,1223.812480872497,1223.812480872497,1223.812480872497,1223.812480872497,left,None,1.3499351106584072,,,,,,,,,,,,,student1,2022-10-25_09h32.59.613,Hippopolis_Learning,2022.2.2,60.02819073884674,
Hippopolis,stimuli/subj_files/student1_cityA.csv,./stimuli/frankfurt.jpg,./stimuli/street_plate1.png,BOLYGÓ UTCA,stimuli/scenes/118a.jpg,scene,1,stimuli/scenes/087a.jpg,stimuli/objects/011a.jpg,stimuli/scenes/087b.jpg,stimuli/objects/011b.jpg,stimuli/scenes/087a.jpg,dist1,lure,dist2,target,0,0,0,0,,,,,0,24,24,31,,,,,,,1227.5287593826652,,,,,,,,,,,,,,1226.2345224563032,1226.2345224563032,1226.2345224563032,1226.2345224563032,1226.2345224563032,1226.2345224563032,right,None,1.2477866187691689,,,,,,,,,,,,,student1,2022-10-25_09h32.59.613,Hippopolis_Learning,2022.2.2,60.02819073884674,
Hippopolis,stimuli/subj_files/student1_cityA.csv,./stimuli/frankfurt.jpg,./stimuli/street_plate1.png,BONBON UTCA,stimuli/objects/095a.jpg,object,2,stimuli/scenes/007a.jpg,stimuli/objects/028b.jpg,stimuli/objects/028a.jpg,stimuli/scenes/007a.jpg,stimuli/scenes/007b.jpg,dist2,dist1,target,lure,0,0,0,0,,,,,0,25,25,72,,,,,,,1232.5407206881791,,,,,,,,,,,,,,1228.549205565825,1228.549205565825,1228.549205565825,1228.549205565825,1228.549205565825,1228.549205565825,None,None,,,,,,,,,,,,,,student1,2022-10-25_09h32.59.613,Hippopolis_Learning,2022.2.2,60.02819073884674,
Hippopolis,stimuli/subj_files/student1_cityA.csv,./stimuli/frankfurt.jpg,./stimuli/street_plate1.png,PÁLMAFA UTCA,stimuli/objects/090a.jpg,object,1,stimuli/objects/007a.jpg,stimuli/objects/053a.jpg,stimuli/objects/007a.jpg,stimuli/objects/053b.jpg,stimuli/objects/007b.jpg,dist1,target,dist2,lure,0,0,0,0,,,,,0,26,26,12,,,,,,,1235.9028692822903,,,,,,1236.9123238772154,,,,,,,,1233.5493396092206,1233.5493396092206,1233.5493396092206,1233.5493396092206,1233.5493396092206,1233.5493396092206,left,None,2.3175176717340946,,,,,,,,,,,,,student1,2022-10-25_09h32.59.613,Hippopolis_Learning,2022.2.2,60.02819073884674,
Hippopolis,stimuli/subj_files/student1_cityA.csv,./stimuli/frankfurt.jpg,./stimuli/street_plate1.png,LAKAT UTCA,stimuli/objects/066a.jpg,object,2,stimuli/scenes/084a.jpg,stimuli/scenes/084b.jpg,stimuli/scenes/034a.jpg,stimuli/scenes/084a.jpg,stimuli/scenes/034b.jpg,lure,dist1,target,dist2,0,0,0,0,,,,,0,27,27,58,,,,,,,1238.9870960339904,,,,,,1239.995187798515,,,,,,,,1236.9123238772154,1236.9123238772154,1236.9123238772154,1236.9123238772154,1236.9123238772154,1236.9123238772154,left,None,2.042095698416233,,,,,,,,,,,,,student1,2022-10-25_09h32.59.613,Hippopolis_Learning,2022.2.2,60.02819073884674,
Hippopolis,stimuli/subj_files/student1_cityA.csv,./stimuli/frankfurt.jpg,./stimuli/street_plate1.png,DOMINÓ UTCA,stimuli/scenes/042a.jpg,scene,0,stimuli/scenes/042a.jpg,stimuli/scenes/042a.jpg,stimuli/scenes/042b.jpg,stimuli/objects/070a.jpg,stimuli/objects/070b.jpg,target,lure,dist1,dist2,0,0,0,0,,,,,0,28,28,63,,,,,,,1289.4270043112338,,,,,,,,,,,,,,1239.995187798515,1239.995187798515,1239.995187798515,1239.995187798515,1239.995187798515,1239.995187798515,right,space,3.503085855394602,1243.5557059105486,1243.5557059105486,1243.5557059105486,1243.5557059105486,1243.5557059105486,45.84632059559226,,,,,,,student1,2022-10-25_09h32.59.613,Hippopolis_Learning,2022.2.2,60.02819073884674,
Hippopolis,stimuli/subj_files/student1_cityA.csv,./stimuli/frankfurt.jpg,./stimuli/street_plate1.png,SZIKLA UTCA,stimuli/scenes/111a.jpg,scene,2,stimuli/objects/073a.jpg,stimuli/objects/120b.jpg,stimuli/objects/120a.jpg,stimuli/objects/073a.jpg,stimuli/objects/073b.jpg,dist2,dist1,target,lure,0,0,0,0,,,,,0,29,29,1,,,,,,,1292.4185626655817,,,,,,,,,,,,,,1290.4463439323008,1290.4463439323008,1290.4463439323008,1290.4463439323008,1290.4463439323008,1290.4463439323008,left,None,1.947061786428094,,,,,,,,,,,,,student1,2022-10-25_09h32.59.613,Hippopolis_Learning,2022.2.2,60.02819073884674,
Hippopolis,stimuli/subj_files/student1_cityA.csv,./stimuli/frankfurt.jpg,./stimuli/street_plate1.png,KÖTÉNY UTCA,stimuli/scenes/031a.jpg,scene,1,stimuli/scenes/064a.jpg,stimuli/objects/103a.jpg,stimuli/objects/103b.jpg,stimuli/scenes/064b.jpg,stimuli/scenes/064a.jpg,dist1,dist2,lure,target,0,0,0,0,,,,,0,30,30,22,,,,,,,1296.055598301813,,,,,,,,,,,,,,1293.440481774509,1293.440481774509,1293.440481774509,1293.440481774509,1293.440481774509,1293.440481774509,left,None,2.5848211348056793,,,,,,,,,,,,,student1,2022-10-25_09h32.59.613,Hippopolis_Learning,2022.2.2,60.02819073884674,
Hippopolis,stimuli/subj_files/student1_cityA.csv,./stimuli/frankfurt.jpg,./stimuli/street_plate1.png,KERÉK UTCA,stimuli/scenes/096a.jpg,scene,1,stimuli/scenes/041a.jpg,stimuli/scenes/117a.jpg,stimuli/scenes/041b.jpg,stimuli/scenes/041a.jpg,stimuli/scenes/117b.jpg,dist1,lure,target,dist2,0,0,0,0,,,,,0,31,31,20,,,,,,,1299.9049632884562,,,,,,,,,,,,,,1297.0655996445566,1297.0655996445566,1297.0655996445566,1297.0655996445566,1297.0655996445566,1297.0655996445566,left,None,2.8003137316554785,,,,,,,,,,,,,student1,2022-10-25_09h32.59.613,Hippopolis_Learning,2022.2.2,60.02819073884674,
Hippopolis,stimuli/subj_files/student1_cityA.csv,./stimuli/frankfurt.jpg,./stimuli/street_plate1.png,FIÓK UTCA,stimuli/scenes/002a.jpg,scene,1,stimuli/scenes/014a.jpg,stimuli/scenes/014a.jpg,stimuli/objects/004a.jpg,stimuli/objects/004b.jpg,stimuli/scenes/014b.jpg,target,dist1,dist2,lure,0,0,0,0,,,,,0,32,32,73,,,,,,,1304.9217523466796,,,,,,,,,,,,,,1300.9159735366702,1300.9159735366702,1300.9159735366702,1300.9159735366702,1300.9159735366702,1300.9159735366702,None,None,,,,,,,,,,,,,,student1,2022-10-25_09h32.59.613,Hippopolis_Learning,2022.2.2,60.02819073884674,
Hippopolis,stimuli/subj_files/student1_cityA.csv,./stimuli/frankfurt.jpg,./stimuli/street_plate1.png,AKÁC UTCA,stimuli/scenes/081a.jpg,scene,2,stimuli/objects/055a.jpg,stimuli/objects/055b.jpg,stimuli/objects/107b.jpg,stimuli/objects/107a.jpg,stimuli/objects/055a.jpg,lure,dist2,dist1,target,0,0,0,0,,,,,0,33,33,74,,,,,,,1309.7994730304927,,,,,,1310.8184808082879,,,,,,,,1305.9460341706872,1305.9460341706872,1305.9460341706872,1305.9460341706872,1305.9460341706872,1305.9460341706872,left,None,3.823123563081026,,,,,,,,,,,,,student1,2022-10-25_09h32.59.613,Hippopolis_Learning,2022.2.2,60.02819073884674,
Hippopolis,stimuli/subj_files/student1_cityA.csv,./stimuli/frankfurt.jpg,./stimuli/street_plate1.png,KÖTÉL UTCA,stimuli/objects/051a.jpg,object,0,stimuli/objects/051a.jpg,stimuli/scenes/024b.jpg,stimuli/objects/051b.jpg,stimuli/scenes/024a.jpg,stimuli/objects/051a.jpg,dist2,lure,dist1,target,0,0,0,0,,,,,0,34,34,7,,,,,,,1312.3309583850205,,,,,,,,,,,,,,1310.8184808082879,1310.8184808082879,1310.8184808082879,1310.8184808082879,1310.8184808082879,1310.8184808082879,left,None,1.4790145829319954,,,,,,,,,,,,,student1,2022-10-25_09h32.59.613,Hippopolis_Learning,2022.2.2,60.02819073884674,
Hippopolis,stimuli/subj_files/student1_cityA.csv,./stimuli/frankfurt.jpg,./stimuli/street_plate1.png,KAKAS UTCA,stimuli/objects/002a.jpg,object,2,stimuli/scenes/074a.jpg,stimuli/scenes/074b.jpg,stimuli/scenes/074a.jpg,stimuli/scenes/070a.jpg,stimuli/scenes/070b.jpg,lure,target,dist1,dist2,0,0,0,0,,,,,0,35,35,24,,,,,,,1314.8335235659033,,,,,,1315.8495515901595,,,,,,,,1313.362070530653,1313.362070530653,1313.362070530653,1313.362070530653,1313.362070530653,1313.362070530653,left,None,1.4473864771425724,,,,,,,,,,,,,student1,2022-10-25_09h32.59.613,Hippopolis_Learning,2022.2.2,60.02819073884674,
Hippopolis,stimuli/subj_files/student1_cityA.csv,./stimuli/frankfurt.jpg,./stimuli/street_plate1.png,CSAVAR UTCA,stimuli/objects/078a.jpg,object,0,stimuli/objects/078a.jpg,stimuli/objects/078b.jpg,stimuli/objects/024b.jpg,stimuli/objects/078a.jpg,stimuli/objects/024a.jpg,lure,dist2,target,dist1,0,0,0,0,,,,,0,36,36,10,,,,,,,1319.3832581527531,,,,,,,,,,,,,,1315.8495515901595,1315.8495515901595,1315.8495515901595,1315.8495515901595,1315.8495515901595,1315.8495515901595,left,None,3.503978133201599,,,,,,,,,,,,,student1,2022-10-25_09h32.59.613,Hippopolis_Learning,2022.2.2,60.02819073884674,
Hippopolis,stimuli/subj_files/student1_cityA.csv,./stimuli/frankfurt.jpg,./stimuli/street_plate1.png,PÁFRÁNY UTCA,stimuli/scenes/101a.jpg,scene,0,stimuli/scenes/101a.jpg,stimuli/scenes/101a.jpg,stimuli/scenes/101b.jpg,stimuli/objects/051a.jpg,stimuli/objects/051b.jpg,target,lure,dist1,dist2,0,0,0,0,,,,,0,37,37,0,,,,,,,1324.402748612687,,,,,,,,,,,,,,1320.4056608751416,1320.4056608751416,1320.4056608751416,1320.4056608751416,1320.4056608751416,1320.4056608751416,None,None,,,,,,,,,,,,,,student1,2022-10-25_09h32.59.613,Hippopolis_Learning,2022.2.2,60.02819073884674,
Hippopolis,stimuli/subj_files/student1_cityA.csv,./stimuli/frankfurt.jpg,./stimuli/street_plate1.png,FOGAS UTCA,stimuli/scenes/025a.jpg,scene,1,stimuli/scenes/018a.jpg,stimuli/scenes/018b.jpg,stimuli/scenes/064a.jpg,stimuli/scenes/018a.jpg,stimuli/scenes/064b.jpg,lure,dist1,target,dist2,0,0,0,0,,,,,0,38,38,38,,,,,,,1329.4210995435715,,,,,,,,,,,,,,1325.4251874126494,1325.4251874126494,1325.4251874126494,1325.4251874126494,1325.4251874126494,1325.4251874126494,None,None,,,,,,,,,,,,,,student1,2022-10-25_09h32.59.613,Hippopolis_Learning,2022.2.2,60.02819073884674,
Hippopolis,stimuli/subj_files/student1_cityA.csv,./stimuli/frankfurt.jpg,./stimuli/street_plate1.png,LIGET UTCA,stimuli/objects/038a.jpg,object,2,stimuli/scenes/109a.jpg,stimuli/scenes/109a.jpg,stimuli/objects/055a.jpg,stimuli/scenes/109b.jpg,stimuli/objects/055b.jpg,target,dist1,lure,dist2,0,0,0,0,,,,,0,39,39,62,,,,,,,1334.4335730783641,,,,,,1335.4488413147628,,,,,,,,1330.4306925367564,1330.4306925367564,1330.4306925367564,1330.4306925367564,1330.4306925367564,1330.4306925367564,None,None,,,,,,,,,,,,,,student1,2022-10-25_09h32.59.613,Hippopolis_Learning,2022.2.2,60.02819073884674,
Hippopolis,stimuli/subj_files/student1_cityA.csv,./stimuli/frankfurt.jpg,./stimuli/street_plate1.png,SZOMSZÉD UTCA,stimuli/objects/026a.jpg,object,1,stimuli/objects/004a.jpg,stimuli/objects/027b.jpg,stimuli/objects/004b.jpg,stimuli/objects/004a.jpg,stimuli/objects/027a.jpg,dist2,lure,target,dist1,0,0,0,0,,,,,0,40,40,65,,,,,,,1337.7158424779773,,,,,,,,,,,,,,1335.4488413147628,1335.4488413147628,1335.4488413147628,1335.4488413147628,1335.4488413147628,1335.4488413147628,right,None,2.2238988392055035,,,,,,,,,,,,,student1,2022-10-25_09h32.59.613,Hippopolis_Learning,2022.2.2,60.02819073884674,
Hippopolis,stimuli/subj_files/student1_cityA.csv,./stimuli/frankfurt.jpg,./stimuli/street_plate1.png,VASALÓ UTCA,stimuli/objects/025a.jpg,object,2,stimuli/scenes/056a.jpg,stimuli/scenes/044a.jpg,stimuli/scenes/056b.jpg,stimuli/scenes/056a.jpg,stimuli/scenes/044b.jpg,dist1,lure,target,dist2,0,0,0,0,,,,,0,41,41,70,,,,,,,1340.7824205495417,,,,,,,,,,,,,,1338.7367119416595,1338.7367119416595,1338.7367119416595,1338.7367119416595,1338.7367119416595,1338.7367119416595,left,None,2.0077226497232914,,,,,,,,,,,,,student1,2022-10-25_09h32.59.613,Hippopolis_Learning,2022.2.2,60.02819073884674,
Hippopolis,stimuli/subj_files/student1_cityA.csv,./stimuli/frankfurt.jpg,./stimuli/street_plate1.png,KORONG UTCA,stimuli/scenes/065a.jpg,scene,1,stimuli/scenes/004a.jpg,stimuli/scenes/004a.jpg,stimuli/scenes/011b.jpg,stimuli/scenes/011a.jpg,stimuli/scenes/004b.jpg,target,dist2,dist1,lure,0,0,0,0,,,,,0,42,42,53,,,,,,,1343.115738229826,,,,,,,,,,,,,,1341.8064103387296,1341.8064103387296,1341.8064103387296,1341.8064103387296,1341.8064103387296,1341.8064103387296,left,None,1.2748628333210945,,,,,,,,,,,,,student1,2022-10-25_09h32.59.613,Hippopolis_Learning,2022.2.2,60.02819073884674,
Hippopolis,stimuli/subj_files/student1_cityA.csv,./stimuli/frankfurt.jpg,./stimuli/street_plate1.png,FÉNYKÉP UTCA,stimuli/scenes/010a.jpg,scene,1,stimuli/scenes/078a.jpg,stimuli/scenes/088a.jpg,stimuli/scenes/078a.jpg,stimuli/scenes/088b.jpg,stimuli/scenes/078b.jpg,dist1,target,dist2,lure,0,0,0,0,,,,,0,43,43,32,,,,,,,1348.1418920010328,,,,,,,,,,,,,,1344.139709359035,1344.139709359035,1344.139709359035,1344.139709359035,1344.139709359035,1344.139709359035,None,None,,,,,,,,,,,,,,student1,2022-10-25_09h32.59.613,Hippopolis_Learning,2022.2.2,60.02819073884674,
Hippopolis,stimuli/subj_files/student1_cityA.csv,./stimuli/frankfurt.jpg,./stimuli/street_plate1.png,HEGESZTŐ UTCA,stimuli/scenes/043a.jpg,scene,0,stimuli/scenes/043a.jpg,stimuli/scenes/043b.jpg,stimuli/scenes/043a.jpg,stimuli/objects/062a.jpg,stimuli/objects/062b.jpg,lure,target,dist1,dist2,0,0,0,0,,,,,0,44,44,77,,,,,,,1353.1489257216454,,,,,,,,,,,,,,1349.1633110120893,1349.1633110120893,1349.1633110120893,1349.1633110120893,1349.1633110120893,1349.1633110120893,None,None,,,,,,,,,,,,,,student1,2022-10-25_09h32.59.613,Hippopolis_Learning,2022.2.2,60.02819073884674,
Hippopolis,stimuli/subj_files/student1_cityA.csv,./stimuli/frankfurt.jpg,./stimuli/street_plate1.png,SIVATAG UTCA,stimuli/scenes/016a.jpg,scene,2,stimuli/objects/046a.jpg,stimuli/objects/046b.jpg,stimuli/objects/006a.jpg,stimuli/objects/006b.jpg,stimuli/objects/046a.jpg,lure,dist1,dist2,target,0,0,0,0,,,,,0,45,45,23,,,,,,,1358.1667333263904,,,,,,,,,,,,,,1354.173256373033,1354.173256373033,1354.173256373033,1354.173256373033,1354.173256373033,1354.173256373033,None,None,,,,,,,,,,,,,,student1,2022-10-25_09h32.59.613,Hippopolis_Learning,2022.2.2,60.02819073884674,
Hippopolis,stimuli/subj_files/student1_cityA.csv,./stimuli/frankfurt.jpg,./stimuli/street_plate1.png,HARMONIKA UTCA,stimuli/scenes/024a.jpg,scene,0,stimuli/scenes/024a.jpg,stimuli/scenes/101b.jpg,stimuli/scenes/024b.jpg,stimuli/scenes/101a.jpg,stimuli/scenes/024a.jpg,dist2,lure,dist1,target,0,0,0,0,,,,,0,46,46,25,,,,,,,1360.5987610127777,,,,,,,,,,,,,,1359.1935436315835,1359.1935436315835,1359.1935436315835,1359.1935436315835,1359.1935436315835,1359.1935436315835,left,None,1.3754578530788422,,,,,,,,,,,,,student1,2022-10-25_09h32.59.613,Hippopolis_Learning,2022.2.2,60.02819073884674,
Hippopolis,stimuli/subj_files/student1_cityA.csv,./stimuli/frankfurt.jpg,./stimuli/street_plate1.png,TELEP UTCA,stimuli/scenes/048a.jpg,scene,2,stimuli/objects/120a.jpg,stimuli/objects/120a.jpg,stimuli/objects/120b.jpg,stimuli/scenes/119b.jpg,stimuli/scenes/119a.jpg,target,lure,dist2,dist1,0,0,0,0,,,,,0,47,47,75,,,,,,,1365.1342748329043,,,,,,,,,,,,,,1361.6227212566882,1361.6227212566882,1361.6227212566882,1361.6227212566882,1361.6227212566882,1361.6227212566882,left,None,3.47359187528491,,,,,,,,,,,,,student1,2022-10-25_09h32.59.613,Hippopolis_Learning,2022.2.2,60.02819073884674,
Hippopolis,stimuli/subj_files/student1_cityA.csv,./stimuli/frankfurt.jpg,./stimuli/street_plate1.png,KÖNYVTÁR UTCA,stimuli/objects/113a.jpg,object,1,stimuli/objects/109a.jpg,stimuli/objects/109a.jpg,stimuli/objects/109b.jpg,stimuli/scenes/067a.jpg,stimuli/scenes/067b.jpg,target,lure,dist1,dist2,0,0,0,0,,,,,0,48,48,42,,,,,,,1370.1487624440342,,,,,,1371.1589074712247,,,,,,,,1366.1570958588272,1366.1570958588272,1366.1570958588272,1366.1570958588272,1366.1570958588272,1366.1570958588272,None,None,,,,,,,,,,,,,,student1,2022-10-25_09h32.59.613,Hippopolis_Learning,2022.2.2,60.02819073884674,
Hippopolis,stimuli/subj_files/student1_cityA.csv,./stimuli/frankfurt.jpg,./stimuli/street_plate1.png,VÖDÖR UTCA,stimuli/scenes/055a.jpg,scene,1,stimuli/scenes/088a.jpg,stimuli/scenes/088b.jpg,stimuli/scenes/088a.jpg,stimuli/scenes/087b.jpg,stimuli/scenes/087a.jpg,lure,target,dist2,dist1,0,0,0,0,,,,,0,49,49,56,,,,,,,1375.165541548282,,,,,,,,,,,,,,1371.1589074712247,1371.1589074712247,1371.1589074712247,1371.1589074712247,1371.1589074712247,1371.1589074712247,None,None,,,,,,,,,,,,,,student1,2022-10-25_09h32.59.613,Hippopolis_Learning,2022.2.2,60.02819073884674,
Hippopolis,stimuli/subj_files/student1_cityA.csv,./stimuli/frankfurt.jpg,./stimuli/street_plate1.png,PÉKSÉG UTCA,stimuli/scenes/073a.jpg,scene,2,stimuli/objects/059a.jpg,stimuli/objects/059a.jpg,stimuli/objects/046b.jpg,stimuli/objects/059b.jpg,stimuli/objects/046a.jpg,target,dist2,lure,dist1,0,0,0,0,,,,,0,50,50,61,,,,,,,1379.5226397104561,,,,,,,,,,,,,,1376.1956460345536,1376.1956460345536,1376.1956460345536,1376.1956460345536,1376.1956460345536,1376.1956460345536,left,None,3.284919848665595,,,,,,,,,,,,,student1,2022-10-25_09h32.59.613,Hippopolis_Learning,2022.2.2,60.02819073884674,
Hippopolis,stimuli/subj_files/student1_cityA.csv,./stimuli/frankfurt.jpg,./stimuli/street_plate1.png,TERASZ UTCA,stimuli/objects/063a.jpg,object,2,stimuli/scenes/104a.jpg,stimuli/scenes/104a.jpg,stimuli/scenes/056a.jpg,stimuli/scenes/104b.jpg,stimuli/scenes/056b.jpg,target,dist1,lure,dist2,0,0,0,0,,,,,0,51,51,48,,,,,,,1384.531872868538,,,,,,,,,,,,,,1380.5341662298888,1380.5341662298888,1380.5341662298888,1380.5341662298888,1380.5341662298888,1380.5341662298888,None,None,,,,,,,,,,,,,,student1,2022-10-25_09h32.59.613,Hippopolis_Learning,2022.2.2,60.02819073884674,
Hippopolis,stimuli/subj_files/student1_cityA.csv,./stimuli/frankfurt.jpg,./stimuli/street_plate1.png,KULLANCS UTCA,stimuli/objects/089a.jpg,object,0,stimuli/objects/089a.jpg,stimuli/scenes/072a.jpg,stimuli/objects/089a.jpg,stimuli/scenes/072b.jpg,stimuli/objects/089b.jpg,dist1,target,dist2,lure,0,0,0,0,,,,,0,52,52,34,,,,,,,1389.5484759435058,,,,,,,,,,,,,,1385.5625959448516,1385.5625959448516,1385.5625959448516,1385.5625959448516,1385.5625959448516,1385.5625959448516,None,None,,,,,,,,,,,,,,student1,2022-10-25_09h32.59.613,Hippopolis_Learning,2022.2.2,60.02819073884674,
Hippopolis,stimuli/subj_files/student1_cityA.csv,./stimuli/frankfurt.jpg,./stimuli/street_plate1.png,MUSTÁR UTCA,stimuli/scenes/050a.jpg,scene,0,stimuli/scenes/050a.jpg,stimuli/objects/009a.jpg,stimuli/objects/009b.jpg,stimuli/scenes/050a.jpg,stimuli/scenes/050b.jpg,dist1,dist2,target,lure,0,0,0,0,,,,,0,53,53,78,,,,,,,1394.4177587144077,,,,,,,,,,,,,,1390.571838432923,1390.571838432923,1390.571838432923,1390.571838432923,1390.571838432923,1390.571838432923,left,None,3.819944454357028,,,,,,,,,,,,,student1,2022-10-25_09h32.59.613,Hippopolis_Learning,2022.2.2,60.02819073884674,
Hippopolis,stimuli/subj_files/student1_cityA.csv,./stimuli/frankfurt.jpg,./stimuli/street_plate1.png,MÁLNA UTCA,stimuli/objects/069a.jpg,object,2,stimuli/scenes/053a.jpg,stimuli/objects/073a.jpg,stimuli/objects/073b.jpg,stimuli/scenes/053b.jpg,stimuli/scenes/053a.jpg,dist1,dist2,lure,target,0,0,0,0,,,,,0,54,54,14,,,,,,,1396.8710890952498,,,,,,,,,,,,,,1395.43924645707,1395.43924645707,1395.43924645707,1395.43924645707,1395.43924645707,1395.43924645707,right,None,1.4014091566205025,,,,,,,,,,,,,student1,2022-10-25_09h32.59.613,Hippopolis_Learning,2022.2.2,60.02819073884674,
Hippopolis,stimuli/subj_files/student1_cityA.csv,./stimuli/frankfurt.jpg,./stimuli/street_plate1.png,LÁNDZSA UTCA,stimuli/scenes/090a.jpg,scene,0,stimuli/scenes/090a.jpg,stimuli/scenes/090a.jpg,stimuli/objects/091b.jpg,stimuli/scenes/090b.jpg,stimuli/objects/091a.jpg,target,dist2,lure,dist1,0,0,0,0,,,,,0,55,55,39,,,,,,,1401.8828790355474,,,,,,,,,,,,,,1397.8948947675526,1397.8948947675526,1397.8948947675526,1397.8948947675526,1397.8948947675526,1397.8948947675526,None,None,,,,,,,,,,,,,,student1,2022-10-25_09h32.59.613,Hippopolis_Learning,2022.2.2,60.02819073884674,
Hippopolis,stimuli/subj_files/student1_cityA.csv,./stimuli/frankfurt.jpg,./stimuli/street_plate1.png,HORDÓ UTCA,stimuli/scenes/095a.jpg,scene,0,stimuli/scenes/095a.jpg,stimuli/scenes/095a.jpg,stimuli/scenes/046a.jpg,stimuli/scenes/095b.jpg,stimuli/scenes/046b.jpg,target,dist1,lure,dist2,0,0,0,0,,,,,0,56,56,27,,,,,,,1404.0324528943747,,,,,,,,,,,,,,1402.9021636098623,1402.9021636098623,1402.9021636098623,1402.9021636098623,1402.9021636098623,1402.9021636098623,left,None,1.1058569848537445,,,,,,,,,,,,,student1,2022-10-25_09h32.59.613,Hippopolis_Learning,2022.2.2,60.02819073884674,
Hippopolis,stimuli/subj_files/student1_cityA.csv,./stimuli/frankfurt.jpg,./stimuli/street_plate1.png,TALICSKA UTCA,stimuli/objects/014a.jpg,object,1,stimuli/objects/108a.jpg,stimuli/objects/109a.jpg,stimuli/objects/109b.jpg,stimuli/objects/108a.jpg,stimuli/objects/108b.jpg,dist1,dist2,target,lure,0,0,0,0,,,,,0,57,57,13,,,,,,,1406.5652211494744,,,,,,1407.580034384504,,,,,,,,1405.0547480098903,1405.0547480098903,1405.0547480098903,1405.0547480098903,1405.0547480098903,1405.0547480098903,left,None,1.4815393332391977,,,,,,,,,,,,,student1,2022-10-25_09h32.59.613,Hippopolis_Learning,2022.2.2,60.02819073884674,
Hippopolis,stimuli/subj_files/student1_cityA.csv,./stimuli/frankfurt.jpg,./stimuli/street_plate1.png,PULÓVER UTCA,stimuli/objects/114a.jpg,object,0,stimuli/objects/114a.jpg,stimuli/scenes/050b.jpg,stimuli/scenes/050a.jpg,stimuli/objects/114b.jpg,stimuli/objects/114a.jpg,dist2,dist1,lure,target,0,0,0,0,,,,,0,58,58,43,,,,,,,1409.8820169270039,,,,,,1410.8932498544455,,,,,,,,1407.580034384504,1407.580034384504,1407.580034384504,1407.580034384504,1407.580034384504,1407.580034384504,left,None,2.267629759386182,,,,,,,,,,,,,student1,2022-10-25_09h32.59.613,Hippopolis_Learning,2022.2.2,60.02819073884674,
Hippopolis,stimuli/subj_files/student1_cityA.csv,./stimuli/frankfurt.jpg,./stimuli/street_plate1.png,HAJÓ UTCA,stimuli/objects/086a.jpg,object,1,stimuli/objects/041a.jpg,stimuli/scenes/014a.jpg,stimuli/scenes/014b.jpg,stimuli/objects/041a.jpg,stimuli/objects/041b.jpg,dist1,dist2,target,lure,0,0,0,0,,,,,0,59,59,71,,,,,,,1414.9034340698272,,,,,,,,,,,,,,1410.8932498544455,1410.8932498544455,1410.8932498544455,1410.8932498544455,1410.8932498544455,1410.8932498544455,None,None,,,,,,,,,,,,,,student1,2022-10-25_09h32.59.613,Hippopolis_Learning,2022.2.2,60.02819073884674,
Hippopolis,stimuli/subj_files/student1_cityA.csv,./stimuli/frankfurt.jpg,./stimuli/street_plate1.png,KORONA UTCA,stimuli/scenes/108a.jpg,scene,1,stimuli/scenes/011a.jpg,stimuli/objects/076a.jpg,stimuli/scenes/011b.jpg,stimuli/objects/076b.jpg,stimuli/scenes/011a.jpg,dist1,lure,dist2,target,0,0,0,0,,,,,0,60,60,9,,,,,,,1419.9149083402008,,,,,,,,,,,,,,1415.9221420381218,1415.9221420381218,1415.9221420381218,1415.9221420381218,1415.9221420381218,1415.9221420381218,None,None,,,,,,,,,,,,,,student1,2022-10-25_09h32.59.613,Hippopolis_Learning,2022.2.2,60.02819073884674,
Hippopolis,stimuli/subj_files/student1_cityA.csv,./stimuli/frankfurt.jpg,./stimuli/street_plate1.png,KOCKA UTCA,stimuli/objects/062a.jpg,object,0,stimuli/objects/062a.jpg,stimuli/scenes/095b.jpg,stimuli/objects/062a.jpg,stimuli/objects/062b.jpg,stimuli/scenes/095a.jpg,dist2,target,lure,dist1,0,0,0,0,,,,,0,61,61,35,,,,,,,1424.3716952465475,,,,,,,,,,,,,,1420.9385432712734,1420.9385432712734,1420.9385432712734,1420.9385432712734,1420.9385432712734,1420.9385432712734,left,None,3.389588115736842,,,,,,,,,,,,,student1,2022-10-25_09h32.59.613,Hippopolis_Learning,2022.2.2,60.02819073884674,
Hippopolis,stimuli/subj_files/student1_cityA.csv,./stimuli/frankfurt.jpg,./stimuli/street_plate1.png,OLDAL UTCA,stimuli/scenes/093a.jpg,scene,2,stimuli/objects/107a.jpg,stimuli/objects/107b.jpg,stimuli/objects/022a.jpg,stimuli/objects/107a.jpg,stimuli/objects/022b.jpg,lure,dist1,target,dist2,0,0,0,0,,,,,0,62,62,11,,,,,,,1429.3827987965196,,,,,,,,,,,,,,1425.3832774348557,1425.3832774348557,1425.3832774348557,1425.3832774348557,1425.3832774348557,1425.3832774348557,None,None,,,,,,,,,,,,,,student1,2022-10-25_09h32.59.613,Hippopolis_Learning,2022.2.2,60.02819073884674,
Hippopolis,stimuli/subj_files/student1_cityA.csv,./stimuli/frankfurt.jpg,./stimuli/street_plate1.png,PIZSAMA UTCA,stimuli/scenes/060a.jpg,scene,2,stimuli/objects/006a.jpg,stimuli/scenes/007b.jpg,stimuli/scenes/007a.jpg,stimuli/objects/006b.jpg,stimuli/objects/006a.jpg,dist2,dist1,lure,target,0,0,0,0,,,,,0,63,63,79,,,,,,,1433.21377241984,,,,,,,,,,,,,,1430.4106711894274,1430.4106711894274,1430.4106711894274,1430.4106711894274,1430.4106711894274,1430.4106711894274,right,None,2.7657761611044407,,,,,,,,,,,,,student1,2022-10-25_09h32.59.613,Hippopolis_Learning,2022.2.2,60.02819073884674,
Hippopolis,stimuli/subj_files/student1_cityA.csv,./stimuli/frankfurt.jpg,./stimuli/street_plate1.png,TOBOZ UTCA,stimuli/objects/001a.jpg,object,2,stimuli/scenes/059a.jpg,stimuli/scenes/059a.jpg,stimuli/objects/085a.jpg,stimuli/objects/085b.jpg,stimuli/scenes/059b.jpg,target,dist1,dist2,lure,0,0,0,0,,,,,0,64,64,40,,,,,,,1438.2325332593173,,,,,,,,,,,,,,1434.2415042389184,1434.2415042389184,1434.2415042389184,1434.2415042389184,1434.2415042389184,1434.2415042389184,None,None,,,,,,,,,,,,,,student1,2022-10-25_09h32.59.613,Hippopolis_Learning,2022.2.2,60.02819073884674,
Hippopolis,stimuli/subj_files/student1_cityA.csv,./stimuli/frankfurt.jpg,./stimuli/street_plate1.png,TOJÁS UTCA,stimuli/objects/021a.jpg,object,2,stimuli/scenes/034a.jpg,stimuli/scenes/034a.jpg,stimuli/objects/059a.jpg,stimuli/objects/059b.jpg,stimuli/scenes/034b.jpg,target,dist1,dist2,lure,0,0,0,0,,,,,0,65,65,37,,,,,,,1441.186337923631,,,,,,,,,,,,,,1439.2439092509449,1439.2439092509449,1439.2439092509449,1439.2439092509449,1439.2439092509449,1439.2439092509449,left,None,1.8992694336920977,,,,,,,,,,,,,student1,2022-10-25_09h32.59.613,Hippopolis_Learning,2022.2.2,60.02819073884674,
Hippopolis,stimuli/subj_files/student1_cityA.csv,./stimuli/frankfurt.jpg,./stimuli/street_plate1.png,CITROM UTCA,stimuli/scenes/036a.jpg,scene,2,stimuli/objects/043a.jpg,stimuli/objects/043b.jpg,stimuli/objects/067a.jpg,stimuli/objects/043a.jpg,stimuli/objects/067b.jpg,lure,dist1,target,dist2,0,0,0,0,,,,,0,66,66,26,,,,,,,1446.1972411870956,,,,,,1447.2160884849727,,,,,,,,1442.1959890741855,1442.1959890741855,1442.1959890741855,1442.1959890741855,1442.1959890741855,1442.1959890741855,None,None,,,,,,,,,,,,,,student1,2022-10-25_09h32.59.613,Hippopolis_Learning,2022.2.2,60.02819073884674,
Hippopolis,stimuli/subj_files/student1_cityA.csv,./stimuli/frankfurt.jpg,./stimuli/street_plate1.png,ÁRNYÉK UTCA,stimuli/objects/020a.jpg,object,1,stimuli/objects/027a.jpg,stimuli/scenes/004a.jpg,stimuli/objects/027b.jpg,stimuli/objects/027a.jpg,stimuli/scenes/004b.jpg,dist1,lure,target,dist2,0,0,0,0,,,,,0,67,67,52,,,,,,,1451.2144547682256,,,,,,1452.2336395084858,,,,,,,,1447.2160884849727,1447.2160884849727,1447.2160884849727,1447.2160884849727,1447.2160884849727,1447.2160884849727,None,None,,,,,,,,,,,,,,student1,2022-10-25_09h32.59.613,Hippopolis_Learning,2022.2.2,60.02819073884674,
Hippopolis,stimuli/subj_files/student1_cityA.csv,./stimuli/frankfurt.jpg,./stimuli/street_plate1.png,PAPUCS UTCA,stimuli/scenes/051a.jpg,scene,0,stimuli/scenes/051a.jpg,stimuli/scenes/051b.jpg,stimuli/scenes/051a.jpg,stimuli/scenes/090a.jpg,stimuli/scenes/090b.jpg,lure,target,dist1,dist2,0,0,0,0,,,,,0,68,68,68,,,,,,,1454.9698289595544,,,,,,,,,,,,,,1452.2336395084858,1452.2336395084858,1452.2336395084858,1452.2336395084858,1452.2336395084858,1452.2336395084858,left,None,2.702067743986845,,,,,,,,,,,,,student1,2022-10-25_09h32.59.613,Hippopolis_Learning,2022.2.2,60.02819073884674,
Hippopolis,stimuli/subj_files/student1_cityA.csv,./stimuli/frankfurt.jpg,./stimuli/street_plate1.png,KERET UTCA,stimuli/scenes/027a.jpg,scene,0,stimuli/scenes/027a.jpg,stimuli/objects/100a.jpg,stimuli/objects/100b.jpg,stimuli/scenes/027a.jpg,stimuli/scenes/027b.jpg,dist1,dist2,target,lure,0,0,0,0,,,,,0,69,69,3,,,,,,,1459.9821622278541,,,,,,,,,,,,,,1455.98056801036,1455.98056801036,1455.98056801036,1455.98056801036,1455.98056801036,1455.98056801036,None,None,,,,,,,,,,,,,,student1,2022-10-25_09h32.59.613,Hippopolis_Learning,2022.2.2,60.02819073884674,
Hippopolis,stimuli/subj_files/student1_cityA.csv,./stimuli/frankfurt.jpg,./stimuli/street_plate1.png,MOTOR UTCA,stimuli/objects/097a.jpg,object,1,stimuli/objects/071a.jpg,stimuli/objects/015b.jpg,stimuli/objects/071b.jpg,stimuli/objects/071a.jpg,stimuli/objects/015a.jpg,dist2,lure,target,dist1,0,0,0,0,,,,,0,70,70,36,,,,,,,1464.996931610629,,,,,,,,,,,,,,1460.9936134833843,1460.9936134833843,1460.9936134833843,1460.9936134833843,1460.9936134833843,1460.9936134833843,None,None,,,,,,,,,,,,,,student1,2022-10-25_09h32.59.613,Hippopolis_Learning,2022.2.2,60.02819073884674,
Hippopolis,stimuli/subj_files/student1_cityA.csv,./stimuli/frankfurt.jpg,./stimuli/street_plate1.png,KOKTÉL UTCA,stimuli/scenes/008a.jpg,scene,2,stimuli/objects/012a.jpg,stimuli/objects/036b.jpg,stimuli/objects/012b.jpg,stimuli/objects/036a.jpg,stimuli/objects/012a.jpg,dist2,lure,dist1,target,0,0,0,0,,,,,0,71,71,46,,,,,,,1467.0988791957498,,,,,,,,,,,,,,1466.0152604617178,1466.0152604617178,1466.0152604617178,1466.0152604617178,1466.0152604617178,1466.0152604617178,left,None,1.0485867131501436,,,,,,,,,,,,,student1,2022-10-25_09h32.59.613,Hippopolis_Learning,2022.2.2,60.02819073884674,
Hippopolis,stimuli/subj_files/student1_cityA.csv,./stimuli/frankfurt.jpg,./stimuli/street_plate1.png,OROSZLÁN UTCA,stimuli/scenes/072a.jpg,scene,0,stimuli/scenes/072a.jpg,stimuli/scenes/072a.jpg,stimuli/scenes/072b.jpg,stimuli/scenes/027b.jpg,stimuli/scenes/027a.jpg,target,lure,dist2,dist1,0,0,0,0,,,,,0,72,72,66,,,,,,,1469.887464825064,,,,,,,,,,,,,,1468.127303313464,1468.127303313464,1468.127303313464,1468.127303313464,1468.127303313464,1468.127303313464,left,None,1.7037991173565388,,,,,,,,,,,,,student1,2022-10-25_09h32.59.613,Hippopolis_Learning,2022.2.2,60.02819073884674,
Hippopolis,stimuli/subj_files/student1_cityA.csv,./stimuli/frankfurt.jpg,./stimuli/street_plate1.png,CSILLAG UTCA,stimuli/scenes/083a.jpg,scene,1,stimuli/scenes/117a.jpg,stimuli/scenes/117a.jpg,stimuli/scenes/117b.jpg,stimuli/objects/041a.jpg,stimuli/objects/041b.jpg,target,lure,dist1,dist2,0,0,0,0,,,,,0,73,73,15,,,,,,,1474.2015999406576,,,,,,,,,,,,,,1470.8999787885696,1470.8999787885696,1470.8999787885696,1470.8999787885696,1470.8999787885696,1470.8999787885696,left,None,3.2677134200930595,,,,,,,,,,,,,student1,2022-10-25_09h32.59.613,Hippopolis_Learning,2022.2.2,60.02819073884674,
Hippopolis,stimuli/subj_files/student1_cityA.csv,./stimuli/frankfurt.jpg,./stimuli/street_plate1.png,TRIATLON UTCA,stimuli/objects/024a.jpg,object,0,stimuli/objects/024a.jpg,stimuli/objects/024b.jpg,stimuli/objects/080a.jpg,stimuli/objects/024a.jpg,stimuli/objects/080b.jpg,lure,dist1,target,dist2,0,0,0,0,,,,,0,74,74,2,,,,,,,1476.9814534448087,,,,,,,,,,,,,,1475.2245018295944,1475.2245018295944,1475.2245018295944,1475.2245018295944,1475.2245018295944,1475.2245018295944,left,None,1.7263931091874838,,,,,,,,,,,,,student1,2022-10-25_09h32.59.613,Hippopolis_Learning,2022.2.2,60.02819073884674,
Hippopolis,stimuli/subj_files/student1_cityA.csv,./stimuli/frankfurt.jpg,./stimuli/street_plate1.png,KECSKE UTCA,stimuli/scenes/085a.jpg,scene,2,stimuli/objects/022a.jpg,stimuli/objects/022b.jpg,stimuli/objects/022a.jpg,stimuli/scenes/053a.jpg,stimuli/scenes/053b.jpg,lure,target,dist1,dist2,0,0,0,0,,,,,0,75,75,6,,,,,,,1480.048569245264,,,,,,1481.0674146786332,,,,,,,,1478.0104463938624,1478.0104463938624,1478.0104463938624,1478.0104463938624,1478.0104463938624,1478.0104463938624,left,None,2.013272248208523,,,,,,,,,,,,,student1,2022-10-25_09h32.59.613,Hippopolis_Learning,2022.2.2,60.02819073884674,
Hippopolis,stimuli/subj_files/student1_cityA.csv,./stimuli/frankfurt.jpg,./stimuli/street_plate1.png,BAGOLY UTCA,stimuli/scenes/029a.jpg,scene,2,stimuli/objects/028a.jpg,stimuli/objects/028b.jpg,stimuli/objects/028a.jpg,stimuli/scenes/028a.jpg,stimuli/scenes/028b.jpg,lure,target,dist1,dist2,0,0,0,0,,,,,0,76,76,21,,,,,,,1482.4499970134348,,,,,,,,,,,,,,1481.0674146786332,1481.0674146786332,1481.0674146786332,1481.0674146786332,1481.0674146786332,1481.0674146786332,left,None,1.355971435084939,,,,,,,,,,,,,student1,2022-10-25_09h32.59.613,Hippopolis_Learning,2022.2.2,60.02819073884674,
Hippopolis,stimuli/subj_files/student1_cityA.csv,./stimuli/frankfurt.jpg,./stimuli/street_plate1.png,AJÁNDÉK UTCA,stimuli/scenes/005a.jpg,scene,1,stimuli/scenes/009a.jpg,stimuli/scenes/078b.jpg,stimuli/scenes/078a.jpg,stimuli/scenes/009a.jpg,stimuli/scenes/009b.jpg,dist2,dist1,target,lure,0,0,0,0,,,,,0,77,77,28,,,,,,,1485.0814908277243,,,,,,,,,,,,,,1483.4712941106409,1483.4712941106409,1483.4712941106409,1483.4712941106409,1483.4712941106409,1483.4712941106409,left,None,1.5757860876619816,,,,,,,,,,,,,student1,2022-10-25_09h32.59.613,Hippopolis_Learning,2022.2.2,60.02819073884674,
Hippopolis,stimuli/subj_files/student1_cityA.csv,./stimuli/frankfurt.jpg,./stimuli/street_plate1.png,NARANCS UTCA,stimuli/objects/017a.jpg,object,1,stimuli/objects/075a.jpg,stimuli/objects/075a.jpg,stimuli/scenes/041b.jpg,stimuli/scenes/041a.jpg,stimuli/objects/075b.jpg,target,dist2,dist1,lure,0,0,0,0,,,,,0,78,78,76,,,,,,,1488.9881736710668,,,,,,,,,,,,,,1486.1049304455519,1486.1049304455519,1486.1049304455519,1486.1049304455519,1486.1049304455519,1486.1049304455519,left,None,2.846152963116765,,,,,,,,,,,,,student1,2022-10-25_09h32.59.613,Hippopolis_Learning,2022.2.2,60.02819073884674,
Hippopolis,stimuli/subj_files/student1_cityA.csv,./stimuli/frankfurt.jpg,./stimuli/street_plate1.png,MOCSÁR UTCA,stimuli/objects/080a.jpg,object,0,stimuli/objects/080a.jpg,stimuli/objects/080b.jpg,stimuli/objects/080a.jpg,stimuli/scenes/043b.jpg,stimuli/scenes/043a.jpg,lure,target,dist2,dist1,0,0,0,0,,,,,0,79,79,17,,,,,,,1491.998201450333,,,,,,,,,,,,,,1489.9986231736839,1489.9986231736839,1489.9986231736839,1489.9986231736839,1489.9986231736839,1489.9986231736839,left,None,1.9599747713655233,,,,,,,,,,,,,student1,2022-10-25_09h32.59.613,Hippopolis_Learning,2022.2.2,60.02819073884674,
Camponello,stimuli/subj_files/student1_cityB.csv,./stimuli/leipzig.jpg,./stimuli/street_plate2.png,MENTA UTCA,stimuli/objects/092a.jpg,object,0,stimuli/objects/092a.jpg,stimuli/scenes/069a.jpg,stimuli/scenes/069b.jpg,stimuli/objects/092a.jpg,stimuli/objects/092b.jpg,dist1,dist2,target,lure,0,1,1,1,0,0,0,67,,,,,,,,,1551.6146705448627,1551.6146705448627,1554.6167132351547,1555.618836786598,1555.618836786598,1555.618836786598,1555.618836786598,None,,,,,,,,,,,,,,,,,,,,,,,,6,1493.0089246388525,1493.0089246388525,space,58.53345656208694,,student1,2022-10-25_09h32.59.613,Hippopolis_Learning,2022.2.2,60.02819073884674,
Camponello,stimuli/subj_files/student1_cityB.csv,./stimuli/leipzig.jpg,./stimuli/street_plate2.png,TERÍTŐ UTCA,stimuli/objects/098a.jpg,object,1,stimuli/objects/096a.jpg,stimuli/objects/096b.jpg,stimuli/objects/096a.jpg,stimuli/objects/013b.jpg,stimuli/objects/013a.jpg,lure,target,dist2,dist1,0,1,1,1,0,1,1,39,,,,,,,,,,,1558.5764270219952,1559.5954534597695,1559.5954534597695,1559.5954534597695,1559.5954534597695,None,1559.5954534597695,,,,,,,,,,,,,,,,,,,,,,,,,,,,,student1,2022-10-25_09h32.59.613,Hippopolis_Learning,2022.2.2,60.02819073884674,
Camponello,stimuli/subj_files/student1_cityB.csv,./stimuli/leipzig.jpg,./stimuli/street_plate2.png,TOLMÁCS UTCA,stimuli/scenes/082a.jpg,scene,0,stimuli/scenes/082a.jpg,stimuli/scenes/082b.jpg,stimuli/objects/081b.jpg,stimuli/objects/081a.jpg,stimuli/scenes/082a.jpg,lure,dist2,dist1,target,0,1,1,1,0,2,2,2,,,,,,,,,,,1562.5763159915805,1563.6088584568352,1563.6088584568352,1563.6088584568352,1563.6088584568352,None,1563.6088584568352,,,,,,,,,,,,,,,,,,,,,,,,,,,,,student1,2022-10-25_09h32.59.613,Hippopolis_Learning,2022.2.2,60.02819073884674,
Camponello,stimuli/subj_files/student1_cityB.csv,./stimuli/leipzig.jpg,./stimuli/street_plate2.png,BOHÓC UTCA,stimuli/objects/064a.jpg,object,0,stimuli/objects/064a.jpg,stimuli/objects/040b.jpg,stimuli/objects/040a.jpg,stimuli/objects/064a.jpg,stimuli/objects/064b.jpg,dist2,dist1,target,lure,0,1,1,1,0,3,3,17,,,,,,,,,,,1566.5860691536218,1567.6210794541985,1567.6210794541985,1567.6210794541985,1567.6210794541985,None,,,,,,,,,,,,,,,,,,,,,,,,,,,,,,student1,2022-10-25_09h32.59.613,Hippopolis_Learning,2022.2.2,60.02819073884674,
Camponello,stimuli/subj_files/student1_cityB.csv,./stimuli/leipzig.jpg,./stimuli/street_plate2.png,ZEBRA UTCA,stimuli/scenes/106a.jpg,scene,0,stimuli/scenes/106a.jpg,stimuli/scenes/030a.jpg,stimuli/scenes/106a.jpg,stimuli/scenes/106b.jpg,stimuli/scenes/030b.jpg,dist1,target,lure,dist2,0,1,1,1,0,4,4,12,,,,,,,,,,,1570.5913553275168,1571.6283336766064,1571.6283336766064,1571.6283336766064,1571.6283336766064,None,1571.6283336766064,,,,,,,,,,,,,,,,,,,,,,,,,,,,,student1,2022-10-25_09h32.59.613,Hippopolis_Learning,2022.2.2,60.02819073884674,
Camponello,stimuli/subj_files/student1_cityB.csv,./stimuli/leipzig.jpg,./stimuli/street_plate2.png,MOSODA UTCA,stimuli/objects/052a.jpg,object,0,stimuli/objects/052a.jpg,stimuli/objects/052b.jpg,stimuli/scenes/035a.jpg,stimuli/objects/052a.jpg,stimuli/scenes/035b.jpg,lure,dist1,target,dist2,0,1,1,1,0,5,5,51,,,,,,,,,,,1574.6096571218222,1575.6718282327056,1575.6718282327056,1575.6718282327056,1575.6718282327056,None,,,,,,,,,,,,,,,,,,,,,,,,,,,,,,student1,2022-10-25_09h32.59.613,Hippopolis_Learning,2022.2.2,60.02819073884674,
Camponello,stimuli/subj_files/student1_cityB.csv,./stimuli/leipzig.jpg,./stimuli/street_plate2.png,SZALVÉTA UTCA,stimuli/objects/072a.jpg,object,0,stimuli/objects/072a.jpg,stimuli/scenes/045b.jpg,stimuli/scenes/045a.jpg,stimuli/objects/072b.jpg,stimuli/objects/072a.jpg,dist2,dist1,lure,target,0,1,1,1,0,6,6,54,,,,,,,,,,,1578.6178381443024,1579.6490821577609,1579.6490821577609,1579.6490821577609,1579.6490821577609,None,,,,,,,,,,,,,,,,,,,,,,,,,,,,,,student1,2022-10-25_09h32.59.613,Hippopolis_Learning,2022.2.2,60.02819073884674,
Camponello,stimuli/subj_files/student1_cityB.csv,./stimuli/leipzig.jpg,./stimuli/street_plate2.png,TELEFON UTCA,stimuli/scenes/017a.jpg,scene,0,stimuli/scenes/017a.jpg,stimuli/objects/094b.jpg,stimuli/scenes/017b.jpg,stimuli/scenes/017a.jpg,stimuli/objects/094a.jpg,dist2,lure,target,dist1,0,1,1,1,0,7,7,27,,,,,,,,,,,1582.6223878581077,1583.6494099590927,1583.6494099590927,1583.6494099590927,1583.6494099590927,None,,,,,,,,,,,,,,,,,,,,,,,,,,,,,,student1,2022-10-25_09h32.59.613,Hippopolis_Learning,2022.2.2,60.02819073884674,
Camponello,stimuli/subj_files/student1_cityB.csv,./stimuli/leipzig.jpg,./stimuli/street_plate2.png,KALAPÁCS UTCA,stimuli/scenes/049a.jpg,scene,0,stimuli/scenes/049a.jpg,stimuli/objects/112b.jpg,stimuli/scenes/049a.jpg,stimuli/objects/112a.jpg,stimuli/scenes/049b.jpg,dist2,target,dist1,lure,0,1,1,1,0,8,8,3,,,,,,,,,,,1586.6327362842858,1587.66518327035,1587.66518327035,1587.66518327035,1587.66518327035,None,,,,,,,,,,,,,,,,,,,,,,,,,,,,,,student1,2022-10-25_09h32.59.613,Hippopolis_Learning,2022.2.2,60.02819073884674,
Camponello,stimuli/subj_files/student1_cityB.csv,./stimuli/leipzig.jpg,./stimuli/street_plate2.png,BÚJÓCSKA UTCA,stimuli/scenes/015a.jpg,scene,1,stimuli/scenes/086a.jpg,stimuli/scenes/105b.jpg,stimuli/scenes/086a.jpg,stimuli/scenes/105a.jpg,stimuli/scenes/086b.jpg,dist2,target,dist1,lure,0,1,1,1,0,9,9,48,,,,,,,,,,,1590.6386901903898,1591.6725230198354,1591.6725230198354,1591.6725230198354,1591.6725230198354,None,,,,,,,,,,,,,,,,,,,,,,,,,,,,,,student1,2022-10-25_09h32.59.613,Hippopolis_Learning,2022.2.2,60.02819073884674,
Camponello,stimuli/subj_files/student1_cityB.csv,./stimuli/leipzig.jpg,./stimuli/street_plate2.png,PALACK UTCA,stimuli/scenes/033a.jpg,scene,1,stimuli/scenes/107a.jpg,stimuli/objects/119b.jpg,stimuli/scenes/107b.jpg,stimuli/objects/119a.jpg,stimuli/scenes/107a.jpg,dist2,lure,dist1,target,0,1,1,1,0,10,10,44,,,,,,,,,,,1594.6467704474926,1595.6826801784337,1595.6826801784337,1595.6826801784337,1595.6826801784337,None,,,,,,,,,,,,,,,,,,,,,,,,,,,,,,student1,2022-10-25_09h32.59.613,Hippopolis_Learning,2022.2.2,60.02819073884674,
Camponello,stimuli/subj_files/student1_cityB.csv,./stimuli/leipzig.jpg,./stimuli/street_plate2.png,HARCSA UTCA,stimuli/scenes/080a.jpg,scene,2,stimuli/objects/029a.jpg,stimuli/scenes/054b.jpg,stimuli/scenes/054a.jpg,stimuli/objects/029b.jpg,stimuli/objects/029a.jpg,dist2,dist1,lure,target,0,1,1,1,0,11,11,59,,,,,,,,,,,1598.651465088129,1599.713252728805,1599.713252728805,1599.713252728805,1599.713252728805,None,,,,,,,,,,,,,,,,,,,,,,,,,,,,,,student1,2022-10-25_09h32.59.613,Hippopolis_Learning,2022.2.2,60.02819073884674,
Camponello,stimuli/subj_files/student1_cityB.csv,./stimuli/leipzig.jpg,./stimuli/street_plate2.png,TENISZ UTCA,stimuli/objects/102a.jpg,object,0,stimuli/objects/102a.jpg,stimuli/objects/102b.jpg,stimuli/objects/102a.jpg,stimuli/scenes/038a.jpg,stimuli/scenes/038b.jpg,lure,target,dist1,dist2,0,1,1,1,0,12,12,75,,,,,,,,,,,1602.6571602374315,1603.7007723525167,1603.7007723525167,1603.7007723525167,1603.7007723525167,None,,,,,,,,,,,,,,,,,,,,,,,,,,,,,,student1,2022-10-25_09h32.59.613,Hippopolis_Learning,2022.2.2,60.02819073884674,
Camponello,stimuli/subj_files/student1_cityB.csv,./stimuli/leipzig.jpg,./stimuli/street_plate2.png,PÁRNA UTCA,stimuli/objects/112a.jpg,object,0,stimuli/objects/112a.jpg,stimuli/objects/112b.jpg,stimuli/scenes/032b.jpg,stimuli/scenes/032a.jpg,stimuli/objects/112a.jpg,lure,dist2,dist1,target,0,1,1,1,0,13,13,77,,,,,,,,,,,1606.6716801933944,1607.717349305749,1607.717349305749,1607.717349305749,1607.717349305749,None,,,,,,,,,,,,,,,,,,,,,,,,,,,,,,student1,2022-10-25_09h32.59.613,Hippopolis_Learning,2022.2.2,60.02819073884674,
Camponello,stimuli/subj_files/student1_cityB.csv,./stimuli/leipzig.jpg,./stimuli/street_plate2.png,KANÁL UTCA,stimuli/scenes/057a.jpg,scene,1,stimuli/scenes/020a.jpg,stimuli/scenes/020b.jpg,stimuli/scenes/020a.jpg,stimuli/scenes/062a.jpg,stimuli/scenes/062b.jpg,lure,target,dist1,dist2,0,1,1,1,0,14,14,14,,,,,,,,,,,1610.688562553376,1611.7166909035295,1611.7166909035295,1611.7166909035295,1611.7166909035295,None,,,,,,,,,,,,,,,,,,,,,,,,,,,,,,student1,2022-10-25_09h32.59.613,Hippopolis_Learning,2022.2.2,60.02819073884674,
Camponello,stimuli/subj_files/student1_cityB.csv,./stimuli/leipzig.jpg,./stimuli/street_plate2.png,LOVAGLÁS UTCA,stimuli/objects/019a.jpg,object,0,stimuli/objects/019a.jpg,stimuli/objects/019b.jpg,stimuli/objects/019a.jpg,stimuli/scenes/017b.jpg,stimuli/scenes/017a.jpg,lure,target,dist2,dist1,0,1,1,1,0,15,15,53,,,,,,,,,,,1614.6963591724634,1615.748611357063,1615.748611357063,1615.748611357063,1615.748611357063,None,,,,,,,,,,,,,,,,,,,,,,,,,,,,,,student1,2022-10-25_09h32.59.613,Hippopolis_Learning,2022.2.2,60.02819073884674,
Camponello,stimuli/subj_files/student1_cityB.csv,./stimuli/leipzig.jpg,./stimuli/street_plate2.png,LEMEZ UTCA,stimuli/scenes/022a.jpg,scene,0,stimuli/scenes/022a.jpg,stimuli/scenes/077b.jpg,stimuli/scenes/022a.jpg,stimuli/scenes/022b.jpg,stimuli/scenes/077a.jpg,dist2,target,lure,dist1,0,1,1,1,0,16,16,13,,,,,,,,,,,1618.7066653016955,1619.7509137373418,1619.7509137373418,1619.7509137373418,1619.7509137373418,None,,,,,,,,,,,,,,,,,,,,,,,,,,,,,,student1,2022-10-25_09h32.59.613,Hippopolis_Learning,2022.2.2,60.02819073884674,
