CityName,StimuliFile,CityImage,StreetSign,Cue,Image,Category,Novelty,UpdateImage,TestImage1,TestImage2,TestImage3,TestImage4,TestImage1Type,TestImage2Type,TestImage3Type,TestImage4Type,CityBlock.thisRepN,CityBlock.thisTrialN,CityBlock.thisN,CityBlock.thisIndex,LearningTrials.thisRepN,LearningTrials.thisTrialN,LearningTrials.thisN,LearningTrials.thisIndex,learning_instructions_text.started,intro_key.started,intro_key.keys,intro_key.rt,cityname_text.started,city_image.started,fx_cross.started,plate.started,city_text.started,street_text.started,fx_cross_prediction.started,plate_updating.started,city_text_updating.started,street_text_updating.started,updating_image.started,short_break_key.keys,fx_cross.stopped,short_break_text.started,short_break_key.started,short_break_key.rt,break_text.started,break_key_resp.started,break_key_resp.keys,break_key_resp.rt,end_text.started,end_text.stopped,participant,date,expName,psychopyVersion,frameRate,
,,,,,,,,,,,,,,,,,,,,,,,,,19.942598482593894,19.942598482593894,space,14.991771653294563,,,,,,,,,,,,,,,,,,,,,,,student1,2022-10-25_15h55.15.024,Hippopolis_Updating,2022.2.2,59.99794773326782,
Hippopolis,stimuli/subj_files/student1_cityA.csv,./stimuli/frankfurt.jpg,./stimuli/street_plate1.png,OLDAL UTCA,stimuli/scenes/093a.jpg,scene,2,stimuli/objects/107a.jpg,stimuli/objects/107b.jpg,stimuli/objects/022a.jpg,stimuli/objects/107a.jpg,stimuli/objects/022b.jpg,lure,dist1,target,dist2,0,0,0,0,0,0,0,11,,,,,35.020432498306036,35.020432498306036,37.99171230196953,39.00025626830757,39.00025626830757,39.00025626830757,39.00025626830757,42.00406516343355,42.00406516343355,42.00406516343355,42.00406516343355,None,,,,,,,,,,,student1,2022-10-25_15h55.15.024,Hippopolis_Updating,2022.2.2,59.99794773326782,
Hippopolis,stimuli/subj_files/student1_cityA.csv,./stimuli/frankfurt.jpg,./stimuli/street_plate1.png,KÖNYVTÁR UTCA,stimuli/objects/113a.jpg,object,1,stimuli/objects/109a.jpg,stimuli/objects/109a.jpg,stimuli/objects/109b.jpg,stimuli/scenes/067a.jpg,stimuli/scenes/067b.jpg,target,lure,dist1,dist2,0,0,0,0,0,1,1,42,,,,,,,43.96430952847004,44.98891137726605,44.98891137726605,44.98891137726605,44.98891137726605,48.01707798242569,48.01707798242569,48.01707798242569,48.01707798242569,None,,,,,,,,,,,student1,2022-10-25_15h55.15.024,Hippopolis_Updating,2022.2.2,59.99794773326782,
Hippopolis,stimuli/subj_files/student1_cityA.csv,./stimuli/frankfurt.jpg,./stimuli/street_plate1.png,HERNYÓ UTCA,stimuli/scenes/066a.jpg,scene,1,stimuli/scenes/037a.jpg,stimuli/scenes/037a.jpg,stimuli/objects/045b.jpg,stimuli/scenes/037b.jpg,stimuli/objects/045a.jpg,target,dist2,lure,dist1,0,0,0,0,0,2,2,5,,,,,,,49.9745730496943,51.00556234829128,51.00556234829128,51.00556234829128,51.00556234829128,54.0343195553869,54.0343195553869,54.0343195553869,54.0343195553869,None,,,,,,,,,,,student1,2022-10-25_15h55.15.024,Hippopolis_Updating,2022.2.2,59.99794773326782,
Hippopolis,stimuli/subj_files/student1_cityA.csv,./stimuli/frankfurt.jpg,./stimuli/street_plate1.png,LÉTRA UTCA,stimuli/objects/047a.jpg,object,1,stimuli/objects/015a.jpg,stimuli/objects/108b.jpg,stimuli/objects/015b.jpg,stimuli/objects/108a.jpg,stimuli/objects/015a.jpg,dist2,lure,dist1,target,0,0,0,0,0,3,3,33,,,,,,,55.991725051775575,57.01791210100055,57.01791210100055,57.01791210100055,57.01791210100055,60.03888699412346,60.03888699412346,60.03888699412346,60.03888699412346,None,,,,,,,,,,,student1,2022-10-25_15h55.15.024,Hippopolis_Updating,2022.2.2,59.99794773326782,
Hippopolis,stimuli/subj_files/student1_cityA.csv,./stimuli/frankfurt.jpg,./stimuli/street_plate1.png,MOTOR UTCA,stimuli/objects/097a.jpg,object,1,stimuli/objects/071a.jpg,stimuli/objects/015b.jpg,stimuli/objects/071b.jpg,stimuli/objects/071a.jpg,stimuli/objects/015a.jpg,dist2,lure,target,dist1,0,0,0,0,0,4,4,36,,,,,,,61.99521267786622,63.016572596505284,63.016572596505284,63.016572596505284,63.016572596505284,66.03415503166616,66.03415503166616,66.03415503166616,66.03415503166616,None,,,,,,,,,,,student1,2022-10-25_15h55.15.024,Hippopolis_Updating,2022.2.2,59.99794773326782,
Hippopolis,stimuli/subj_files/student1_cityA.csv,./stimuli/frankfurt.jpg,./stimuli/street_plate1.png,PAPAGÁJ UTCA,stimuli/objects/093a.jpg,object,2,stimuli/scenes/097a.jpg,stimuli/scenes/097a.jpg,stimuli/scenes/109b.jpg,stimuli/scenes/109a.jpg,stimuli/scenes/097b.jpg,target,dist2,dist1,lure,0,0,0,0,0,5,5,55,,,,,,,67.99978509359062,69.03262830153108,69.03262830153108,69.03262830153108,69.03262830153108,72.04516217112541,72.04516217112541,72.04516217112541,72.04516217112541,None,,,,,,,,,,,student1,2022-10-25_15h55.15.024,Hippopolis_Updating,2022.2.2,59.99794773326782,
Hippopolis,stimuli/subj_files/student1_cityA.csv,./stimuli/frankfurt.jpg,./stimuli/street_plate1.png,BONBON UTCA,stimuli/objects/095a.jpg,object,2,stimuli/scenes/007a.jpg,stimuli/objects/028b.jpg,stimuli/objects/028a.jpg,stimuli/scenes/007a.jpg,stimuli/scenes/007b.jpg,dist2,dist1,target,lure,0,0,0,0,0,6,6,72,,,,,,,74.00399394333363,75.03721346892416,75.03721346892416,75.03721346892416,75.03721346892416,78.04670227505267,78.04670227505267,78.04670227505267,78.04670227505267,None,,,,,,,,,,,student1,2022-10-25_15h55.15.024,Hippopolis_Updating,2022.2.2,59.99794773326782,
Hippopolis,stimuli/subj_files/student1_cityA.csv,./stimuli/frankfurt.jpg,./stimuli/street_plate1.png,NARANCS UTCA,stimuli/objects/017a.jpg,object,1,stimuli/objects/075a.jpg,stimuli/objects/075a.jpg,stimuli/scenes/041b.jpg,stimuli/scenes/041a.jpg,stimuli/objects/075b.jpg,target,dist2,dist1,lure,0,0,0,0,0,7,7,76,,,,,,,80.01136355102062,81.03302203677595,81.03302203677595,81.03302203677595,81.03302203677595,84.02914285287261,84.02914285287261,84.02914285287261,84.02914285287261,None,,,,,,,,,,,student1,2022-10-25_15h55.15.024,Hippopolis_Updating,2022.2.2,59.99794773326782,
Hippopolis,stimuli/subj_files/student1_cityA.csv,./stimuli/frankfurt.jpg,./stimuli/street_plate1.png,BOLYGÓ UTCA,stimuli/scenes/118a.jpg,scene,1,stimuli/scenes/087a.jpg,stimuli/objects/011a.jpg,stimuli/scenes/087b.jpg,stimuli/objects/011b.jpg,stimuli/scenes/087a.jpg,dist1,lure,dist2,target,0,0,0,0,0,8,8,31,,,,,,,86.02217942103744,87.0481366366148,87.0481366366148,87.0481366366148,87.0481366366148,90.07632221281528,90.07632221281528,90.07632221281528,90.07632221281528,None,,,,,,,,,,,student1,2022-10-25_15h55.15.024,Hippopolis_Updating,2022.2.2,59.99794773326782,
Hippopolis,stimuli/subj_files/student1_cityA.csv,./stimuli/frankfurt.jpg,./stimuli/street_plate1.png,PULÓVER UTCA,stimuli/objects/114a.jpg,object,0,stimuli/objects/114a.jpg,stimuli/scenes/050b.jpg,stimuli/scenes/050a.jpg,stimuli/objects/114b.jpg,stimuli/objects/114a.jpg,dist2,dist1,lure,target,0,0,0,0,0,9,9,43,,,,,,,92.0330829937011,93.06592682376504,93.06592682376504,93.06592682376504,93.06592682376504,96.08435301855206,96.08435301855206,96.08435301855206,96.08435301855206,None,,,,,,,,,,,student1,2022-10-25_15h55.15.024,Hippopolis_Updating,2022.2.2,59.99794773326782,
Hippopolis,stimuli/subj_files/student1_cityA.csv,./stimuli/frankfurt.jpg,./stimuli/street_plate1.png,ZSEMLE UTCA,stimuli/objects/115a.jpg,object,1,stimuli/objects/053a.jpg,stimuli/objects/007a.jpg,stimuli/objects/053a.jpg,stimuli/objects/007b.jpg,stimuli/objects/053b.jpg,dist1,target,dist2,lure,0,0,0,0,0,10,10,47,,,,,,,98.0455540381372,99.06874796189368,99.06874796189368,99.06874796189368,99.06874796189368,102.08808478526771,102.08808478526771,102.08808478526771,102.08808478526771,None,,,,,,,,,,,student1,2022-10-25_15h55.15.024,Hippopolis_Updating,2022.2.2,59.99794773326782,
Hippopolis,stimuli/subj_files/student1_cityA.csv,./stimuli/frankfurt.jpg,./stimuli/street_plate1.png,LIGET UTCA,stimuli/objects/038a.jpg,object,2,stimuli/scenes/109a.jpg,stimuli/scenes/109a.jpg,stimuli/objects/055a.jpg,stimuli/scenes/109b.jpg,stimuli/objects/055b.jpg,target,dist1,lure,dist2,0,0,0,0,0,11,11,62,,,,,,,104.061762759462,105.08577214181423,105.08577214181423,105.08577214181423,105.08577214181423,108.08027323707938,108.08027323707938,108.08027323707938,108.08027323707938,None,,,,,,,,,,,student1,2022-10-25_15h55.15.024,Hippopolis_Updating,2022.2.2,59.99794773326782,
Hippopolis,stimuli/subj_files/student1_cityA.csv,./stimuli/frankfurt.jpg,./stimuli/street_plate1.png,AKÁC UTCA,stimuli/scenes/081a.jpg,scene,2,stimuli/objects/055a.jpg,stimuli/objects/055b.jpg,stimuli/objects/107b.jpg,stimuli/objects/107a.jpg,stimuli/objects/055a.jpg,lure,dist2,dist1,target,0,0,0,0,0,12,12,74,,,,,,,110.06693634949625,111.09778165258467,111.09778165258467,111.09778165258467,111.09778165258467,114.09585558995605,114.09585558995605,114.09585558995605,114.09585558995605,None,,,,,,,,,,,student1,2022-10-25_15h55.15.024,Hippopolis_Updating,2022.2.2,59.99794773326782,
Hippopolis,stimuli/subj_files/student1_cityA.csv,./stimuli/frankfurt.jpg,./stimuli/street_plate1.png,TOJÁS UTCA,stimuli/objects/021a.jpg,object,2,stimuli/scenes/034a.jpg,stimuli/scenes/034a.jpg,stimuli/objects/059a.jpg,stimuli/objects/059b.jpg,stimuli/scenes/034b.jpg,target,dist1,dist2,lure,0,0,0,0,0,13,13,37,,,,,,,116.07963754050434,117.10211179591715,117.10211179591715,117.10211179591715,117.10211179591715,120.11042095348239,120.11042095348239,120.11042095348239,120.11042095348239,None,,,,,,,,,,,student1,2022-10-25_15h55.15.024,Hippopolis_Updating,2022.2.2,59.99794773326782,
Hippopolis,stimuli/subj_files/student1_cityA.csv,./stimuli/frankfurt.jpg,./stimuli/street_plate1.png,KULLANCS UTCA,stimuli/objects/089a.jpg,object,0,stimuli/objects/089a.jpg,stimuli/scenes/072a.jpg,stimuli/objects/089a.jpg,stimuli/scenes/072b.jpg,stimuli/objects/089b.jpg,dist1,target,dist2,lure,0,0,0,0,0,14,14,34,,,,,,,122.09520216658711,123.11994116939604,123.11994116939604,123.11994116939604,123.11994116939604,126.13152118213475,126.13152118213475,126.13152118213475,126.13152118213475,None,,,,,,,,,,,student1,2022-10-25_15h55.15.024,Hippopolis_Updating,2022.2.2,59.99794773326782,
Hippopolis,stimuli/subj_files/student1_cityA.csv,./stimuli/frankfurt.jpg,./stimuli/street_plate1.png,PÁLMAFA UTCA,stimuli/objects/090a.jpg,object,1,stimuli/objects/007a.jpg,stimuli/objects/053a.jpg,stimuli/objects/007a.jpg,stimuli/objects/053b.jpg,stimuli/objects/007b.jpg,dist1,target,dist2,lure,0,0,0,0,0,15,15,12,,,,,,,128.09525472670794,129.11692254059017,129.11692254059017,129.11692254059017,129.11692254059017,132.15356842428446,132.15356842428446,132.15356842428446,132.15356842428446,None,,,,,,,,,,,student1,2022-10-25_15h55.15.024,Hippopolis_Updating,2022.2.2,59.99794773326782,
Hippopolis,stimuli/subj_files/student1_cityA.csv,./stimuli/frankfurt.jpg,./stimuli/street_plate1.png,KARTON UTCA,stimuli/objects/101a.jpg,object,2,stimuli/scenes/044a.jpg,stimuli/scenes/074a.jpg,stimuli/scenes/044b.jpg,stimuli/scenes/044a.jpg,stimuli/scenes/074b.jpg,dist1,lure,target,dist2,0,0,0,0,0,16,16,8,,,,,,,134.11152160540223,135.1322632431984,135.1322632431984,135.1322632431984,135.1322632431984,138.13747788779438,138.13747788779438,138.13747788779438,138.13747788779438,None,,,,,,,,,,,student1,2022-10-25_15h55.15.024,Hippopolis_Updating,2022.2.2,59.99794773326782,
Hippopolis,stimuli/subj_files/student1_cityA.csv,./stimuli/frankfurt.jpg,./stimuli/street_plate1.png,HAJÓ UTCA,stimuli/objects/086a.jpg,object,1,stimuli/objects/041a.jpg,stimuli/scenes/014a.jpg,stimuli/scenes/014b.jpg,stimuli/objects/041a.jpg,stimuli/objects/041b.jpg,dist1,dist2,target,lure,0,0,0,0,0,17,17,71,,,,,,,140.1199377477169,141.13747633248568,141.13747633248568,141.13747633248568,141.13747633248568,144.1628513429314,144.1628513429314,144.1628513429314,144.1628513429314,None,141.13747633248568,,,,,,,,,,student1,2022-10-25_15h55.15.024,Hippopolis_Updating,2022.2.2,59.99794773326782,
Hippopolis,stimuli/subj_files/student1_cityA.csv,./stimuli/frankfurt.jpg,./stimuli/street_plate1.png,KAKAS UTCA,stimuli/objects/002a.jpg,object,2,stimuli/scenes/074a.jpg,stimuli/scenes/074b.jpg,stimuli/scenes/074a.jpg,stimuli/scenes/070a.jpg,stimuli/scenes/070b.jpg,lure,target,dist1,dist2,0,0,0,0,0,18,18,24,,,,,,,146.12954722344875,147.15480249747634,147.15480249747634,147.15480249747634,147.15480249747634,150.16951838694513,150.16951838694513,150.16951838694513,150.16951838694513,None,,,,,,,,,,,student1,2022-10-25_15h55.15.024,Hippopolis_Updating,2022.2.2,59.99794773326782,
Hippopolis,stimuli/subj_files/student1_cityA.csv,./stimuli/frankfurt.jpg,./stimuli/street_plate1.png,KÖTÉNY UTCA,stimuli/scenes/031a.jpg,scene,1,stimuli/scenes/064a.jpg,stimuli/objects/103a.jpg,stimuli/objects/103b.jpg,stimuli/scenes/064b.jpg,stimuli/scenes/064a.jpg,dist1,dist2,lure,target,0,0,0,0,0,19,19,22,,,,,,,152.1303004808724,153.1551744621247,153.1551744621247,153.1551744621247,153.1551744621247,156.16076542437077,156.16076542437077,156.16076542437077,156.16076542437077,None,,,,,,,,,,,student1,2022-10-25_15h55.15.024,Hippopolis_Updating,2022.2.2,59.99794773326782,
Hippopolis,stimuli/subj_files/student1_cityA.csv,./stimuli/frankfurt.jpg,./stimuli/street_plate1.png,TALICSKA UTCA,stimuli/objects/014a.jpg,object,1,stimuli/objects/108a.jpg,stimuli/objects/109a.jpg,stimuli/objects/109b.jpg,stimuli/objects/108a.jpg,stimuli/objects/108b.jpg,dist1,dist2,target,lure,0,0,0,0,0,20,20,13,,,,,,,158.14005986228585,159.16483680903912,159.16483680903912,159.16483680903912,159.16483680903912,162.20154644735157,162.20154644735157,162.20154644735157,162.20154644735157,None,,,,,,,,,,,student1,2022-10-25_15h55.15.024,Hippopolis_Updating,2022.2.2,59.99794773326782,
Hippopolis,stimuli/subj_files/student1_cityA.csv,./stimuli/frankfurt.jpg,./stimuli/street_plate1.png,KÖMÉNYMAG UTCA,stimuli/objects/068a.jpg,object,1,stimuli/objects/045a.jpg,stimuli/objects/045a.jpg,stimuli/objects/045b.jpg,stimuli/objects/071a.jpg,stimuli/objects/071b.jpg,target,lure,dist1,dist2,0,0,0,0,0,21,21,18,,,,,,,164.1475905701518,165.16756962053478,165.16756962053478,165.16756962053478,165.16756962053478,168.17180770635605,168.17180770635605,168.17180770635605,168.17180770635605,None,165.16756962053478,,,,,,,,,,student1,2022-10-25_15h55.15.024,Hippopolis_Updating,2022.2.2,59.99794773326782,
Hippopolis,stimuli/subj_files/student1_cityA.csv,./stimuli/frankfurt.jpg,./stimuli/street_plate1.png,KOKTÉL UTCA,stimuli/scenes/008a.jpg,scene,2,stimuli/objects/012a.jpg,stimuli/objects/036b.jpg,stimuli/objects/012b.jpg,stimuli/objects/036a.jpg,stimuli/objects/012a.jpg,dist2,lure,dist1,target,0,0,0,0,0,22,22,46,,,,,,,170.15867390483618,171.1853442583233,171.1853442583233,171.1853442583233,171.1853442583233,174.19637347757816,174.19637347757816,174.19637347757816,174.19637347757816,None,,,,,,,,,,,student1,2022-10-25_15h55.15.024,Hippopolis_Updating,2022.2.2,59.99794773326782,
Hippopolis,stimuli/subj_files/student1_cityA.csv,./stimuli/frankfurt.jpg,./stimuli/street_plate1.png,FÉNYKÉP UTCA,stimuli/scenes/010a.jpg,scene,1,stimuli/scenes/078a.jpg,stimuli/scenes/088a.jpg,stimuli/scenes/078a.jpg,stimuli/scenes/088b.jpg,stimuli/scenes/078b.jpg,dist1,target,dist2,lure,0,0,0,0,0,23,23,32,,,,,,,176.16512759961188,177.18822573311627,177.18822573311627,177.18822573311627,177.18822573311627,180.21645485050976,180.21645485050976,180.21645485050976,180.21645485050976,None,,,,,,,,,,,student1,2022-10-25_15h55.15.024,Hippopolis_Updating,2022.2.2,59.99794773326782,
Hippopolis,stimuli/subj_files/student1_cityA.csv,./stimuli/frankfurt.jpg,./stimuli/street_plate1.png,LAKAT UTCA,stimuli/objects/066a.jpg,object,2,stimuli/scenes/084a.jpg,stimuli/scenes/084b.jpg,stimuli/scenes/034a.jpg,stimuli/scenes/084a.jpg,stimuli/scenes/034b.jpg,lure,dist1,target,dist2,0,0,0,0,0,24,24,58,,,,,,,182.16917254775763,183.19660766609013,183.19660766609013,183.19660766609013,183.19660766609013,186.19098684750497,186.19098684750497,186.19098684750497,186.19098684750497,None,,,,,,,,,,,student1,2022-10-25_15h55.15.024,Hippopolis_Updating,2022.2.2,59.99794773326782,
Hippopolis,stimuli/subj_files/student1_cityA.csv,./stimuli/frankfurt.jpg,./stimuli/street_plate1.png,FÓKA UTCA,stimuli/scenes/058a.jpg,scene,0,stimuli/scenes/058a.jpg,stimuli/scenes/058a.jpg,stimuli/scenes/058b.jpg,stimuli/objects/111b.jpg,stimuli/objects/111a.jpg,target,lure,dist2,dist1,0,0,0,0,0,25,25,51,,,,,,,188.17916704900563,189.20349676907063,189.20349676907063,189.20349676907063,189.20349676907063,192.19679333642125,192.19679333642125,192.19679333642125,192.19679333642125,None,,,,,,,,,,,student1,2022-10-25_15h55.15.024,Hippopolis_Updating,2022.2.2,59.99794773326782,
Hippopolis,stimuli/subj_files/student1_cityA.csv,./stimuli/frankfurt.jpg,./stimuli/street_plate1.png,RÁDIÓ UTCA,stimuli/scenes/068a.jpg,scene,1,stimuli/scenes/067a.jpg,stimuli/scenes/018b.jpg,stimuli/scenes/067a.jpg,stimuli/scenes/067b.jpg,stimuli/scenes/018a.jpg,dist2,target,lure,dist1,0,0,0,0,0,26,26,44,,,,,,,194.18995865993202,195.21446160972118,195.21446160972118,195.21446160972118,195.21446160972118,198.21398981288075,198.21398981288075,198.21398981288075,198.21398981288075,None,,,,,,,,,,,student1,2022-10-25_15h55.15.024,Hippopolis_Updating,2022.2.2,59.99794773326782,
Hippopolis,stimuli/subj_files/student1_cityA.csv,./stimuli/frankfurt.jpg,./stimuli/street_plate1.png,TRIATLON UTCA,stimuli/objects/024a.jpg,object,0,stimuli/objects/024a.jpg,stimuli/objects/024b.jpg,stimuli/objects/080a.jpg,stimuli/objects/024a.jpg,stimuli/objects/080b.jpg,lure,dist1,target,dist2,0,0,0,0,0,27,27,2,,,,,,,200.20616551488638,201.230972006917,201.230972006917,201.230972006917,201.230972006917,204.2489133439958,204.2489133439958,204.2489133439958,204.2489133439958,None,,,,,,,,,,,student1,2022-10-25_15h55.15.024,Hippopolis_Updating,2022.2.2,59.99794773326782,
Hippopolis,stimuli/subj_files/student1_cityA.csv,./stimuli/frankfurt.jpg,./stimuli/street_plate1.png,PÁFRÁNY UTCA,stimuli/scenes/101a.jpg,scene,0,stimuli/scenes/101a.jpg,stimuli/scenes/101a.jpg,stimuli/scenes/101b.jpg,stimuli/objects/051a.jpg,stimuli/objects/051b.jpg,target,lure,dist1,dist2,0,0,0,0,0,28,28,0,,,,,,,206.20982046239078,207.23619224876165,207.23619224876165,207.23619224876165,207.23619224876165,210.2312099263072,210.2312099263072,210.2312099263072,210.2312099263072,None,,,,,,,,,,,student1,2022-10-25_15h55.15.024,Hippopolis_Updating,2022.2.2,59.99794773326782,
Hippopolis,stimuli/subj_files/student1_cityA.csv,./stimuli/frankfurt.jpg,./stimuli/street_plate1.png,TERASZ UTCA,stimuli/objects/063a.jpg,object,2,stimuli/scenes/104a.jpg,stimuli/scenes/104a.jpg,stimuli/scenes/056a.jpg,stimuli/scenes/104b.jpg,stimuli/scenes/056b.jpg,target,dist1,lure,dist2,0,0,0,0,0,29,29,48,,,,,,,212.2193450331688,213.24801826663315,213.24801826663315,213.24801826663315,213.24801826663315,216.23417350649834,216.23417350649834,216.23417350649834,216.23417350649834,None,,,,,,,,,,,student1,2022-10-25_15h55.15.024,Hippopolis_Updating,2022.2.2,59.99794773326782,
Hippopolis,stimuli/subj_files/student1_cityA.csv,./stimuli/frankfurt.jpg,./stimuli/street_plate1.png,KERET UTCA,stimuli/scenes/027a.jpg,scene,0,stimuli/scenes/027a.jpg,stimuli/objects/100a.jpg,stimuli/objects/100b.jpg,stimuli/scenes/027a.jpg,stimuli/scenes/027b.jpg,dist1,dist2,target,lure,0,0,0,0,0,30,30,3,,,,,,,218.2317703589797,219.2644042596221,219.2644042596221,219.2644042596221,219.2644042596221,222.25987631827593,222.25987631827593,222.25987631827593,222.25987631827593,None,,,,,,,,,,,student1,2022-10-25_15h55.15.024,Hippopolis_Updating,2022.2.2,59.99794773326782,
Hippopolis,stimuli/subj_files/student1_cityA.csv,./stimuli/frankfurt.jpg,./stimuli/street_plate1.png,ÜVEG UTCA,stimuli/scenes/061a.jpg,scene,2,stimuli/objects/085a.jpg,stimuli/objects/085b.jpg,stimuli/scenes/084a.jpg,stimuli/objects/085a.jpg,stimuli/scenes/084b.jpg,lure,dist1,target,dist2,0,0,0,0,0,31,31,19,,,,,,,224.2481893207878,225.28349352255464,225.28349352255464,225.28349352255464,225.28349352255464,228.2712149899453,228.2712149899453,228.2712149899453,228.2712149899453,None,,,,,,,,,,,student1,2022-10-25_15h55.15.024,Hippopolis_Updating,2022.2.2,59.99794773326782,
Hippopolis,stimuli/subj_files/student1_cityA.csv,./stimuli/frankfurt.jpg,./stimuli/street_plate1.png,FIÓK UTCA,stimuli/scenes/002a.jpg,scene,1,stimuli/scenes/014a.jpg,stimuli/scenes/014a.jpg,stimuli/objects/004a.jpg,stimuli/objects/004b.jpg,stimuli/scenes/014b.jpg,target,dist1,dist2,lure,0,0,0,0,0,32,32,73,,,,,,,230.26052694395185,231.28078621067107,231.28078621067107,231.28078621067107,231.28078621067107,234.32257178612053,234.32257178612053,234.32257178612053,234.32257178612053,None,,,,,,,,,,,student1,2022-10-25_15h55.15.024,Hippopolis_Updating,2022.2.2,59.99794773326782,
Hippopolis,stimuli/subj_files/student1_cityA.csv,./stimuli/frankfurt.jpg,./stimuli/street_plate1.png,CSILLAG UTCA,stimuli/scenes/083a.jpg,scene,1,stimuli/scenes/117a.jpg,stimuli/scenes/117a.jpg,stimuli/scenes/117b.jpg,stimuli/objects/041a.jpg,stimuli/objects/041b.jpg,target,lure,dist1,dist2,0,0,0,0,0,33,33,15,,,,,,,236.2621628381312,237.2816458325833,237.2816458325833,237.2816458325833,237.2816458325833,240.29572758078575,240.29572758078575,240.29572758078575,240.29572758078575,None,,,,,,,,,,,student1,2022-10-25_15h55.15.024,Hippopolis_Updating,2022.2.2,59.99794773326782,
Hippopolis,stimuli/subj_files/student1_cityA.csv,./stimuli/frankfurt.jpg,./stimuli/street_plate1.png,CITROM UTCA,stimuli/scenes/036a.jpg,scene,2,stimuli/objects/043a.jpg,stimuli/objects/043b.jpg,stimuli/objects/067a.jpg,stimuli/objects/043a.jpg,stimuli/objects/067b.jpg,lure,dist1,target,dist2,0,0,0,0,0,34,34,26,,,,,,,242.27635157108307,243.30213182419538,243.30213182419538,243.30213182419538,243.30213182419538,246.31362879648805,246.31362879648805,246.31362879648805,246.31362879648805,None,,,,,,,,,,,student1,2022-10-25_15h55.15.024,Hippopolis_Updating,2022.2.2,59.99794773326782,
Hippopolis,stimuli/subj_files/student1_cityA.csv,./stimuli/frankfurt.jpg,./stimuli/street_plate1.png,HEGESZTŐ UTCA,stimuli/scenes/043a.jpg,scene,0,stimuli/scenes/043a.jpg,stimuli/scenes/043b.jpg,stimuli/scenes/043a.jpg,stimuli/objects/062a.jpg,stimuli/objects/062b.jpg,lure,target,dist1,dist2,0,0,0,0,0,35,35,77,,,,,,,248.28463802486658,249.3163650315255,249.3163650315255,249.3163650315255,249.3163650315255,252.31322791054845,252.31322791054845,252.31322791054845,252.31322791054845,None,,,,,,,,,,,student1,2022-10-25_15h55.15.024,Hippopolis_Updating,2022.2.2,59.99794773326782,
Hippopolis,stimuli/subj_files/student1_cityA.csv,./stimuli/frankfurt.jpg,./stimuli/street_plate1.png,HÁRFA UTCA,stimuli/objects/083a.jpg,object,2,stimuli/scenes/028a.jpg,stimuli/scenes/028b.jpg,stimuli/objects/012b.jpg,stimuli/objects/012a.jpg,stimuli/scenes/028a.jpg,lure,dist2,dist1,target,0,0,0,0,0,36,36,16,,,,,,,254.29667894914746,255.31595730222762,255.31595730222762,255.31595730222762,255.31595730222762,258.318651240319,258.318651240319,258.318651240319,258.318651240319,None,255.31595730222762,,,,,,,,,,student1,2022-10-25_15h55.15.024,Hippopolis_Updating,2022.2.2,59.99794773326782,
Hippopolis,stimuli/subj_files/student1_cityA.csv,./stimuli/frankfurt.jpg,./stimuli/street_plate1.png,KOCKA UTCA,stimuli/objects/062a.jpg,object,0,stimuli/objects/062a.jpg,stimuli/scenes/095b.jpg,stimuli/objects/062a.jpg,stimuli/objects/062b.jpg,stimuli/scenes/095a.jpg,dist2,target,lure,dist1,0,0,0,0,0,37,37,35,,,,,,,260.3076033592224,261.32230245508254,261.32230245508254,261.32230245508254,261.32230245508254,264.3571245968342,264.3571245968342,264.3571245968342,264.3571245968342,None,,,,,,,,,,,student1,2022-10-25_15h55.15.024,Hippopolis_Updating,2022.2.2,59.99794773326782,
Hippopolis,stimuli/subj_files/student1_cityA.csv,./stimuli/frankfurt.jpg,./stimuli/street_plate1.png,ÁLOM UTCA,stimuli/objects/070a.jpg,object,0,stimuli/objects/070a.jpg,stimuli/objects/070b.jpg,stimuli/objects/114b.jpg,stimuli/objects/114a.jpg,stimuli/objects/070a.jpg,lure,dist2,dist1,target,0,0,0,0,0,38,38,50,,,,,,,266.3176442012191,267.3470691367984,267.3470691367984,267.3470691367984,267.3470691367984,270.3521251678467,270.3521251678467,270.3521251678467,270.3521251678467,None,,,,,,,,,,,student1,2022-10-25_15h55.15.024,Hippopolis_Updating,2022.2.2,59.99794773326782,
Hippopolis,stimuli/subj_files/student1_cityA.csv,./stimuli/frankfurt.jpg,./stimuli/street_plate1.png,SZIKLA UTCA,stimuli/scenes/111a.jpg,scene,2,stimuli/objects/073a.jpg,stimuli/objects/120b.jpg,stimuli/objects/120a.jpg,stimuli/objects/073a.jpg,stimuli/objects/073b.jpg,dist2,dist1,target,lure,0,0,0,0,0,39,39,1,,,,,,,272.3285160511732,273.348234789446,273.348234789446,273.348234789446,273.348234789446,276.37532686814666,276.37532686814666,276.37532686814666,276.37532686814666,None,273.348234789446,,,,,,,,,,student1,2022-10-25_15h55.15.024,Hippopolis_Updating,2022.2.2,59.99794773326782,
Hippopolis,stimuli/subj_files/student1_cityA.csv,./stimuli/frankfurt.jpg,./stimuli/street_plate1.png,MOCSÁR UTCA,stimuli/objects/080a.jpg,object,0,stimuli/objects/080a.jpg,stimuli/objects/080b.jpg,stimuli/objects/080a.jpg,stimuli/scenes/043b.jpg,stimuli/scenes/043a.jpg,lure,target,dist2,dist1,0,0,0,0,0,40,40,17,,,,,,,278.34640513919294,279.36785307340324,279.36785307340324,279.36785307340324,279.36785307340324,282.3796346168965,282.3796346168965,282.3796346168965,282.3796346168965,None,279.36785307340324,,,,,,,,,,student1,2022-10-25_15h55.15.024,Hippopolis_Updating,2022.2.2,59.99794773326782,
Hippopolis,stimuli/subj_files/student1_cityA.csv,./stimuli/frankfurt.jpg,./stimuli/street_plate1.png,PÉKSÉG UTCA,stimuli/scenes/073a.jpg,scene,2,stimuli/objects/059a.jpg,stimuli/objects/059a.jpg,stimuli/objects/046b.jpg,stimuli/objects/059b.jpg,stimuli/objects/046a.jpg,target,dist2,lure,dist1,0,0,0,0,0,41,41,61,,,,,,,284.3510804977268,285.37799281440675,285.37799281440675,285.37799281440675,285.37799281440675,288.37947538122535,288.37947538122535,288.37947538122535,288.37947538122535,None,,,,,,,,,,,student1,2022-10-25_15h55.15.024,Hippopolis_Updating,2022.2.2,59.99794773326782,
Hippopolis,stimuli/subj_files/student1_cityA.csv,./stimuli/frankfurt.jpg,./stimuli/street_plate1.png,OROSZLÁN UTCA,stimuli/scenes/072a.jpg,scene,0,stimuli/scenes/072a.jpg,stimuli/scenes/072a.jpg,stimuli/scenes/072b.jpg,stimuli/scenes/027b.jpg,stimuli/scenes/027a.jpg,target,lure,dist2,dist1,0,0,0,0,0,42,42,66,,,,,,,290.3603453785181,291.3816060870886,291.3816060870886,291.3816060870886,291.3816060870886,294.3917016647756,294.3917016647756,294.3917016647756,294.3917016647756,None,,,,,,,,,,,student1,2022-10-25_15h55.15.024,Hippopolis_Updating,2022.2.2,59.99794773326782,
Hippopolis,stimuli/subj_files/student1_cityA.csv,./stimuli/frankfurt.jpg,./stimuli/street_plate1.png,VASALÓ UTCA,stimuli/objects/025a.jpg,object,2,stimuli/scenes/056a.jpg,stimuli/scenes/044a.jpg,stimuli/scenes/056b.jpg,stimuli/scenes/056a.jpg,stimuli/scenes/044b.jpg,dist1,lure,target,dist2,0,0,0,0,0,43,43,70,,,,,,,296.3626402951777,297.38229589909315,297.38229589909315,297.38229589909315,297.38229589909315,300.4139379989356,300.4139379989356,300.4139379989356,300.4139379989356,None,297.38229589909315,,,,,,,,,,student1,2022-10-25_15h55.15.024,Hippopolis_Updating,2022.2.2,59.99794773326782,
Hippopolis,stimuli/subj_files/student1_cityA.csv,./stimuli/frankfurt.jpg,./stimuli/street_plate1.png,MOGYORÓ UTCA,stimuli/objects/106a.jpg,object,1,stimuli/objects/103a.jpg,stimuli/scenes/116a.jpg,stimuli/objects/103b.jpg,stimuli/objects/103a.jpg,stimuli/scenes/116b.jpg,dist1,lure,target,dist2,0,0,0,0,0,44,44,54,,,,,,,302.3772871401161,303.39394713006914,303.39394713006914,303.39394713006914,303.39394713006914,306.43444078601897,306.43444078601897,306.43444078601897,306.43444078601897,space,,308.39136888831854,308.39136888831854,7.9323800057172775,,,,,,,student1,2022-10-25_15h55.15.024,Hippopolis_Updating,2022.2.2,59.99794773326782,
Hippopolis,stimuli/subj_files/student1_cityA.csv,./stimuli/frankfurt.jpg,./stimuli/street_plate1.png,CSAVAR UTCA,stimuli/objects/078a.jpg,object,0,stimuli/objects/078a.jpg,stimuli/objects/078b.jpg,stimuli/objects/024b.jpg,stimuli/objects/078a.jpg,stimuli/objects/024a.jpg,lure,dist2,target,dist1,0,0,0,0,0,45,45,10,,,,,,,316.3555182479322,317.3802631609142,317.3802631609142,317.3802631609142,317.3802631609142,320.3770358469337,320.3770358469337,320.3770358469337,320.3770358469337,None,,,,,,,,,,,student1,2022-10-25_15h55.15.024,Hippopolis_Updating,2022.2.2,59.99794773326782,
Hippopolis,stimuli/subj_files/student1_cityA.csv,./stimuli/frankfurt.jpg,./stimuli/street_plate1.png,TOBOZ UTCA,stimuli/objects/001a.jpg,object,2,stimuli/scenes/059a.jpg,stimuli/scenes/059a.jpg,stimuli/objects/085a.jpg,stimuli/objects/085b.jpg,stimuli/scenes/059b.jpg,target,dist1,dist2,lure,0,0,0,0,0,46,46,40,,,,,,,322.3618537597358,323.38543022051454,323.38543022051454,323.38543022051454,323.38543022051454,326.4103514738381,326.4103514738381,326.4103514738381,326.4103514738381,None,,,,,,,,,,,student1,2022-10-25_15h55.15.024,Hippopolis_Updating,2022.2.2,59.99794773326782,
Hippopolis,stimuli/subj_files/student1_cityA.csv,./stimuli/frankfurt.jpg,./stimuli/street_plate1.png,PIZSAMA UTCA,stimuli/scenes/060a.jpg,scene,2,stimuli/objects/006a.jpg,stimuli/scenes/007b.jpg,stimuli/scenes/007a.jpg,stimuli/objects/006b.jpg,stimuli/objects/006a.jpg,dist2,dist1,lure,target,0,0,0,0,0,47,47,79,,,,,,,328.37266993895173,329.39679843746126,329.39679843746126,329.39679843746126,329.39679843746126,332.42204873636365,332.42204873636365,332.42204873636365,332.42204873636365,None,,,,,,,,,,,student1,2022-10-25_15h55.15.024,Hippopolis_Updating,2022.2.2,59.99794773326782,
Hippopolis,stimuli/subj_files/student1_cityA.csv,./stimuli/frankfurt.jpg,./stimuli/street_plate1.png,LÁNDZSA UTCA,stimuli/scenes/090a.jpg,scene,0,stimuli/scenes/090a.jpg,stimuli/scenes/090a.jpg,stimuli/objects/091b.jpg,stimuli/scenes/090b.jpg,stimuli/objects/091a.jpg,target,dist2,lure,dist1,0,0,0,0,0,48,48,39,,,,,,,334.3807016797364,335.40825995616615,335.40825995616615,335.40825995616615,335.40825995616615,338.40796823240817,338.40796823240817,338.40796823240817,338.40796823240817,None,,,,,,,,,,,student1,2022-10-25_15h55.15.024,Hippopolis_Updating,2022.2.2,59.99794773326782,
Hippopolis,stimuli/subj_files/student1_cityA.csv,./stimuli/frankfurt.jpg,./stimuli/street_plate1.png,PETÁRDA UTCA,stimuli/objects/009a.jpg,object,0,stimuli/objects/009a.jpg,stimuli/objects/009a.jpg,stimuli/scenes/051a.jpg,stimuli/objects/009b.jpg,stimuli/scenes/051b.jpg,target,dist1,lure,dist2,0,0,0,0,0,49,49,64,,,,,,,340.3929696381092,341.41759014874697,341.41759014874697,341.41759014874697,341.41759014874697,344.4349368400872,344.4349368400872,344.4349368400872,344.4349368400872,None,,,,,,,,,,,student1,2022-10-25_15h55.15.024,Hippopolis_Updating,2022.2.2,59.99794773326782,
Hippopolis,stimuli/subj_files/student1_cityA.csv,./stimuli/frankfurt.jpg,./stimuli/street_plate1.png,HORDÓ UTCA,stimuli/scenes/095a.jpg,scene,0,stimuli/scenes/095a.jpg,stimuli/scenes/095a.jpg,stimuli/scenes/046a.jpg,stimuli/scenes/095b.jpg,stimuli/scenes/046b.jpg,target,dist1,lure,dist2,0,0,0,0,0,50,50,27,,,,,,,346.39406064897776,347.4136297926307,347.4136297926307,347.4136297926307,347.4136297926307,350.42649706080556,350.42649706080556,350.42649706080556,350.42649706080556,None,,,,,,,,,,,student1,2022-10-25_15h55.15.024,Hippopolis_Updating,2022.2.2,59.99794773326782,
Hippopolis,stimuli/subj_files/student1_cityA.csv,./stimuli/frankfurt.jpg,./stimuli/street_plate1.png,MUSTÁR UTCA,stimuli/scenes/050a.jpg,scene,0,stimuli/scenes/050a.jpg,stimuli/objects/009a.jpg,stimuli/objects/009b.jpg,stimuli/scenes/050a.jpg,stimuli/scenes/050b.jpg,dist1,dist2,target,lure,0,0,0,0,0,51,51,78,,,,,,,352.4091528560966,353.4334558285773,353.4334558285773,353.4334558285773,353.4334558285773,356.4562221169472,356.4562221169472,356.4562221169472,356.4562221169472,None,,,,,,,,,,,student1,2022-10-25_15h55.15.024,Hippopolis_Updating,2022.2.2,59.99794773326782,
Hippopolis,stimuli/subj_files/student1_cityA.csv,./stimuli/frankfurt.jpg,./stimuli/street_plate1.png,TOLLTARTÓ UTCA,stimuli/objects/032a.jpg,object,2,stimuli/scenes/119a.jpg,stimuli/scenes/119a.jpg,stimuli/scenes/104b.jpg,stimuli/scenes/104a.jpg,stimuli/scenes/119b.jpg,target,dist2,dist1,lure,0,0,0,0,0,52,52,67,,,,,,,358.4167345687747,359.4455819670111,359.4455819670111,359.4455819670111,359.4455819670111,362.45825578831136,362.45825578831136,362.45825578831136,362.45825578831136,None,,,,,,,,,,,student1,2022-10-25_15h55.15.024,Hippopolis_Updating,2022.2.2,59.99794773326782,
Hippopolis,stimuli/subj_files/student1_cityA.csv,./stimuli/frankfurt.jpg,./stimuli/street_plate1.png,MUNKA UTCA,stimuli/scenes/039a.jpg,scene,2,stimuli/objects/067a.jpg,stimuli/scenes/097a.jpg,stimuli/objects/067b.jpg,stimuli/objects/067a.jpg,stimuli/scenes/097b.jpg,dist1,lure,target,dist2,0,0,0,0,0,53,53,4,,,,,,,364.42616148479283,365.45094807073474,365.45094807073474,365.45094807073474,365.45094807073474,368.47025472670794,368.47025472670794,368.47025472670794,368.47025472670794,None,,,,,,,,,,,student1,2022-10-25_15h55.15.024,Hippopolis_Updating,2022.2.2,59.99794773326782,
Hippopolis,stimuli/subj_files/student1_cityA.csv,./stimuli/frankfurt.jpg,./stimuli/street_plate1.png,PAPUCS UTCA,stimuli/scenes/051a.jpg,scene,0,stimuli/scenes/051a.jpg,stimuli/scenes/051b.jpg,stimuli/scenes/051a.jpg,stimuli/scenes/090a.jpg,stimuli/scenes/090b.jpg,lure,target,dist1,dist2,0,0,0,0,0,54,54,68,,,,,,,370.4364296719432,371.4573734626174,371.4573734626174,371.4573734626174,371.4573734626174,374.45991314202547,374.45991314202547,374.45991314202547,374.45991314202547,None,,,,,,,,,,,student1,2022-10-25_15h55.15.024,Hippopolis_Updating,2022.2.2,59.99794773326782,
Hippopolis,stimuli/subj_files/student1_cityA.csv,./stimuli/frankfurt.jpg,./stimuli/street_plate1.png,EGÉR UTCA,stimuli/scenes/071a.jpg,scene,1,stimuli/scenes/116a.jpg,stimuli/scenes/116b.jpg,stimuli/scenes/116a.jpg,stimuli/scenes/009b.jpg,stimuli/scenes/009a.jpg,lure,target,dist2,dist1,0,0,0,0,0,55,55,29,,,,,,,376.4499388560653,377.47660174407065,377.47660174407065,377.47660174407065,377.47660174407065,380.5092437323183,380.5092437323183,380.5092437323183,380.5092437323183,None,,,,,,,,,,,student1,2022-10-25_15h55.15.024,Hippopolis_Updating,2022.2.2,59.99794773326782,
Hippopolis,stimuli/subj_files/student1_cityA.csv,./stimuli/frankfurt.jpg,./stimuli/street_plate1.png,DOMINÓ UTCA,stimuli/scenes/042a.jpg,scene,0,stimuli/scenes/042a.jpg,stimuli/scenes/042a.jpg,stimuli/scenes/042b.jpg,stimuli/objects/070a.jpg,stimuli/objects/070b.jpg,target,lure,dist1,dist2,0,0,0,0,0,56,56,63,,,,,,,382.4628527741879,383.49733280949295,383.49733280949295,383.49733280949295,383.49733280949295,386.4911916758865,386.4911916758865,386.4911916758865,386.4911916758865,None,,,,,,,,,,,student1,2022-10-25_15h55.15.024,Hippopolis_Updating,2022.2.2,59.99794773326782,
Hippopolis,stimuli/subj_files/student1_cityA.csv,./stimuli/frankfurt.jpg,./stimuli/street_plate1.png,BAGOLY UTCA,stimuli/scenes/029a.jpg,scene,2,stimuli/objects/028a.jpg,stimuli/objects/028b.jpg,stimuli/objects/028a.jpg,stimuli/scenes/028a.jpg,stimuli/scenes/028b.jpg,lure,target,dist1,dist2,0,0,0,0,0,57,57,21,,,,,,,388.47683935426176,389.50832781754434,389.50832781754434,389.50832781754434,389.50832781754434,392.53062884137034,392.53062884137034,392.53062884137034,392.53062884137034,None,,,,,,,,,,,student1,2022-10-25_15h55.15.024,Hippopolis_Updating,2022.2.2,59.99794773326782,
Hippopolis,stimuli/subj_files/student1_cityA.csv,./stimuli/frankfurt.jpg,./stimuli/street_plate1.png,KIRAKÓ UTCA,stimuli/objects/079a.jpg,object,2,stimuli/scenes/070a.jpg,stimuli/scenes/070a.jpg,stimuli/scenes/070b.jpg,stimuli/objects/043b.jpg,stimuli/objects/043a.jpg,target,lure,dist2,dist1,0,0,0,0,0,58,58,57,,,,,,,394.48716445453465,395.5121018793434,395.5121018793434,395.5121018793434,395.5121018793434,398.5300808493048,398.5300808493048,398.5300808493048,398.5300808493048,None,,,,,,,,,,,student1,2022-10-25_15h55.15.024,Hippopolis_Updating,2022.2.2,59.99794773326782,
Hippopolis,stimuli/subj_files/student1_cityA.csv,./stimuli/frankfurt.jpg,./stimuli/street_plate1.png,POGÁCSA UTCA,stimuli/scenes/046a.jpg,scene,0,stimuli/scenes/046a.jpg,stimuli/scenes/042a.jpg,stimuli/scenes/046a.jpg,stimuli/scenes/046b.jpg,stimuli/scenes/042b.jpg,dist1,target,lure,dist2,0,0,0,0,0,59,59,49,,,,,,,400.50007153116167,401.5276851672679,401.5276851672679,401.5276851672679,401.5276851672679,404.5122894179076,404.5122894179076,404.5122894179076,404.5122894179076,None,,,,,,,,,,,student1,2022-10-25_15h55.15.024,Hippopolis_Updating,2022.2.2,59.99794773326782,
Hippopolis,stimuli/subj_files/student1_cityA.csv,./stimuli/frankfurt.jpg,./stimuli/street_plate1.png,MÁLNA UTCA,stimuli/objects/069a.jpg,object,2,stimuli/scenes/053a.jpg,stimuli/objects/073a.jpg,stimuli/objects/073b.jpg,stimuli/scenes/053b.jpg,stimuli/scenes/053a.jpg,dist1,dist2,lure,target,0,0,0,0,0,60,60,14,,,,,,,406.51780387200415,407.5441918298602,407.5441918298602,407.5441918298602,407.5441918298602,410.57285635732114,410.57285635732114,410.57285635732114,410.57285635732114,None,,,,,,,,,,,student1,2022-10-25_15h55.15.024,Hippopolis_Updating,2022.2.2,59.99794773326782,
Hippopolis,stimuli/subj_files/student1_cityA.csv,./stimuli/frankfurt.jpg,./stimuli/street_plate1.png,FOGAS UTCA,stimuli/scenes/025a.jpg,scene,1,stimuli/scenes/018a.jpg,stimuli/scenes/018b.jpg,stimuli/scenes/064a.jpg,stimuli/scenes/018a.jpg,stimuli/scenes/064b.jpg,lure,dist1,target,dist2,0,0,0,0,0,61,61,38,,,,,,,412.5241011288017,413.5469059832394,413.5469059832394,413.5469059832394,413.5469059832394,416.5551955476403,416.5551955476403,416.5551955476403,416.5551955476403,None,,,,,,,,,,,student1,2022-10-25_15h55.15.024,Hippopolis_Updating,2022.2.2,59.99794773326782,
Hippopolis,stimuli/subj_files/student1_cityA.csv,./stimuli/frankfurt.jpg,./stimuli/street_plate1.png,AJÁNDÉK UTCA,stimuli/scenes/005a.jpg,scene,1,stimuli/scenes/009a.jpg,stimuli/scenes/078b.jpg,stimuli/scenes/078a.jpg,stimuli/scenes/009a.jpg,stimuli/scenes/009b.jpg,dist2,dist1,target,lure,0,0,0,0,0,62,62,28,,,,,,,418.52473029494286,419.5456796847284,419.5456796847284,419.5456796847284,419.5456796847284,422.568353606388,422.568353606388,422.568353606388,422.568353606388,None,,,,,,,,,,,student1,2022-10-25_15h55.15.024,Hippopolis_Updating,2022.2.2,59.99794773326782,
Hippopolis,stimuli/subj_files/student1_cityA.csv,./stimuli/frankfurt.jpg,./stimuli/street_plate1.png,RÓZSA UTCA,stimuli/objects/091a.jpg,object,0,stimuli/objects/091a.jpg,stimuli/objects/091b.jpg,stimuli/objects/078b.jpg,stimuli/objects/078a.jpg,stimuli/objects/091a.jpg,lure,dist2,dist1,target,0,0,0,0,0,63,63,45,,,,,,,424.53313897550106,425.5618613474071,425.5618613474071,425.5618613474071,425.5618613474071,428.5585852060467,428.5585852060467,428.5585852060467,428.5585852060467,None,,,,,,,,,,,student1,2022-10-25_15h55.15.024,Hippopolis_Updating,2022.2.2,59.99794773326782,
Hippopolis,stimuli/subj_files/student1_cityA.csv,./stimuli/frankfurt.jpg,./stimuli/street_plate1.png,KÖTÉL UTCA,stimuli/objects/051a.jpg,object,0,stimuli/objects/051a.jpg,stimuli/scenes/024b.jpg,stimuli/objects/051b.jpg,stimuli/scenes/024a.jpg,stimuli/objects/051a.jpg,dist2,lure,dist1,target,0,0,0,0,0,64,64,7,,,,,,,430.54226452484727,431.5749341901392,431.5749341901392,431.5749341901392,431.5749341901392,434.57893777638674,434.57893777638674,434.57893777638674,434.57893777638674,None,,,,,,,,,,,student1,2022-10-25_15h55.15.024,Hippopolis_Updating,2022.2.2,59.99794773326782,
Hippopolis,stimuli/subj_files/student1_cityA.csv,./stimuli/frankfurt.jpg,./stimuli/street_plate1.png,HEGEDŰ UTCA,stimuli/scenes/113a.jpg,scene,2,stimuli/objects/036a.jpg,stimuli/objects/036b.jpg,stimuli/scenes/059b.jpg,stimuli/scenes/059a.jpg,stimuli/objects/036a.jpg,lure,dist2,dist1,target,0,0,0,0,0,65,65,69,,,,,,,436.5463987328112,437.5817694887519,437.5817694887519,437.5817694887519,437.5817694887519,440.5828981306404,440.5828981306404,440.5828981306404,440.5828981306404,None,,,,,,,,,,,student1,2022-10-25_15h55.15.024,Hippopolis_Updating,2022.2.2,59.99794773326782,
Hippopolis,stimuli/subj_files/student1_cityA.csv,./stimuli/frankfurt.jpg,./stimuli/street_plate1.png,CUKOR UTCA,stimuli/objects/111a.jpg,object,0,stimuli/objects/111a.jpg,stimuli/objects/089b.jpg,stimuli/objects/111b.jpg,stimuli/objects/111a.jpg,stimuli/objects/089a.jpg,dist2,lure,target,dist1,0,0,0,0,0,66,66,30,,,,,,,442.55774300172925,443.5813222620636,443.5813222620636,443.5813222620636,443.5813222620636,446.5966670066118,446.5966670066118,446.5966670066118,446.5966670066118,None,,,,,,,,,,,student1,2022-10-25_15h55.15.024,Hippopolis_Updating,2022.2.2,59.99794773326782,
Hippopolis,stimuli/subj_files/student1_cityA.csv,./stimuli/frankfurt.jpg,./stimuli/street_plate1.png,KECSKE UTCA,stimuli/scenes/085a.jpg,scene,2,stimuli/objects/022a.jpg,stimuli/objects/022b.jpg,stimuli/objects/022a.jpg,stimuli/scenes/053a.jpg,stimuli/scenes/053b.jpg,lure,target,dist1,dist2,0,0,0,0,0,67,67,6,,,,,,,448.56110000424087,449.58911203965545,449.58911203965545,449.58911203965545,449.58911203965545,452.6104545406997,452.6104545406997,452.6104545406997,452.6104545406997,None,,,,,,,,,,,student1,2022-10-25_15h55.15.024,Hippopolis_Updating,2022.2.2,59.99794773326782,
Hippopolis,stimuli/subj_files/student1_cityA.csv,./stimuli/frankfurt.jpg,./stimuli/street_plate1.png,KORONG UTCA,stimuli/scenes/065a.jpg,scene,1,stimuli/scenes/004a.jpg,stimuli/scenes/004a.jpg,stimuli/scenes/011b.jpg,stimuli/scenes/011a.jpg,stimuli/scenes/004b.jpg,target,dist2,dist1,lure,0,0,0,0,0,68,68,53,,,,,,,454.57537270896137,455.59714844450355,455.59714844450355,455.59714844450355,455.59714844450355,458.6309728771448,458.6309728771448,458.6309728771448,458.6309728771448,None,,,,,,,,,,,student1,2022-10-25_15h55.15.024,Hippopolis_Updating,2022.2.2,59.99794773326782,
Hippopolis,stimuli/subj_files/student1_cityA.csv,./stimuli/frankfurt.jpg,./stimuli/street_plate1.png,SIVATAG UTCA,stimuli/scenes/016a.jpg,scene,2,stimuli/objects/046a.jpg,stimuli/objects/046b.jpg,stimuli/objects/006a.jpg,stimuli/objects/006b.jpg,stimuli/objects/046a.jpg,lure,dist1,dist2,target,0,0,0,0,0,69,69,23,,,,,,,460.59109843708575,461.6183429080993,461.6183429080993,461.6183429080993,461.6183429080993,464.6244125086814,464.6244125086814,464.6244125086814,464.6244125086814,None,,,,,,,,,,,student1,2022-10-25_15h55.15.024,Hippopolis_Updating,2022.2.2,59.99794773326782,
Hippopolis,stimuli/subj_files/student1_cityA.csv,./stimuli/frankfurt.jpg,./stimuli/street_plate1.png,MARTINI UTCA,stimuli/objects/060a.jpg,object,1,stimuli/objects/011a.jpg,stimuli/objects/075b.jpg,stimuli/objects/075a.jpg,stimuli/objects/011b.jpg,stimuli/objects/011a.jpg,dist2,dist1,lure,target,0,0,0,0,0,70,70,60,,,,,,,466.59414256736636,467.6158940438181,467.6158940438181,467.6158940438181,467.6158940438181,470.6552145816386,470.6552145816386,470.6552145816386,470.6552145816386,None,,,,,,,,,,,student1,2022-10-25_15h55.15.024,Hippopolis_Updating,2022.2.2,59.99794773326782,
Hippopolis,stimuli/subj_files/student1_cityA.csv,./stimuli/frankfurt.jpg,./stimuli/street_plate1.png,ÁRNYÉK UTCA,stimuli/objects/020a.jpg,object,1,stimuli/objects/027a.jpg,stimuli/scenes/004a.jpg,stimuli/objects/027b.jpg,stimuli/objects/027a.jpg,stimuli/scenes/004b.jpg,dist1,lure,target,dist2,0,0,0,0,0,71,71,52,,,,,,,472.60458771698177,473.6280425749719,473.6280425749719,473.6280425749719,473.6280425749719,476.65928845480084,476.65928845480084,476.65928845480084,476.65928845480084,None,,,,,,,,,,,student1,2022-10-25_15h55.15.024,Hippopolis_Updating,2022.2.2,59.99794773326782,
Hippopolis,stimuli/subj_files/student1_cityA.csv,./stimuli/frankfurt.jpg,./stimuli/street_plate1.png,PADLÓ UTCA,stimuli/objects/100a.jpg,object,0,stimuli/objects/100a.jpg,stimuli/scenes/058a.jpg,stimuli/scenes/058b.jpg,stimuli/objects/100a.jpg,stimuli/objects/100b.jpg,dist1,dist2,target,lure,0,0,0,0,0,72,72,59,,,,,,,478.60689134150743,479.62789391353726,479.62789391353726,479.62789391353726,479.62789391353726,482.66126210056245,482.66126210056245,482.66126210056245,482.66126210056245,None,,,,,,,,,,,student1,2022-10-25_15h55.15.024,Hippopolis_Updating,2022.2.2,59.99794773326782,
Hippopolis,stimuli/subj_files/student1_cityA.csv,./stimuli/frankfurt.jpg,./stimuli/street_plate1.png,HARMONIKA UTCA,stimuli/scenes/024a.jpg,scene,0,stimuli/scenes/024a.jpg,stimuli/scenes/101b.jpg,stimuli/scenes/024b.jpg,stimuli/scenes/101a.jpg,stimuli/scenes/024a.jpg,dist2,lure,dist1,target,0,0,0,0,0,73,73,25,,,,,,,484.6072595734149,485.62772192806005,485.62772192806005,485.62772192806005,485.62772192806005,488.64066539146006,488.64066539146006,488.64066539146006,488.64066539146006,None,,,,,,,,,,,student1,2022-10-25_15h55.15.024,Hippopolis_Updating,2022.2.2,59.99794773326782,
Hippopolis,stimuli/subj_files/student1_cityA.csv,./stimuli/frankfurt.jpg,./stimuli/street_plate1.png,KORONA UTCA,stimuli/scenes/108a.jpg,scene,1,stimuli/scenes/011a.jpg,stimuli/objects/076a.jpg,stimuli/scenes/011b.jpg,stimuli/objects/076b.jpg,stimuli/scenes/011a.jpg,dist1,lure,dist2,target,0,0,0,0,0,74,74,9,,,,,,,490.6101799234748,491.63084505312145,491.63084505312145,491.63084505312145,491.63084505312145,494.6356482356787,494.6356482356787,494.6356482356787,494.6356482356787,None,491.63084505312145,,,,,,,,,,student1,2022-10-25_15h55.15.024,Hippopolis_Updating,2022.2.2,59.99794773326782,
Hippopolis,stimuli/subj_files/student1_cityA.csv,./stimuli/frankfurt.jpg,./stimuli/street_plate1.png,KERÉK UTCA,stimuli/scenes/096a.jpg,scene,1,stimuli/scenes/041a.jpg,stimuli/scenes/117a.jpg,stimuli/scenes/041b.jpg,stimuli/scenes/041a.jpg,stimuli/scenes/117b.jpg,dist1,lure,target,dist2,0,0,0,0,0,75,75,20,,,,,,,496.6241391338408,497.64418256282806,497.64418256282806,497.64418256282806,497.64418256282806,500.6585544794798,500.6585544794798,500.6585544794798,500.6585544794798,None,,,,,,,,,,,student1,2022-10-25_15h55.15.024,Hippopolis_Updating,2022.2.2,59.99794773326782,
Hippopolis,stimuli/subj_files/student1_cityA.csv,./stimuli/frankfurt.jpg,./stimuli/street_plate1.png,TELEP UTCA,stimuli/scenes/048a.jpg,scene,2,stimuli/objects/120a.jpg,stimuli/objects/120a.jpg,stimuli/objects/120b.jpg,stimuli/scenes/119b.jpg,stimuli/scenes/119a.jpg,target,lure,dist2,dist1,0,0,0,0,0,76,76,75,,,,,,,502.647257482633,503.65997391194105,503.65997391194105,503.65997391194105,503.65997391194105,506.69858038052917,506.69858038052917,506.69858038052917,506.69858038052917,None,,,,,,,,,,,student1,2022-10-25_15h55.15.024,Hippopolis_Updating,2022.2.2,59.99794773326782,
Hippopolis,stimuli/subj_files/student1_cityA.csv,./stimuli/frankfurt.jpg,./stimuli/street_plate1.png,VÖDÖR UTCA,stimuli/scenes/055a.jpg,scene,1,stimuli/scenes/088a.jpg,stimuli/scenes/088b.jpg,stimuli/scenes/088a.jpg,stimuli/scenes/087b.jpg,stimuli/scenes/087a.jpg,lure,target,dist2,dist1,0,0,0,0,0,77,77,56,,,,,,,508.65786995366216,509.68124612793326,509.68124612793326,509.68124612793326,509.68124612793326,512.676233638078,512.676233638078,512.676233638078,512.676233638078,None,,,,,,,,,,,student1,2022-10-25_15h55.15.024,Hippopolis_Updating,2022.2.2,59.99794773326782,
Hippopolis,stimuli/subj_files/student1_cityA.csv,./stimuli/frankfurt.jpg,./stimuli/street_plate1.png,SZOMSZÉD UTCA,stimuli/objects/026a.jpg,object,1,stimuli/objects/004a.jpg,stimuli/objects/027b.jpg,stimuli/objects/004b.jpg,stimuli/objects/004a.jpg,stimuli/objects/027a.jpg,dist2,lure,target,dist1,0,0,0,0,0,78,78,65,,,,,,,514.6743893697858,515.6944673210382,515.6944673210382,515.6944673210382,515.6944673210382,518.7209308538586,518.7209308538586,518.7209308538586,518.7209308538586,None,,,,,,,,,,,student1,2022-10-25_15h55.15.024,Hippopolis_Updating,2022.2.2,59.99794773326782,
Hippopolis,stimuli/subj_files/student1_cityA.csv,./stimuli/frankfurt.jpg,./stimuli/street_plate1.png,BÖGRE UTCA,stimuli/objects/050a.jpg,object,1,stimuli/objects/076a.jpg,stimuli/scenes/037a.jpg,stimuli/objects/076a.jpg,stimuli/objects/076b.jpg,stimuli/scenes/037b.jpg,dist1,target,lure,dist2,0,0,0,0,0,79,79,41,,,,,,,520.685086434707,521.7122777234763,521.7122777234763,521.7122777234763,521.7122777234763,524.7178761493415,524.7178761493415,524.7178761493415,524.7178761493415,None,,,,,,,,,,,student1,2022-10-25_15h55.15.024,Hippopolis_Updating,2022.2.2,59.99794773326782,
Camponello,stimuli/subj_files/student1_cityB.csv,./stimuli/leipzig.jpg,./stimuli/street_plate2.png,TELEFON UTCA,stimuli/scenes/017a.jpg,scene,0,stimuli/scenes/017a.jpg,stimuli/objects/094b.jpg,stimuli/scenes/017b.jpg,stimuli/scenes/017a.jpg,stimuli/objects/094a.jpg,dist2,lure,target,dist1,0,1,1,1,0,0,0,27,,,,,534.7829246912152,534.7829246912152,537.755617396906,538.7609203662723,538.7609203662723,538.7609203662723,538.7609203662723,541.7564823050052,541.7564823050052,541.7564823050052,541.7564823050052,None,,,,,526.6940303556621,526.6940303556621,space,8.011086395010352,,,student1,2022-10-25_15h55.15.024,Hippopolis_Updating,2022.2.2,59.99794773326782,
Camponello,stimuli/subj_files/student1_cityB.csv,./stimuli/leipzig.jpg,./stimuli/street_plate2.png,SALÁTA UTCA,stimuli/objects/008a.jpg,object,0,stimuli/objects/008a.jpg,stimuli/scenes/099b.jpg,stimuli/objects/008b.jpg,stimuli/objects/008a.jpg,stimuli/scenes/099a.jpg,dist2,lure,target,dist1,0,1,1,1,0,1,1,73,,,,,,,543.7425184305757,544.7606774717569,544.7606774717569,544.7606774717569,544.7606774717569,547.7704169470817,547.7704169470817,547.7704169470817,547.7704169470817,None,544.7606774717569,,,,,,,,,,student1,2022-10-25_15h55.15.024,Hippopolis_Updating,2022.2.2,59.99794773326782,
Camponello,stimuli/subj_files/student1_cityB.csv,./stimuli/leipzig.jpg,./stimuli/street_plate2.png,BETON UTCA,stimuli/objects/104a.jpg,object,2,stimuli/scenes/063a.jpg,stimuli/scenes/063b.jpg,stimuli/scenes/063a.jpg,stimuli/objects/054a.jpg,stimuli/objects/054b.jpg,lure,target,dist1,dist2,0,1,1,1,0,2,2,52,,,,,,,549.7539833690971,550.7820115759969,550.7820115759969,550.7820115759969,550.7820115759969,553.7949223853648,553.7949223853648,553.7949223853648,553.7949223853648,None,,,,,,,,,,,student1,2022-10-25_15h55.15.024,Hippopolis_Updating,2022.2.2,59.99794773326782,
Camponello,stimuli/subj_files/student1_cityB.csv,./stimuli/leipzig.jpg,./stimuli/street_plate2.png,VITORLA UTCA,stimuli/scenes/110a.jpg,scene,1,stimuli/scenes/062a.jpg,stimuli/scenes/107a.jpg,stimuli/scenes/107b.jpg,stimuli/scenes/062b.jpg,stimuli/scenes/062a.jpg,dist1,dist2,lure,target,0,1,1,1,0,3,3,45,,,,,,,555.7568928338587,556.7774830125272,556.7774830125272,556.7774830125272,556.7774830125272,559.8022960349917,559.8022960349917,559.8022960349917,559.8022960349917,None,,,,,,,,,,,student1,2022-10-25_15h55.15.024,Hippopolis_Updating,2022.2.2,59.99794773326782,
Camponello,stimuli/subj_files/student1_cityB.csv,./stimuli/leipzig.jpg,./stimuli/street_plate2.png,SZILVA UTCA,stimuli/objects/105a.jpg,object,0,stimuli/objects/105a.jpg,stimuli/objects/049b.jpg,stimuli/objects/105b.jpg,stimuli/objects/049a.jpg,stimuli/objects/105a.jpg,dist2,lure,dist1,target,0,1,1,1,0,4,4,36,,,,,,,561.7590785864741,562.7770699951798,562.7770699951798,562.7770699951798,562.7770699951798,565.7933835256845,565.7933835256845,565.7933835256845,565.7933835256845,None,,,,,,,,,,,student1,2022-10-25_15h55.15.024,Hippopolis_Updating,2022.2.2,59.99794773326782,
Camponello,stimuli/subj_files/student1_cityB.csv,./stimuli/leipzig.jpg,./stimuli/street_plate2.png,ZÁSZLÓ UTCA,stimuli/scenes/103a.jpg,scene,2,stimuli/objects/037a.jpg,stimuli/scenes/102b.jpg,stimuli/objects/037b.jpg,stimuli/scenes/102a.jpg,stimuli/objects/037a.jpg,dist2,lure,dist1,target,0,1,1,1,0,5,5,60,,,,,,,567.7596427518874,568.7849017586559,568.7849017586559,568.7849017586559,568.7849017586559,571.8097238000482,571.8097238000482,571.8097238000482,571.8097238000482,None,,,,,,,,,,,student1,2022-10-25_15h55.15.024,Hippopolis_Updating,2022.2.2,59.99794773326782,
Camponello,stimuli/subj_files/student1_cityB.csv,./stimuli/leipzig.jpg,./stimuli/street_plate2.png,SZŐNYEG UTCA,stimuli/objects/040a.jpg,object,0,stimuli/objects/040a.jpg,stimuli/objects/040a.jpg,stimuli/objects/040b.jpg,stimuli/objects/019b.jpg,stimuli/objects/019a.jpg,target,lure,dist2,dist1,0,1,1,1,0,6,6,29,,,,,,,573.7724198289216,574.795125471428,574.795125471428,574.795125471428,574.795125471428,577.8112629707903,577.8112629707903,577.8112629707903,577.8112629707903,None,,,,,,,,,,,student1,2022-10-25_15h55.15.024,Hippopolis_Updating,2022.2.2,59.99794773326782,
Camponello,stimuli/subj_files/student1_cityB.csv,./stimuli/leipzig.jpg,./stimuli/street_plate2.png,MOSODA UTCA,stimuli/objects/052a.jpg,object,0,stimuli/objects/052a.jpg,stimuli/objects/052b.jpg,stimuli/scenes/035a.jpg,stimuli/objects/052a.jpg,stimuli/scenes/035b.jpg,lure,dist1,target,dist2,0,1,1,1,0,7,7,51,,,,,,,579.7734399288893,580.7931459154934,580.7931459154934,580.7931459154934,580.7931459154934,583.807709723711,583.807709723711,583.807709723711,583.807709723711,None,,,,,,,,,,,student1,2022-10-25_15h55.15.024,Hippopolis_Updating,2022.2.2,59.99794773326782,
Camponello,stimuli/subj_files/student1_cityB.csv,./stimuli/leipzig.jpg,./stimuli/street_plate2.png,KANÁL UTCA,stimuli/scenes/057a.jpg,scene,1,stimuli/scenes/020a.jpg,stimuli/scenes/020b.jpg,stimuli/scenes/020a.jpg,stimuli/scenes/062a.jpg,stimuli/scenes/062b.jpg,lure,target,dist1,dist2,0,1,1,1,0,8,8,14,,,,,,,585.7879250515252,586.8096724841744,586.8096724841744,586.8096724841744,586.8096724841744,589.8465046603233,589.8465046603233,589.8465046603233,589.8465046603233,None,,,,,,,,,,,student1,2022-10-25_15h55.15.024,Hippopolis_Updating,2022.2.2,59.99794773326782,
Camponello,stimuli/subj_files/student1_cityB.csv,./stimuli/leipzig.jpg,./stimuli/street_plate2.png,BÚJÓCSKA UTCA,stimuli/scenes/015a.jpg,scene,1,stimuli/scenes/086a.jpg,stimuli/scenes/105b.jpg,stimuli/scenes/086a.jpg,stimuli/scenes/105a.jpg,stimuli/scenes/086b.jpg,dist2,target,dist1,lure,0,1,1,1,0,9,9,48,,,,,,,591.7978337164968,592.832447482273,592.832447482273,592.832447482273,592.832447482273,595.8178494647145,595.8178494647145,595.8178494647145,595.8178494647145,None,,,,,,,,,,,student1,2022-10-25_15h55.15.024,Hippopolis_Updating,2022.2.2,59.99794773326782,
Camponello,stimuli/subj_files/student1_cityB.csv,./stimuli/leipzig.jpg,./stimuli/street_plate2.png,SUGÁR UTCA,stimuli/objects/094a.jpg,object,0,stimuli/objects/094a.jpg,stimuli/objects/094b.jpg,stimuli/objects/064b.jpg,stimuli/objects/064a.jpg,stimuli/objects/094a.jpg,lure,dist2,dist1,target,0,1,1,1,0,10,10,40,,,,,,,597.8065213672817,598.8267818801105,598.8267818801105,598.8267818801105,598.8267818801105,601.8375877961516,601.8375877961516,601.8375877961516,601.8375877961516,None,,,,,,,,,,,student1,2022-10-25_15h55.15.024,Hippopolis_Updating,2022.2.2,59.99794773326782,
Camponello,stimuli/subj_files/student1_cityB.csv,./stimuli/leipzig.jpg,./stimuli/street_plate2.png,KATONA UTCA,stimuli/objects/077a.jpg,object,0,stimuli/objects/077a.jpg,stimuli/objects/077a.jpg,stimuli/scenes/115a.jpg,stimuli/scenes/115b.jpg,stimuli/objects/077b.jpg,target,dist1,dist2,lure,0,1,1,1,0,11,11,74,,,,,,,603.8108714148402,604.8420762401074,604.8420762401074,604.8420762401074,604.8420762401074,607.8385500498116,607.8385500498116,607.8385500498116,607.8385500498116,None,,,,,,,,,,,student1,2022-10-25_15h55.15.024,Hippopolis_Updating,2022.2.2,59.99794773326782,
Camponello,stimuli/subj_files/student1_cityB.csv,./stimuli/leipzig.jpg,./stimuli/street_plate2.png,POLIP UTCA,stimuli/scenes/077a.jpg,scene,0,stimuli/scenes/077a.jpg,stimuli/scenes/077b.jpg,stimuli/scenes/077a.jpg,stimuli/scenes/091b.jpg,stimuli/scenes/091a.jpg,lure,target,dist2,dist1,0,1,1,1,0,12,12,49,,,,,,,609.8245479203761,610.8438741695136,610.8438741695136,610.8438741695136,610.8438741695136,613.8538437895477,613.8538437895477,613.8538437895477,613.8538437895477,None,,,,,,,,,,,student1,2022-10-25_15h55.15.024,Hippopolis_Updating,2022.2.2,59.99794773326782,
Camponello,stimuli/subj_files/student1_cityB.csv,./stimuli/leipzig.jpg,./stimuli/street_plate2.png,KAKAÓ UTCA,stimuli/objects/099a.jpg,object,1,stimuli/objects/119a.jpg,stimuli/scenes/086a.jpg,stimuli/objects/119a.jpg,stimuli/scenes/086b.jpg,stimuli/objects/119b.jpg,dist1,target,dist2,lure,0,1,1,1,0,13,13,0,,,,,,,615.8307251296937,616.8582053426653,616.8582053426653,616.8582053426653,616.8582053426653,619.8963477890939,619.8963477890939,619.8963477890939,619.8963477890939,None,,,,,,,,,,,student1,2022-10-25_15h55.15.024,Hippopolis_Updating,2022.2.2,59.99794773326782,
Camponello,stimuli/subj_files/student1_cityB.csv,./stimuli/leipzig.jpg,./stimuli/street_plate2.png,FEJSZE UTCA,stimuli/objects/065a.jpg,object,0,stimuli/objects/065a.jpg,stimuli/scenes/075b.jpg,stimuli/objects/065b.jpg,stimuli/objects/065a.jpg,stimuli/scenes/075a.jpg,dist2,lure,target,dist1,0,1,1,1,0,14,14,9,,,,,,,621.8474575839937,622.8758316300809,622.8758316300809,622.8758316300809,622.8758316300809,625.875064689666,625.875064689666,625.875064689666,625.875064689666,None,,,,,,,,,,,student1,2022-10-25_15h55.15.024,Hippopolis_Updating,2022.2.2,59.99794773326782,
Camponello,stimuli/subj_files/student1_cityB.csv,./stimuli/leipzig.jpg,./stimuli/street_plate2.png,BANÁN UTCA,stimuli/scenes/045a.jpg,scene,0,stimuli/scenes/045a.jpg,stimuli/scenes/045b.jpg,stimuli/scenes/045a.jpg,stimuli/scenes/112b.jpg,stimuli/scenes/112a.jpg,lure,target,dist2,dist1,0,1,1,1,0,15,15,57,,,,,,,627.8519037310034,628.8760767038912,628.8760767038912,628.8760767038912,628.8760767038912,631.8778198938817,631.8778198938817,631.8778198938817,631.8778198938817,None,,,,,,,,,,,student1,2022-10-25_15h55.15.024,Hippopolis_Updating,2022.2.2,59.99794773326782,
Camponello,stimuli/subj_files/student1_cityB.csv,./stimuli/leipzig.jpg,./stimuli/street_plate2.png,FÉSŰ UTCA,stimuli/objects/084a.jpg,object,0,stimuli/objects/084a.jpg,stimuli/objects/118b.jpg,stimuli/objects/118a.jpg,stimuli/objects/084a.jpg,stimuli/objects/084b.jpg,dist2,dist1,target,lure,0,1,1,1,0,16,16,23,,,,,,,633.8595529347658,634.8764604851604,634.8764604851604,634.8764604851604,634.8764604851604,637.8851213920861,637.8851213920861,637.8851213920861,637.8851213920861,None,,,,,,,,,,,student1,2022-10-25_15h55.15.024,Hippopolis_Updating,2022.2.2,59.99794773326782,
Camponello,stimuli/subj_files/student1_cityB.csv,./stimuli/leipzig.jpg,./stimuli/street_plate2.png,LEVÉL UTCA,stimuli/scenes/019a.jpg,scene,0,stimuli/scenes/019a.jpg,stimuli/objects/052a.jpg,stimuli/scenes/019a.jpg,stimuli/scenes/019b.jpg,stimuli/objects/052b.jpg,dist1,target,lure,dist2,0,1,1,1,0,17,17,8,,,,,,,639.8648926019669,640.8944033775479,640.8944033775479,640.8944033775479,640.8944033775479,643.8902240730822,643.8902240730822,643.8902240730822,643.8902240730822,None,,,,,,,,,,,student1,2022-10-25_15h55.15.024,Hippopolis_Updating,2022.2.2,59.99794773326782,
Camponello,stimuli/subj_files/student1_cityB.csv,./stimuli/leipzig.jpg,./stimuli/street_plate2.png,KOSÁR UTCA,stimuli/objects/057a.jpg,object,2,stimuli/scenes/001a.jpg,stimuli/scenes/001a.jpg,stimuli/scenes/001b.jpg,stimuli/objects/005b.jpg,stimuli/objects/005a.jpg,target,lure,dist2,dist1,0,1,1,1,0,18,18,38,,,,,,,645.8706288039684,646.8932626061141,646.8932626061141,646.8932626061141,646.8932626061141,649.9025473911315,649.9025473911315,649.9025473911315,649.9025473911315,None,,,,,,,,,,,student1,2022-10-25_15h55.15.024,Hippopolis_Updating,2022.2.2,59.99794773326782,
Camponello,stimuli/subj_files/student1_cityB.csv,./stimuli/leipzig.jpg,./stimuli/street_plate2.png,FÜGE UTCA,stimuli/scenes/115a.jpg,scene,0,stimuli/scenes/115a.jpg,stimuli/scenes/115b.jpg,stimuli/scenes/115a.jpg,stimuli/objects/084b.jpg,stimuli/objects/084a.jpg,lure,target,dist2,dist1,0,1,1,1,0,19,19,47,,,,,,,651.875322824344,652.89307102561,652.89307102561,652.89307102561,652.89307102561,655.9141031447798,655.9141031447798,655.9141031447798,655.9141031447798,None,652.89307102561,,,,,,,,,,student1,2022-10-25_15h55.15.024,Hippopolis_Updating,2022.2.2,59.99794773326782,
Camponello,stimuli/subj_files/student1_cityB.csv,./stimuli/leipzig.jpg,./stimuli/street_plate2.png,FOLYÓ UTCA,stimuli/scenes/035a.jpg,scene,0,stimuli/scenes/035a.jpg,stimuli/objects/034a.jpg,stimuli/scenes/035a.jpg,stimuli/objects/034b.jpg,stimuli/scenes/035b.jpg,dist1,target,dist2,lure,0,1,1,1,0,20,20,61,,,,,,,657.8889551665634,658.9094971399754,658.9094971399754,658.9094971399754,658.9094971399754,661.9212528709322,661.9212528709322,661.9212528709322,661.9212528709322,None,,,,,,,,,,,student1,2022-10-25_15h55.15.024,Hippopolis_Updating,2022.2.2,59.99794773326782,
Camponello,stimuli/subj_files/student1_cityB.csv,./stimuli/leipzig.jpg,./stimuli/street_plate2.png,VÁSÁR UTCA,stimuli/scenes/089a.jpg,scene,0,stimuli/scenes/089a.jpg,stimuli/scenes/089a.jpg,stimuli/scenes/089b.jpg,stimuli/scenes/082b.jpg,stimuli/scenes/082a.jpg,target,lure,dist2,dist1,0,1,1,1,0,21,21,41,,,,,,,663.9045365881175,664.93055476062,664.93055476062,664.93055476062,664.93055476062,667.9325252976269,667.9325252976269,667.9325252976269,667.9325252976269,None,,,,,,,,,,,student1,2022-10-25_15h55.15.024,Hippopolis_Updating,2022.2.2,59.99794773326782,
Camponello,stimuli/subj_files/student1_cityB.csv,./stimuli/leipzig.jpg,./stimuli/street_plate2.png,ZEBRA UTCA,stimuli/scenes/106a.jpg,scene,0,stimuli/scenes/106a.jpg,stimuli/scenes/030a.jpg,stimuli/scenes/106a.jpg,stimuli/scenes/106b.jpg,stimuli/scenes/030b.jpg,dist1,target,lure,dist2,0,1,1,1,0,22,22,12,,,,,,,669.9133623261005,670.941597353667,670.941597353667,670.941597353667,670.941597353667,673.9280760399997,673.9280760399997,673.9280760399997,673.9280760399997,None,,,,,,,,,,,student1,2022-10-25_15h55.15.024,Hippopolis_Updating,2022.2.2,59.99794773326782,
Camponello,stimuli/subj_files/student1_cityB.csv,./stimuli/leipzig.jpg,./stimuli/street_plate2.png,ORVOS UTCA,stimuli/objects/016a.jpg,object,0,stimuli/objects/016a.jpg,stimuli/scenes/089a.jpg,stimuli/scenes/089b.jpg,stimuli/objects/016a.jpg,stimuli/objects/016b.jpg,dist1,dist2,target,lure,0,1,1,1,0,23,23,4,,,,,,,675.92082959041,676.9419749155641,676.9419749155641,676.9419749155641,676.9419749155641,679.9469724763185,679.9469724763185,679.9469724763185,679.9469724763185,None,,,,,,,,,,,student1,2022-10-25_15h55.15.024,Hippopolis_Updating,2022.2.2,59.99794773326782,
Camponello,stimuli/subj_files/student1_cityB.csv,./stimuli/leipzig.jpg,./stimuli/street_plate2.png,ASZTAL UTCA,stimuli/scenes/120a.jpg,scene,2,stimuli/objects/035a.jpg,stimuli/scenes/079b.jpg,stimuli/scenes/079a.jpg,stimuli/objects/035b.jpg,stimuli/objects/035a.jpg,dist2,dist1,lure,target,0,1,1,1,0,24,24,24,,,,,,,681.9220107924193,682.9450364615768,682.9450364615768,682.9450364615768,682.9450364615768,685.9729038793594,685.9729038793594,685.9729038793594,685.9729038793594,None,,,,,,,,,,,student1,2022-10-25_15h55.15.024,Hippopolis_Updating,2022.2.2,59.99794773326782,
Camponello,stimuli/subj_files/student1_cityB.csv,./stimuli/leipzig.jpg,./stimuli/street_plate2.png,LABDA UTCA,stimuli/objects/082a.jpg,object,0,stimuli/objects/082a.jpg,stimuli/scenes/049a.jpg,stimuli/scenes/049b.jpg,stimuli/objects/082b.jpg,stimuli/objects/082a.jpg,dist1,dist2,lure,target,0,1,1,1,0,25,25,72,,,,,,,687.9335457086563,688.9598481412977,688.9598481412977,688.9598481412977,688.9598481412977,691.9601715877652,691.9601715877652,691.9601715877652,691.9601715877652,None,,,,,,,,,,,student1,2022-10-25_15h55.15.024,Hippopolis_Updating,2022.2.2,59.99794773326782,
Camponello,stimuli/subj_files/student1_cityB.csv,./stimuli/leipzig.jpg,./stimuli/street_plate2.png,KÁRTYA UTCA,stimuli/scenes/076a.jpg,scene,0,stimuli/scenes/076a.jpg,stimuli/objects/008a.jpg,stimuli/scenes/076b.jpg,stimuli/scenes/076a.jpg,stimuli/objects/008b.jpg,dist1,lure,target,dist2,0,1,1,1,0,26,26,64,,,,,,,693.9404584486037,694.9609372857958,694.9609372857958,694.9609372857958,694.9609372857958,697.9725169874728,697.9725169874728,697.9725169874728,697.9725169874728,None,694.9609372857958,,,,,,,,,,student1,2022-10-25_15h55.15.024,Hippopolis_Updating,2022.2.2,59.99794773326782,
Camponello,stimuli/subj_files/student1_cityB.csv,./stimuli/leipzig.jpg,./stimuli/street_plate2.png,TÁNYÉR UTCA,stimuli/objects/118a.jpg,object,0,stimuli/objects/118a.jpg,stimuli/objects/102b.jpg,stimuli/objects/102a.jpg,stimuli/objects/118b.jpg,stimuli/objects/118a.jpg,dist2,dist1,lure,target,0,1,1,1,0,27,27,28,,,,,,,699.9457219205797,700.9771012216806,700.9771012216806,700.9771012216806,700.9771012216806,703.9726071786135,703.9726071786135,703.9726071786135,703.9726071786135,None,,,,,,,,,,,student1,2022-10-25_15h55.15.024,Hippopolis_Updating,2022.2.2,59.99794773326782,
Camponello,stimuli/subj_files/student1_cityB.csv,./stimuli/leipzig.jpg,./stimuli/street_plate2.png,SIRÁLY UTCA,stimuli/objects/081a.jpg,object,0,stimuli/objects/081a.jpg,stimuli/objects/081a.jpg,stimuli/objects/081b.jpg,stimuli/scenes/019a.jpg,stimuli/scenes/019b.jpg,target,lure,dist1,dist2,0,1,1,1,0,28,28,50,,,,,,,705.9461349360645,706.9762276038527,706.9762276038527,706.9762276038527,706.9762276038527,709.9743833355606,709.9743833355606,709.9743833355606,709.9743833355606,None,,,,,,,,,,,student1,2022-10-25_15h55.15.024,Hippopolis_Updating,2022.2.2,59.99794773326782,
Camponello,stimuli/subj_files/student1_cityB.csv,./stimuli/leipzig.jpg,./stimuli/street_plate2.png,SZÖCSKE UTCA,stimuli/scenes/026a.jpg,scene,2,stimuli/objects/061a.jpg,stimuli/scenes/063a.jpg,stimuli/objects/061a.jpg,stimuli/scenes/063b.jpg,stimuli/objects/061b.jpg,dist1,target,dist2,lure,0,1,1,1,0,29,29,71,,,,,,,711.949004592374,712.9754914510995,712.9754914510995,712.9754914510995,712.9754914510995,716.0001866035163,716.0001866035163,716.0001866035163,716.0001866035163,None,,,,,,,,,,,student1,2022-10-25_15h55.15.024,Hippopolis_Updating,2022.2.2,59.99794773326782,
Camponello,stimuli/subj_files/student1_cityB.csv,./stimuli/leipzig.jpg,./stimuli/street_plate2.png,LEGELŐ UTCA,stimuli/objects/030a.jpg,object,0,stimuli/objects/030a.jpg,stimuli/objects/039a.jpg,stimuli/objects/030a.jpg,stimuli/objects/030b.jpg,stimuli/objects/039b.jpg,dist1,target,lure,dist2,0,1,1,1,0,30,30,70,,,,,,,717.9545053616166,718.9750146791339,718.9750146791339,718.9750146791339,718.9750146791339,721.9963910821825,721.9963910821825,721.9963910821825,721.9963910821825,None,,,,,,,,,,,student1,2022-10-25_15h55.15.024,Hippopolis_Updating,2022.2.2,59.99794773326782,
Camponello,stimuli/subj_files/student1_cityB.csv,./stimuli/leipzig.jpg,./stimuli/street_plate2.png,ECSET UTCA,stimuli/scenes/003a.jpg,scene,2,stimuli/objects/005a.jpg,stimuli/objects/035b.jpg,stimuli/objects/005b.jpg,stimuli/objects/035a.jpg,stimuli/objects/005a.jpg,dist2,lure,dist1,target,0,1,1,1,0,31,31,11,,,,,,,723.9581201896071,724.9766359552741,724.9766359552741,724.9766359552741,724.9766359552741,728.0139243770391,728.0139243770391,728.0139243770391,728.0139243770391,None,724.9766359552741,,,,,,,,,,student1,2022-10-25_15h55.15.024,Hippopolis_Updating,2022.2.2,59.99794773326782,
Camponello,stimuli/subj_files/student1_cityB.csv,./stimuli/leipzig.jpg,./stimuli/street_plate2.png,PÁRNA UTCA,stimuli/objects/112a.jpg,object,0,stimuli/objects/112a.jpg,stimuli/objects/112b.jpg,stimuli/scenes/032b.jpg,stimuli/scenes/032a.jpg,stimuli/objects/112a.jpg,lure,dist2,dist1,target,0,1,1,1,0,32,32,77,,,,,,,729.9718411695212,730.9960436876863,730.9960436876863,730.9960436876863,730.9960436876863,734.0048967953771,734.0048967953771,734.0048967953771,734.0048967953771,None,,,,,,,,,,,student1,2022-10-25_15h55.15.024,Hippopolis_Updating,2022.2.2,59.99794773326782,
Camponello,stimuli/subj_files/student1_cityB.csv,./stimuli/leipzig.jpg,./stimuli/street_plate2.png,KRÉTA UTCA,stimuli/scenes/091a.jpg,scene,0,stimuli/scenes/091a.jpg,stimuli/scenes/098b.jpg,stimuli/scenes/091b.jpg,stimuli/scenes/098a.jpg,stimuli/scenes/091a.jpg,dist2,lure,dist1,target,0,1,1,1,0,33,33,21,,,,,,,735.9794001802802,737.0092188511044,737.0092188511044,737.0092188511044,737.0092188511044,740.0052650272846,740.0052650272846,740.0052650272846,740.0052650272846,None,,,,,,,,,,,student1,2022-10-25_15h55.15.024,Hippopolis_Updating,2022.2.2,59.99794773326782,
Camponello,stimuli/subj_files/student1_cityB.csv,./stimuli/leipzig.jpg,./stimuli/street_plate2.png,SZŐLŐ UTCA,stimuli/scenes/099a.jpg,scene,0,stimuli/scenes/099a.jpg,stimuli/objects/105a.jpg,stimuli/scenes/099a.jpg,stimuli/scenes/099b.jpg,stimuli/objects/105b.jpg,dist1,target,lure,dist2,0,1,1,1,0,34,34,55,,,,,,,741.987191202119,743.0124386996031,743.0124386996031,743.0124386996031,743.0124386996031,746.018148155883,746.018148155883,746.018148155883,746.018148155883,None,,,,,,,,,,,student1,2022-10-25_15h55.15.024,Hippopolis_Updating,2022.2.2,59.99794773326782,
Camponello,stimuli/subj_files/student1_cityB.csv,./stimuli/leipzig.jpg,./stimuli/street_plate2.png,HORGONY UTCA,stimuli/objects/039a.jpg,object,0,stimuli/objects/039a.jpg,stimuli/objects/039b.jpg,stimuli/objects/039a.jpg,stimuli/objects/092b.jpg,stimuli/objects/092a.jpg,lure,target,dist2,dist1,0,1,1,1,0,35,35,26,,,,,,,747.9958685897291,749.0145305283368,749.0145305283368,749.0145305283368,749.0145305283368,752.0224083214998,752.0224083214998,752.0224083214998,752.0224083214998,None,,,,,,,,,,,student1,2022-10-25_15h55.15.024,Hippopolis_Updating,2022.2.2,59.99794773326782,
Camponello,stimuli/subj_files/student1_cityB.csv,./stimuli/leipzig.jpg,./stimuli/street_plate2.png,RIBIZLI UTCA,stimuli/objects/088a.jpg,object,0,stimuli/objects/088a.jpg,stimuli/objects/088b.jpg,stimuli/objects/065a.jpg,stimuli/objects/088a.jpg,stimuli/objects/065b.jpg,lure,dist1,target,dist2,0,1,1,1,0,36,36,34,,,,,,,754.0017245300114,755.0248590521514,755.0248590521514,755.0248590521514,755.0248590521514,758.0234281104058,758.0234281104058,758.0234281104058,758.0234281104058,None,,,,,,,,,,,student1,2022-10-25_15h55.15.024,Hippopolis_Updating,2022.2.2,59.99794773326782,
Camponello,stimuli/subj_files/student1_cityB.csv,./stimuli/leipzig.jpg,./stimuli/street_plate2.png,TERÍTŐ UTCA,stimuli/objects/098a.jpg,object,1,stimuli/objects/096a.jpg,stimuli/objects/096b.jpg,stimuli/objects/096a.jpg,stimuli/objects/013b.jpg,stimuli/objects/013a.jpg,lure,target,dist2,dist1,0,1,1,1,0,37,37,39,,,,,,,760.0042013842613,761.0275305956602,761.0275305956602,761.0275305956602,761.0275305956602,764.0539263300598,764.0539263300598,764.0539263300598,764.0539263300598,None,,,,,,,,,,,student1,2022-10-25_15h55.15.024,Hippopolis_Updating,2022.2.2,59.99794773326782,
Camponello,stimuli/subj_files/student1_cityB.csv,./stimuli/leipzig.jpg,./stimuli/street_plate2.png,HARCSA UTCA,stimuli/scenes/080a.jpg,scene,2,stimuli/objects/029a.jpg,stimuli/scenes/054b.jpg,stimuli/scenes/054a.jpg,stimuli/objects/029b.jpg,stimuli/objects/029a.jpg,dist2,dist1,lure,target,0,1,1,1,0,38,38,59,,,,,,,766.0061635244638,767.0293698888272,767.0293698888272,767.0293698888272,767.0293698888272,770.0487726442516,770.0487726442516,770.0487726442516,770.0487726442516,None,,,,,,,,,,,student1,2022-10-25_15h55.15.024,Hippopolis_Updating,2022.2.2,59.99794773326782,
Camponello,stimuli/subj_files/student1_cityB.csv,./stimuli/leipzig.jpg,./stimuli/street_plate2.png,ZONGORA UTCA,stimuli/objects/034a.jpg,object,0,stimuli/objects/034a.jpg,stimuli/objects/034a.jpg,stimuli/objects/034b.jpg,stimuli/objects/016b.jpg,stimuli/objects/016a.jpg,target,lure,dist2,dist1,0,1,1,1,0,39,39,31,,,,,,,772.0130268130451,773.0413262173533,773.0413262173533,773.0413262173533,773.0413262173533,776.037692418322,776.037692418322,776.037692418322,776.037692418322,None,,,,,,,,,,,student1,2022-10-25_15h55.15.024,Hippopolis_Updating,2022.2.2,59.99794773326782,
Camponello,stimuli/subj_files/student1_cityB.csv,./stimuli/leipzig.jpg,./stimuli/street_plate2.png,LÉPCSŐ UTCA,stimuli/objects/049a.jpg,object,0,stimuli/objects/049a.jpg,stimuli/scenes/076b.jpg,stimuli/scenes/076a.jpg,stimuli/objects/049b.jpg,stimuli/objects/049a.jpg,dist2,dist1,lure,target,0,1,1,1,0,40,40,43,,,,,,,778.0286723002791,779.0558262690902,779.0558262690902,779.0558262690902,779.0558262690902,782.0645412895828,782.0645412895828,782.0645412895828,782.0645412895828,None,,,,,,,,,,,student1,2022-10-25_15h55.15.024,Hippopolis_Updating,2022.2.2,59.99794773326782,
Camponello,stimuli/subj_files/student1_cityB.csv,./stimuli/leipzig.jpg,./stimuli/street_plate2.png,TORONY UTCA,stimuli/scenes/094a.jpg,scene,2,stimuli/objects/054a.jpg,stimuli/scenes/001a.jpg,stimuli/scenes/001b.jpg,stimuli/objects/054b.jpg,stimuli/objects/054a.jpg,dist1,dist2,lure,target,0,1,1,1,0,41,41,62,,,,,,,784.0454398989677,785.073353966698,785.073353966698,785.073353966698,785.073353966698,788.0782660022378,788.0782660022378,788.0782660022378,788.0782660022378,None,,,,,,,,,,,student1,2022-10-25_15h55.15.024,Hippopolis_Updating,2022.2.2,59.99794773326782,
Camponello,stimuli/subj_files/student1_cityB.csv,./stimuli/leipzig.jpg,./stimuli/street_plate2.png,ÁLLOMÁS UTCA,stimuli/scenes/069a.jpg,scene,0,stimuli/scenes/069a.jpg,stimuli/scenes/106a.jpg,stimuli/scenes/106b.jpg,stimuli/scenes/069b.jpg,stimuli/scenes/069a.jpg,dist1,dist2,lure,target,0,1,1,1,0,42,42,42,,,,,,,790.0464282780886,791.0743292830884,791.0743292830884,791.0743292830884,791.0743292830884,794.0742960050702,794.0742960050702,794.0742960050702,794.0742960050702,None,,,,,,,,,,,student1,2022-10-25_15h55.15.024,Hippopolis_Updating,2022.2.2,59.99794773326782,
Camponello,stimuli/subj_files/student1_cityB.csv,./stimuli/leipzig.jpg,./stimuli/street_plate2.png,FÉSZEK UTCA,stimuli/objects/042a.jpg,object,1,stimuli/objects/044a.jpg,stimuli/scenes/020b.jpg,stimuli/objects/044a.jpg,stimuli/scenes/020a.jpg,stimuli/objects/044b.jpg,dist2,target,dist1,lure,0,1,1,1,0,43,43,10,,,,,,,796.0534567106515,797.0742701925337,797.0742701925337,797.0742701925337,797.0742701925337,800.090605802834,800.090605802834,800.090605802834,800.090605802834,None,,,,,,,,,,,student1,2022-10-25_15h55.15.024,Hippopolis_Updating,2022.2.2,59.99794773326782,
Camponello,stimuli/subj_files/student1_cityB.csv,./stimuli/leipzig.jpg,./stimuli/street_plate2.png,TOLMÁCS UTCA,stimuli/scenes/082a.jpg,scene,0,stimuli/scenes/082a.jpg,stimuli/scenes/082b.jpg,stimuli/objects/081b.jpg,stimuli/objects/081a.jpg,stimuli/scenes/082a.jpg,lure,dist2,dist1,target,0,1,1,1,0,44,44,2,,,,,,,802.0702053382993,803.0910203736275,803.0910203736275,803.0910203736275,803.0910203736275,806.0956951119006,806.0956951119006,806.0956951119006,806.0956951119006,space,,808.0868575535715,808.0868575535715,5.526843843981624,,,,,,,student1,2022-10-25_15h55.15.024,Hippopolis_Updating,2022.2.2,59.99794773326782,
Camponello,stimuli/subj_files/student1_cityB.csv,./stimuli/leipzig.jpg,./stimuli/street_plate2.png,HENTES UTCA,stimuli/scenes/092a.jpg,scene,0,stimuli/scenes/092a.jpg,stimuli/scenes/114b.jpg,stimuli/scenes/114a.jpg,stimuli/scenes/092a.jpg,stimuli/scenes/092b.jpg,dist2,dist1,target,lure,0,1,1,1,0,45,45,46,,,,,,,813.6378405205905,814.6575001683086,814.6575001683086,814.6575001683086,814.6575001683086,817.6715626325458,817.6715626325458,817.6715626325458,817.6715626325458,None,,,,,,,,,,,student1,2022-10-25_15h55.15.024,Hippopolis_Updating,2022.2.2,59.99794773326782,
Camponello,stimuli/subj_files/student1_cityB.csv,./stimuli/leipzig.jpg,./stimuli/street_plate2.png,MÁRVÁNY UTCA,stimuli/scenes/023a.jpg,scene,0,stimuli/scenes/023a.jpg,stimuli/objects/030a.jpg,stimuli/scenes/023b.jpg,stimuli/objects/030b.jpg,stimuli/scenes/023a.jpg,dist1,lure,dist2,target,0,1,1,1,0,46,46,58,,,,,,,819.6517123393714,820.6759384926409,820.6759384926409,820.6759384926409,820.6759384926409,823.6896389462054,823.6896389462054,823.6896389462054,823.6896389462054,None,,,,,,,,,,,student1,2022-10-25_15h55.15.024,Hippopolis_Updating,2022.2.2,59.99794773326782,
Camponello,stimuli/subj_files/student1_cityB.csv,./stimuli/leipzig.jpg,./stimuli/street_plate2.png,KALAPÁCS UTCA,stimuli/scenes/049a.jpg,scene,0,stimuli/scenes/049a.jpg,stimuli/objects/112b.jpg,stimuli/scenes/049a.jpg,stimuli/objects/112a.jpg,stimuli/scenes/049b.jpg,dist2,target,dist1,lure,0,1,1,1,0,47,47,3,,,,,,,825.6532658152282,826.6744506377727,826.6744506377727,826.6744506377727,826.6744506377727,829.6819813475013,829.6819813475013,829.6819813475013,829.6819813475013,None,,,,,,,,,,,student1,2022-10-25_15h55.15.024,Hippopolis_Updating,2022.2.2,59.99794773326782,
Camponello,stimuli/subj_files/student1_cityB.csv,./stimuli/leipzig.jpg,./stimuli/street_plate2.png,TIGRIS UTCA,stimuli/scenes/021a.jpg,scene,0,stimuli/scenes/021a.jpg,stimuli/scenes/022b.jpg,stimuli/scenes/021a.jpg,stimuli/scenes/021b.jpg,stimuli/scenes/022a.jpg,dist2,target,lure,dist1,0,1,1,1,0,48,48,68,,,,,,,831.6685841251165,832.6940583474934,832.6940583474934,832.6940583474934,832.6940583474934,835.693865833804,835.693865833804,835.693865833804,835.693865833804,None,,,,,,,,,,,student1,2022-10-25_15h55.15.024,Hippopolis_Updating,2022.2.2,59.99794773326782,
Camponello,stimuli/subj_files/student1_cityB.csv,./stimuli/leipzig.jpg,./stimuli/street_plate2.png,TISZTÁS UTCA,stimuli/objects/116a.jpg,object,0,stimuli/objects/116a.jpg,stimuli/objects/058a.jpg,stimuli/objects/116a.jpg,stimuli/objects/116b.jpg,stimuli/objects/058b.jpg,dist1,target,lure,dist2,0,1,1,1,0,49,49,18,,,,,,,837.6772919930518,838.6870821621269,838.6870821621269,838.6870821621269,838.6870821621269,841.7238260135055,841.7238260135055,841.7238260135055,841.7238260135055,None,,,,,,,,,,,student1,2022-10-25_15h55.15.024,Hippopolis_Updating,2022.2.2,59.99794773326782,
Camponello,stimuli/subj_files/student1_cityB.csv,./stimuli/leipzig.jpg,./stimuli/street_plate2.png,PAPRIKA UTCA,stimuli/objects/033a.jpg,object,0,stimuli/objects/033a.jpg,stimuli/scenes/023a.jpg,stimuli/objects/033b.jpg,stimuli/scenes/023b.jpg,stimuli/objects/033a.jpg,dist1,lure,dist2,target,0,1,1,1,0,50,50,30,,,,,,,843.6809680871665,844.7077920772135,844.7077920772135,844.7077920772135,844.7077920772135,847.7107883132994,847.7107883132994,847.7107883132994,847.7107883132994,None,,,,,,,,,,,student1,2022-10-25_15h55.15.024,Hippopolis_Updating,2022.2.2,59.99794773326782,
Camponello,stimuli/subj_files/student1_cityB.csv,./stimuli/leipzig.jpg,./stimuli/street_plate2.png,PALACK UTCA,stimuli/scenes/033a.jpg,scene,1,stimuli/scenes/107a.jpg,stimuli/objects/119b.jpg,stimuli/scenes/107b.jpg,stimuli/objects/119a.jpg,stimuli/scenes/107a.jpg,dist2,lure,dist1,target,0,1,1,1,0,51,51,44,,,,,,,849.6878528371453,850.7065673340112,850.7065673340112,850.7065673340112,850.7065673340112,853.7109335530549,853.7109335530549,853.7109335530549,853.7109335530549,None,,,,,,,,,,,student1,2022-10-25_15h55.15.024,Hippopolis_Updating,2022.2.2,59.99794773326782,
Camponello,stimuli/subj_files/student1_cityB.csv,./stimuli/leipzig.jpg,./stimuli/street_plate2.png,GYŰRŰ UTCA,stimuli/objects/056a.jpg,object,1,stimuli/objects/013a.jpg,stimuli/objects/013b.jpg,stimuli/objects/087b.jpg,stimuli/objects/013a.jpg,stimuli/objects/087a.jpg,lure,dist2,target,dist1,0,1,1,1,0,52,52,22,,,,,,,855.6910051964223,856.723725868389,856.723725868389,856.723725868389,856.723725868389,859.7213261425495,859.7213261425495,859.7213261425495,859.7213261425495,None,,,,,,,,,,,student1,2022-10-25_15h55.15.024,Hippopolis_Updating,2022.2.2,59.99794773326782,
Camponello,stimuli/subj_files/student1_cityB.csv,./stimuli/leipzig.jpg,./stimuli/street_plate2.png,MAJOM UTCA,stimuli/objects/018a.jpg,object,0,stimuli/objects/018a.jpg,stimuli/objects/018a.jpg,stimuli/scenes/092b.jpg,stimuli/objects/018b.jpg,stimuli/scenes/092a.jpg,target,dist2,lure,dist1,0,1,1,1,0,53,53,78,,,,,,,861.7020991053432,862.7260804977268,862.7260804977268,862.7260804977268,862.7260804977268,865.7342518791556,865.7342518791556,865.7342518791556,865.7342518791556,None,,,,,,,,,,,student1,2022-10-25_15h55.15.024,Hippopolis_Updating,2022.2.2,59.99794773326782,
Camponello,stimuli/subj_files/student1_cityB.csv,./stimuli/leipzig.jpg,./stimuli/street_plate2.png,SZAPPAN UTCA,stimuli/objects/023a.jpg,object,1,stimuli/objects/087a.jpg,stimuli/scenes/012b.jpg,stimuli/objects/087b.jpg,stimuli/objects/087a.jpg,stimuli/scenes/012a.jpg,dist2,lure,target,dist1,0,1,1,1,0,54,54,7,,,,,,,867.7144581899047,868.7401252351701,868.7401252351701,868.7401252351701,868.7401252351701,871.7627867162228,871.7627867162228,871.7627867162228,871.7627867162228,None,,,,,,,,,,,student1,2022-10-25_15h55.15.024,Hippopolis_Updating,2022.2.2,59.99794773326782,
Camponello,stimuli/subj_files/student1_cityB.csv,./stimuli/leipzig.jpg,./stimuli/street_plate2.png,SÜTEMÉNY UTCA,stimuli/objects/074a.jpg,object,2,stimuli/scenes/102a.jpg,stimuli/objects/061b.jpg,stimuli/objects/061a.jpg,stimuli/scenes/102a.jpg,stimuli/scenes/102b.jpg,dist2,dist1,target,lure,0,1,1,1,0,55,55,32,,,,,,,873.7275453377515,874.7536540143192,874.7536540143192,874.7536540143192,874.7536540143192,877.7495649009943,877.7495649009943,877.7495649009943,877.7495649009943,None,,,,,,,,,,,student1,2022-10-25_15h55.15.024,Hippopolis_Updating,2022.2.2,59.99794773326782,
Camponello,stimuli/subj_files/student1_cityB.csv,./stimuli/leipzig.jpg,./stimuli/street_plate2.png,SZALVÉTA UTCA,stimuli/objects/072a.jpg,object,0,stimuli/objects/072a.jpg,stimuli/scenes/045b.jpg,stimuli/scenes/045a.jpg,stimuli/objects/072b.jpg,stimuli/objects/072a.jpg,dist2,dist1,lure,target,0,1,1,1,0,56,56,54,,,,,,,879.7412591651082,880.7739042621106,880.7739042621106,880.7739042621106,880.7739042621106,883.7779688034207,883.7779688034207,883.7779688034207,883.7779688034207,None,,,,,,,,,,,student1,2022-10-25_15h55.15.024,Hippopolis_Updating,2022.2.2,59.99794773326782,
Camponello,stimuli/subj_files/student1_cityB.csv,./stimuli/leipzig.jpg,./stimuli/street_plate2.png,VIHAR UTCA,stimuli/objects/048a.jpg,object,2,stimuli/scenes/054a.jpg,stimuli/scenes/054b.jpg,stimuli/scenes/100b.jpg,stimuli/scenes/054a.jpg,stimuli/scenes/100a.jpg,lure,dist2,target,dist1,0,1,1,1,0,57,57,65,,,,,,,885.7552115339786,886.7750301044434,886.7750301044434,886.7750301044434,886.7750301044434,889.7926868703216,889.7926868703216,889.7926868703216,889.7926868703216,None,886.7750301044434,,,,,,,,,,student1,2022-10-25_15h55.15.024,Hippopolis_Updating,2022.2.2,59.99794773326782,
Camponello,stimuli/subj_files/student1_cityB.csv,./stimuli/leipzig.jpg,./stimuli/street_plate2.png,SZOBOR UTCA,stimuli/objects/031a.jpg,object,1,stimuli/objects/010a.jpg,stimuli/objects/010a.jpg,stimuli/objects/044b.jpg,stimuli/objects/044a.jpg,stimuli/objects/010b.jpg,target,dist2,dist1,lure,0,1,1,1,0,58,58,79,,,,,,,891.7702095061541,892.7907029613853,892.7907029613853,892.7907029613853,892.7907029613853,895.8037720713764,895.8037720713764,895.8037720713764,895.8037720713764,None,,,,,,,,,,,student1,2022-10-25_15h55.15.024,Hippopolis_Updating,2022.2.2,59.99794773326782,
Camponello,stimuli/subj_files/student1_cityB.csv,./stimuli/leipzig.jpg,./stimuli/street_plate2.png,TÁSKA UTCA,stimuli/objects/110a.jpg,object,2,stimuli/scenes/079a.jpg,stimuli/scenes/079a.jpg,stimuli/objects/037b.jpg,stimuli/objects/037a.jpg,stimuli/scenes/079b.jpg,target,dist2,dist1,lure,0,1,1,1,0,59,59,33,,,,,,,897.7821561936289,898.8070435486734,898.8070435486734,898.8070435486734,898.8070435486734,901.7990895602852,901.7990895602852,901.7990895602852,901.7990895602852,None,,,,,,,,,,,student1,2022-10-25_15h55.15.024,Hippopolis_Updating,2022.2.2,59.99794773326782,
Camponello,stimuli/subj_files/student1_cityB.csv,./stimuli/leipzig.jpg,./stimuli/street_plate2.png,KESZTYŰ UTCA,stimuli/scenes/040a.jpg,scene,1,stimuli/scenes/105a.jpg,stimuli/objects/096b.jpg,stimuli/scenes/105a.jpg,stimuli/scenes/105b.jpg,stimuli/objects/096a.jpg,dist2,target,lure,dist1,0,1,1,1,0,60,60,16,,,,,,,903.7857100646943,904.8146349024028,904.8146349024028,904.8146349024028,904.8146349024028,907.821368502453,907.821368502453,907.821368502453,907.821368502453,None,,,,,,,,,,,student1,2022-10-25_15h55.15.024,Hippopolis_Updating,2022.2.2,59.99794773326782,
Camponello,stimuli/subj_files/student1_cityB.csv,./stimuli/leipzig.jpg,./stimuli/street_plate2.png,KOCSI UTCA,stimuli/scenes/114a.jpg,scene,0,stimuli/scenes/114a.jpg,stimuli/objects/082b.jpg,stimuli/scenes/114b.jpg,stimuli/scenes/114a.jpg,stimuli/objects/082a.jpg,dist2,lure,target,dist1,0,1,1,1,0,61,61,69,,,,,,,909.7891158945858,910.8060150500387,910.8060150500387,910.8060150500387,910.8060150500387,913.8184954244643,913.8184954244643,913.8184954244643,913.8184954244643,None,910.8060150500387,,,,,,,,,,student1,2022-10-25_15h55.15.024,Hippopolis_Updating,2022.2.2,59.99794773326782,
Camponello,stimuli/subj_files/student1_cityB.csv,./stimuli/leipzig.jpg,./stimuli/street_plate2.png,TÜKÖR UTCA,stimuli/scenes/006a.jpg,scene,0,stimuli/scenes/006a.jpg,stimuli/objects/116b.jpg,stimuli/objects/116a.jpg,stimuli/scenes/006a.jpg,stimuli/scenes/006b.jpg,dist2,dist1,target,lure,0,1,1,1,0,62,62,25,,,,,,,915.7964917235076,916.8204301968217,916.8204301968217,916.8204301968217,916.8204301968217,919.8167136702687,919.8167136702687,919.8167136702687,919.8167136702687,None,,,,,,,,,,,student1,2022-10-25_15h55.15.024,Hippopolis_Updating,2022.2.2,59.99794773326782,
Camponello,stimuli/subj_files/student1_cityB.csv,./stimuli/leipzig.jpg,./stimuli/street_plate2.png,BOHÓC UTCA,stimuli/objects/064a.jpg,object,0,stimuli/objects/064a.jpg,stimuli/objects/040b.jpg,stimuli/objects/040a.jpg,stimuli/objects/064a.jpg,stimuli/objects/064b.jpg,dist2,dist1,target,lure,0,1,1,1,0,63,63,17,,,,,,,921.8051619585603,922.8281101882458,922.8281101882458,922.8281101882458,922.8281101882458,925.8384051211178,925.8384051211178,925.8384051211178,925.8384051211178,None,922.8281101882458,,,,,,,,,,student1,2022-10-25_15h55.15.024,Hippopolis_Updating,2022.2.2,59.99794773326782,
Camponello,stimuli/subj_files/student1_cityB.csv,./stimuli/leipzig.jpg,./stimuli/street_plate2.png,LEMEZ UTCA,stimuli/scenes/022a.jpg,scene,0,stimuli/scenes/022a.jpg,stimuli/scenes/077b.jpg,stimuli/scenes/022a.jpg,stimuli/scenes/022b.jpg,stimuli/scenes/077a.jpg,dist2,target,lure,dist1,0,1,1,1,0,64,64,13,,,,,,,927.8201266545802,928.8441581167281,928.8441581167281,928.8441581167281,928.8441581167281,931.8418476507068,931.8418476507068,931.8418476507068,931.8418476507068,None,,,,,,,,,,,student1,2022-10-25_15h55.15.024,Hippopolis_Updating,2022.2.2,59.99794773326782,
Camponello,stimuli/subj_files/student1_cityB.csv,./stimuli/leipzig.jpg,./stimuli/street_plate2.png,TULIPÁN UTCA,stimuli/objects/058a.jpg,object,0,stimuli/objects/058a.jpg,stimuli/objects/117a.jpg,stimuli/objects/117b.jpg,stimuli/objects/058b.jpg,stimuli/objects/058a.jpg,dist1,dist2,lure,target,0,1,1,1,0,65,65,1,,,,,,,933.8307139333338,934.8394012749195,934.8394012749195,934.8394012749195,934.8394012749195,937.8599133901298,937.8599133901298,937.8599133901298,937.8599133901298,None,934.8394012749195,,,,,,,,,,student1,2022-10-25_15h55.15.024,Hippopolis_Updating,2022.2.2,59.99794773326782,
Camponello,stimuli/subj_files/student1_cityB.csv,./stimuli/leipzig.jpg,./stimuli/street_plate2.png,SAJTÓ UTCA,stimuli/scenes/112a.jpg,scene,0,stimuli/scenes/112a.jpg,stimuli/objects/018a.jpg,stimuli/scenes/112b.jpg,stimuli/scenes/112a.jpg,stimuli/objects/018b.jpg,dist1,lure,target,dist2,0,1,1,1,0,66,66,15,,,,,,,939.8379666022956,940.8578937146813,940.8578937146813,940.8578937146813,940.8578937146813,943.8708863183856,943.8708863183856,943.8708863183856,943.8708863183856,None,940.8578937146813,,,,,,,,,,student1,2022-10-25_15h55.15.024,Hippopolis_Updating,2022.2.2,59.99794773326782,
Camponello,stimuli/subj_files/student1_cityB.csv,./stimuli/leipzig.jpg,./stimuli/street_plate2.png,KESELYŰ UTCA,stimuli/objects/003a.jpg,object,2,stimuli/scenes/100a.jpg,stimuli/objects/029a.jpg,stimuli/scenes/100b.jpg,stimuli/objects/029b.jpg,stimuli/scenes/100a.jpg,dist1,lure,dist2,target,0,1,1,1,0,67,67,6,,,,,,,945.8549459967762,946.8772790543735,946.8772790543735,946.8772790543735,946.8772790543735,949.9073546156287,949.9073546156287,949.9073546156287,949.9073546156287,None,,,,,,,,,,,student1,2022-10-25_15h55.15.024,Hippopolis_Updating,2022.2.2,59.99794773326782,
Camponello,stimuli/subj_files/student1_cityB.csv,./stimuli/leipzig.jpg,./stimuli/street_plate2.png,MENTA UTCA,stimuli/objects/092a.jpg,object,0,stimuli/objects/092a.jpg,stimuli/scenes/069a.jpg,stimuli/scenes/069b.jpg,stimuli/objects/092a.jpg,stimuli/objects/092b.jpg,dist1,dist2,target,lure,0,1,1,1,0,68,68,67,,,,,,,951.8550448957831,952.8739189412445,952.8739189412445,952.8739189412445,952.8739189412445,955.8941383995116,955.8941383995116,955.8941383995116,955.8941383995116,None,952.8739189412445,,,,,,,,,,student1,2022-10-25_15h55.15.024,Hippopolis_Updating,2022.2.2,59.99794773326782,
Camponello,stimuli/subj_files/student1_cityB.csv,./stimuli/leipzig.jpg,./stimuli/street_plate2.png,SZAXOFON UTCA,stimuli/objects/117a.jpg,object,0,stimuli/objects/117a.jpg,stimuli/scenes/021a.jpg,stimuli/objects/117a.jpg,stimuli/objects/117b.jpg,stimuli/scenes/021b.jpg,dist1,target,lure,dist2,0,1,1,1,0,69,69,20,,,,,,,957.8647315017879,958.8956564217806,958.8956564217806,958.8956564217806,958.8956564217806,961.8974425308406,961.8974425308406,961.8974425308406,961.8974425308406,None,,,,,,,,,,,student1,2022-10-25_15h55.15.024,Hippopolis_Updating,2022.2.2,59.99794773326782,
Camponello,stimuli/subj_files/student1_cityB.csv,./stimuli/leipzig.jpg,./stimuli/street_plate2.png,TENISZ UTCA,stimuli/objects/102a.jpg,object,0,stimuli/objects/102a.jpg,stimuli/objects/102b.jpg,stimuli/objects/102a.jpg,stimuli/scenes/038a.jpg,stimuli/scenes/038b.jpg,lure,target,dist1,dist2,0,1,1,1,0,70,70,75,,,,,,,963.8765836432576,964.9054353963584,964.9054353963584,964.9054353963584,964.9054353963584,967.9120408613235,967.9120408613235,967.9120408613235,967.9120408613235,None,,,,,,,,,,,student1,2022-10-25_15h55.15.024,Hippopolis_Updating,2022.2.2,59.99794773326782,
Camponello,stimuli/subj_files/student1_cityB.csv,./stimuli/leipzig.jpg,./stimuli/street_plate2.png,FÜZET UTCA,stimuli/scenes/047a.jpg,scene,1,stimuli/scenes/012a.jpg,stimuli/scenes/012b.jpg,stimuli/objects/010b.jpg,stimuli/scenes/012a.jpg,stimuli/objects/010a.jpg,lure,dist2,target,dist1,0,1,1,1,0,71,71,56,,,,,,,969.8850395977497,970.9053327646106,970.9053327646106,970.9053327646106,970.9053327646106,973.9276191703975,973.9276191703975,973.9276191703975,973.9276191703975,None,,,,,,,,,,,student1,2022-10-25_15h55.15.024,Hippopolis_Updating,2022.2.2,59.99794773326782,
Camponello,stimuli/subj_files/student1_cityB.csv,./stimuli/leipzig.jpg,./stimuli/street_plate2.png,SÜTŐ UTCA,stimuli/scenes/038a.jpg,scene,0,stimuli/scenes/038a.jpg,stimuli/scenes/038b.jpg,stimuli/objects/033b.jpg,stimuli/objects/033a.jpg,stimuli/scenes/038a.jpg,lure,dist2,dist1,target,0,1,1,1,0,72,72,5,,,,,,,975.8954499140382,976.9255503565073,976.9255503565073,976.9255503565073,976.9255503565073,979.9211850706488,979.9211850706488,979.9211850706488,979.9211850706488,None,,,,,,,,,,,student1,2022-10-25_15h55.15.024,Hippopolis_Updating,2022.2.2,59.99794773326782,
Camponello,stimuli/subj_files/student1_cityB.csv,./stimuli/leipzig.jpg,./stimuli/street_plate2.png,MANDARIN UTCA,stimuli/scenes/075a.jpg,scene,0,stimuli/scenes/075a.jpg,stimuli/objects/072a.jpg,stimuli/objects/072b.jpg,stimuli/scenes/075b.jpg,stimuli/scenes/075a.jpg,dist1,dist2,lure,target,0,1,1,1,0,73,73,37,,,,,,,981.9142185281962,982.9392181541771,982.9392181541771,982.9392181541771,982.9392181541771,985.9379986990243,985.9379986990243,985.9379986990243,985.9379986990243,None,,,,,,,,,,,student1,2022-10-25_15h55.15.024,Hippopolis_Updating,2022.2.2,59.99794773326782,
Camponello,stimuli/subj_files/student1_cityB.csv,./stimuli/leipzig.jpg,./stimuli/street_plate2.png,KÍGYÓ UTCA,stimuli/scenes/032a.jpg,scene,0,stimuli/scenes/032a.jpg,stimuli/scenes/032a.jpg,stimuli/objects/088a.jpg,stimuli/scenes/032b.jpg,stimuli/objects/088b.jpg,target,dist1,lure,dist2,0,1,1,1,0,74,74,76,,,,,,,987.9216099046171,988.9402730874717,988.9402730874717,988.9402730874717,988.9402730874717,991.9450227767229,991.9450227767229,991.9450227767229,991.9450227767229,None,,,,,,,,,,,student1,2022-10-25_15h55.15.024,Hippopolis_Updating,2022.2.2,59.99794773326782,
Camponello,stimuli/subj_files/student1_cityB.csv,./stimuli/leipzig.jpg,./stimuli/street_plate2.png,TÉRKÉP UTCA,stimuli/scenes/013a.jpg,scene,0,stimuli/scenes/013a.jpg,stimuli/scenes/006b.jpg,stimuli/scenes/006a.jpg,stimuli/scenes/013a.jpg,stimuli/scenes/013b.jpg,dist2,dist1,target,lure,0,1,1,1,0,75,75,63,,,,,,,993.9221174679697,994.9413930214942,994.9413930214942,994.9413930214942,994.9413930214942,997.9551112037152,997.9551112037152,997.9551112037152,997.9551112037152,None,994.9413930214942,,,,,,,,,,student1,2022-10-25_15h55.15.024,Hippopolis_Updating,2022.2.2,59.99794773326782,
Camponello,stimuli/subj_files/student1_cityB.csv,./stimuli/leipzig.jpg,./stimuli/street_plate2.png,KÓKUSZ UTCA,stimuli/scenes/052a.jpg,scene,0,stimuli/scenes/052a.jpg,stimuli/scenes/052a.jpg,stimuli/objects/077b.jpg,stimuli/objects/077a.jpg,stimuli/scenes/052b.jpg,target,dist2,dist1,lure,0,1,1,1,0,76,76,19,,,,,,,999.9347017202526,1000.959464982152,1000.959464982152,1000.959464982152,1000.959464982152,1003.957398654893,1003.957398654893,1003.957398654893,1003.957398654893,None,,,,,,,,,,,student1,2022-10-25_15h55.15.024,Hippopolis_Updating,2022.2.2,59.99794773326782,
Camponello,stimuli/subj_files/student1_cityB.csv,./stimuli/leipzig.jpg,./stimuli/street_plate2.png,KUTYA UTCA,stimuli/scenes/030a.jpg,scene,0,stimuli/scenes/030a.jpg,stimuli/scenes/030b.jpg,stimuli/scenes/052b.jpg,stimuli/scenes/052a.jpg,stimuli/scenes/030a.jpg,lure,dist2,dist1,target,0,1,1,1,0,77,77,35,,,,,,,1005.9428637716919,1006.9630592819303,1006.9630592819303,1006.9630592819303,1006.9630592819303,1009.9632126092911,1009.9632126092911,1009.9632126092911,1009.9632126092911,None,,,,,,,,,,,student1,2022-10-25_15h55.15.024,Hippopolis_Updating,2022.2.2,59.99794773326782,
Camponello,stimuli/subj_files/student1_cityB.csv,./stimuli/leipzig.jpg,./stimuli/street_plate2.png,REPÜLŐ UTCA,stimuli/scenes/098a.jpg,scene,0,stimuli/scenes/098a.jpg,stimuli/scenes/013a.jpg,stimuli/scenes/013b.jpg,stimuli/scenes/098a.jpg,stimuli/scenes/098b.jpg,dist1,dist2,target,lure,0,1,1,1,0,78,78,66,,,,,,,1011.951214293018,1012.9714468140155,1012.9714468140155,1012.9714468140155,1012.9714468140155,1015.9821301940829,1015.9821301940829,1015.9821301940829,1015.9821301940829,None,,,,,,,,,,,student1,2022-10-25_15h55.15.024,Hippopolis_Updating,2022.2.2,59.99794773326782,
Camponello,stimuli/subj_files/student1_cityB.csv,./stimuli/leipzig.jpg,./stimuli/street_plate2.png,LOVAGLÁS UTCA,stimuli/objects/019a.jpg,object,0,stimuli/objects/019a.jpg,stimuli/objects/019b.jpg,stimuli/objects/019a.jpg,stimuli/scenes/017b.jpg,stimuli/scenes/017a.jpg,lure,target,dist2,dist1,0,1,1,1,0,79,79,53,,,,,,,1017.9558588620275,1018.9822822771966,1018.9822822771966,1018.9822822771966,1018.9822822771966,1021.987215148285,1021.987215148285,1021.987215148285,1021.987215148285,None,,,,,,,,,,,student1,2022-10-25_15h55.15.024,Hippopolis_Updating,2022.2.2,59.99794773326782,
,,,,,,,,,,,,,,,,,,,,,,,,,,,,,,,,,,,,,,,,,,,,,,,None,,1023.9714863114059,1028.970932720229,,,,,,
