CityName,StimuliFile,CityImage,StreetSign,Cue,Image,Category,Novelty,UpdateImage,TestImage1,TestImage2,TestImage3,TestImage4,TestImage1Type,TestImage2Type,TestImage3Type,TestImage4Type,CityBlock.thisRepN,CityBlock.thisTrialN,CityBlock.thisN,CityBlock.thisIndex,LearningTrials.thisRepN,LearningTrials.thisTrialN,LearningTrials.thisN,LearningTrials.thisIndex,learning_instructions_text.started,learning_instructions_text.stopped,intro_key.keys,intro_key.rt,intro_key.started,intro_key.stopped,cityname_text.started,cityname_text.stopped,city_image.started,city_image.stopped,fx_cross.started,fx_cross.stopped,plate.started,plate.stopped,city_text.started,city_text.stopped,street_text.started,street_text.stopped,fx_cross_prediction.started,fx_cross_prediction.stopped,plate_updating.started,plate_updating.stopped,city_text_updating.started,city_text_updating.stopped,street_text_updating.started,street_text_updating.stopped,updating_image.started,updating_image.stopped,short_break_text.started,short_break_text.stopped,short_break_key.keys,short_break_key.started,short_break_key.stopped,short_break_key.rt,break_text.started,break_text.stopped,break_key_resp.keys,break_key_resp.rt,break_key_resp.started,break_key_resp.stopped,end_text.started,end_text.stopped,participant,date,expName,psychopyVersion,frameRate,
,,,,,,,,,,,,,,,,,,,,,,,,,77.66375920001883,None,space,18.53828129998874,77.66375920001883,None,,,,,,,,,,,,,,,,,,,,,,,,,,,,,,,,,,,,,student1,2022-10-21_12h59.46.468,Hippopolis_Updating,2021.1.4,60.083949289667174,
Hippopolis,stimuli/subj_files/student1_cityA.csv,./stimuli/frankfurt.jpg,./stimuli/street_plate1.png,LÁNDZSA UTCA,stimuli/scenes/090a.jpg,scene,0,stimuli/scenes/090a.jpg,stimuli/scenes/090a.jpg,stimuli/objects/091b.jpg,stimuli/scenes/090b.jpg,stimuli/objects/091a.jpg,target,dist2,lure,dist1,0,0,0,0,0,0,0,39,,,,,,,96.32474000001093,None,96.32474000001093,None,99.23242090002168,None,100.26084750000155,None,100.26084750000155,None,100.26084750000155,None,100.26084750000155,None,103.22793410002487,None,103.22793410002487,None,103.22793410002487,None,103.22793410002487,None,None,None,None,None,None,,,,,,,,,,student1,2022-10-21_12h59.46.468,Hippopolis_Updating,2021.1.4,60.083949289667174,
Hippopolis,stimuli/subj_files/student1_cityA.csv,./stimuli/frankfurt.jpg,./stimuli/street_plate1.png,VASALÓ UTCA,stimuli/objects/025a.jpg,object,2,stimuli/scenes/056a.jpg,stimuli/scenes/044a.jpg,stimuli/scenes/056b.jpg,stimuli/scenes/056a.jpg,stimuli/scenes/044b.jpg,dist1,lure,target,dist2,0,0,0,0,0,1,1,70,,,,,,,,,,,105.2203109000111,None,106.22252190002473,None,106.22252190002473,None,106.22252190002473,None,106.22252190002473,None,109.24511139999959,None,109.24511139999959,None,109.24511139999959,None,109.24511139999959,None,None,None,None,None,None,,,,,,,,,,student1,2022-10-21_12h59.46.468,Hippopolis_Updating,2021.1.4,60.083949289667174,
Hippopolis,stimuli/subj_files/student1_cityA.csv,./stimuli/frankfurt.jpg,./stimuli/street_plate1.png,CUKOR UTCA,stimuli/objects/111a.jpg,object,0,stimuli/objects/111a.jpg,stimuli/objects/089b.jpg,stimuli/objects/111b.jpg,stimuli/objects/111a.jpg,stimuli/objects/089a.jpg,dist2,lure,target,dist1,0,0,0,0,0,2,2,30,,,,,,,,,,,111.23704050001106,None,112.24278770000092,None,112.24278770000092,None,112.24278770000092,None,112.24278770000092,None,115.26788570001372,None,115.26788570001372,None,115.26788570001372,None,115.26788570001372,None,None,None,None,None,None,,,,,,,,,,student1,2022-10-21_12h59.46.468,Hippopolis_Updating,2021.1.4,60.083949289667174,
Hippopolis,stimuli/subj_files/student1_cityA.csv,./stimuli/frankfurt.jpg,./stimuli/street_plate1.png,KÖMÉNYMAG UTCA,stimuli/objects/068a.jpg,object,1,stimuli/objects/045a.jpg,stimuli/objects/045a.jpg,stimuli/objects/045b.jpg,stimuli/objects/071a.jpg,stimuli/objects/071b.jpg,target,lure,dist1,dist2,0,0,0,0,0,3,3,18,,,,,,,,,,,117.25391860000673,None,118.26142740002251,None,118.26142740002251,None,118.26142740002251,None,118.26142740002251,None,121.28444050002145,None,121.28444050002145,None,121.28444050002145,None,121.28444050002145,None,None,None,None,None,None,,,,,,,,,,student1,2022-10-21_12h59.46.468,Hippopolis_Updating,2021.1.4,60.083949289667174,
Hippopolis,stimuli/subj_files/student1_cityA.csv,./stimuli/frankfurt.jpg,./stimuli/street_plate1.png,TOBOZ UTCA,stimuli/objects/001a.jpg,object,2,stimuli/scenes/059a.jpg,stimuli/scenes/059a.jpg,stimuli/objects/085a.jpg,stimuli/objects/085b.jpg,stimuli/scenes/059b.jpg,target,dist1,dist2,lure,0,0,0,0,0,4,4,40,,,,,,,,,,,123.27056520001497,None,124.27261750001344,None,124.27261750001344,None,124.27261750001344,None,124.27261750001344,None,127.29507800002466,None,127.29507800002466,None,127.29507800002466,None,127.29507800002466,None,None,None,None,None,None,,,,,,,,,,student1,2022-10-21_12h59.46.468,Hippopolis_Updating,2021.1.4,60.083949289667174,
Hippopolis,stimuli/subj_files/student1_cityA.csv,./stimuli/frankfurt.jpg,./stimuli/street_plate1.png,TERASZ UTCA,stimuli/objects/063a.jpg,object,2,stimuli/scenes/104a.jpg,stimuli/scenes/104a.jpg,stimuli/scenes/056a.jpg,stimuli/scenes/104b.jpg,stimuli/scenes/056b.jpg,target,dist1,lure,dist2,0,0,0,0,0,5,5,48,,,,,,,,,,,129.28693349999958,None,130.28993170001195,None,130.28993170001195,None,130.28993170001195,None,130.28993170001195,None,133.31297389999963,None,133.31297389999963,None,133.31297389999963,None,133.31297389999963,None,None,None,None,None,None,,,,,,,,,,student1,2022-10-21_12h59.46.468,Hippopolis_Updating,2021.1.4,60.083949289667174,
Hippopolis,stimuli/subj_files/student1_cityA.csv,./stimuli/frankfurt.jpg,./stimuli/street_plate1.png,KORONG UTCA,stimuli/scenes/065a.jpg,scene,1,stimuli/scenes/004a.jpg,stimuli/scenes/004a.jpg,stimuli/scenes/011b.jpg,stimuli/scenes/011a.jpg,stimuli/scenes/004b.jpg,target,dist2,dist1,lure,0,0,0,0,0,6,6,53,,,,,,,,,,,135.30332200002158,None,136.30338710002252,None,136.30338710002252,None,136.30338710002252,None,136.30338710002252,None,139.31175810002605,None,139.31175810002605,None,139.31175810002605,None,139.31175810002605,None,None,None,None,None,None,,,,,,,,,,student1,2022-10-21_12h59.46.468,Hippopolis_Updating,2021.1.4,60.083949289667174,
Hippopolis,stimuli/subj_files/student1_cityA.csv,./stimuli/frankfurt.jpg,./stimuli/street_plate1.png,LÉTRA UTCA,stimuli/objects/047a.jpg,object,1,stimuli/objects/015a.jpg,stimuli/objects/108b.jpg,stimuli/objects/015b.jpg,stimuli/objects/108a.jpg,stimuli/objects/015a.jpg,dist2,lure,dist1,target,0,0,0,0,0,7,7,33,,,,,,,,,,,141.3194719000021,None,142.32173510000575,None,142.32173510000575,None,142.32173510000575,None,142.32173510000575,None,145.35544980000122,None,145.35544980000122,None,145.35544980000122,None,145.35544980000122,None,None,None,None,None,None,,,,,,,,,,student1,2022-10-21_12h59.46.468,Hippopolis_Updating,2021.1.4,60.083949289667174,
Hippopolis,stimuli/subj_files/student1_cityA.csv,./stimuli/frankfurt.jpg,./stimuli/street_plate1.png,ÜVEG UTCA,stimuli/scenes/061a.jpg,scene,2,stimuli/objects/085a.jpg,stimuli/objects/085b.jpg,stimuli/scenes/084a.jpg,stimuli/objects/085a.jpg,stimuli/scenes/084b.jpg,lure,dist1,target,dist2,0,0,0,0,0,8,8,19,,,,,,,,,,,147.33609060000163,None,148.34063120000064,None,148.34063120000064,None,148.34063120000064,None,148.34063120000064,None,151.36714650000795,None,151.36714650000795,None,151.36714650000795,None,151.36714650000795,None,None,None,None,None,None,,,,,,,,,,student1,2022-10-21_12h59.46.468,Hippopolis_Updating,2021.1.4,60.083949289667174,
Hippopolis,stimuli/subj_files/student1_cityA.csv,./stimuli/frankfurt.jpg,./stimuli/street_plate1.png,KAKAS UTCA,stimuli/objects/002a.jpg,object,2,stimuli/scenes/074a.jpg,stimuli/scenes/074b.jpg,stimuli/scenes/074a.jpg,stimuli/scenes/070a.jpg,stimuli/scenes/070b.jpg,lure,target,dist1,dist2,0,0,0,0,0,9,9,24,,,,,,,,,,,153.35224910001853,None,154.35295870000846,None,154.35295870000846,None,154.35295870000846,None,154.35295870000846,None,157.35438180001802,None,157.35438180001802,None,157.35438180001802,None,157.35438180001802,None,None,None,None,None,None,,,,,,,,,,student1,2022-10-21_12h59.46.468,Hippopolis_Updating,2021.1.4,60.083949289667174,
Hippopolis,stimuli/subj_files/student1_cityA.csv,./stimuli/frankfurt.jpg,./stimuli/street_plate1.png,HAJÓ UTCA,stimuli/objects/086a.jpg,object,1,stimuli/objects/041a.jpg,stimuli/scenes/014a.jpg,stimuli/scenes/014b.jpg,stimuli/objects/041a.jpg,stimuli/objects/041b.jpg,dist1,dist2,target,lure,0,0,0,0,0,10,10,71,,,,,,,,,,,159.36903490000986,None,160.3712314000004,None,160.3712314000004,None,160.3712314000004,None,160.3712314000004,None,163.38640820002183,None,163.38640820002183,None,163.38640820002183,None,163.38640820002183,None,None,None,None,None,None,,,,,,,,,,student1,2022-10-21_12h59.46.468,Hippopolis_Updating,2021.1.4,60.083949289667174,
Hippopolis,stimuli/subj_files/student1_cityA.csv,./stimuli/frankfurt.jpg,./stimuli/street_plate1.png,OLDAL UTCA,stimuli/scenes/093a.jpg,scene,2,stimuli/objects/107a.jpg,stimuli/objects/107b.jpg,stimuli/objects/022a.jpg,stimuli/objects/107a.jpg,stimuli/objects/022b.jpg,lure,dist1,target,dist2,0,0,0,0,0,11,11,11,,,,,,,,,,,165.38565560002462,None,166.38645390002057,None,166.38645390002057,None,166.38645390002057,None,166.38645390002057,None,169.39011330000358,None,169.39011330000358,None,169.39011330000358,None,169.39011330000358,None,None,None,None,None,None,,,,,,,,,,student1,2022-10-21_12h59.46.468,Hippopolis_Updating,2021.1.4,60.083949289667174,
Hippopolis,stimuli/subj_files/student1_cityA.csv,./stimuli/frankfurt.jpg,./stimuli/street_plate1.png,TOLLTARTÓ UTCA,stimuli/objects/032a.jpg,object,2,stimuli/scenes/119a.jpg,stimuli/scenes/119a.jpg,stimuli/scenes/104b.jpg,stimuli/scenes/104a.jpg,stimuli/scenes/119b.jpg,target,dist2,dist1,lure,0,0,0,0,0,12,12,67,,,,,,,,,,,171.40263500000583,None,172.40302260001772,None,172.40302260001772,None,172.40302260001772,None,172.40302260001772,None,175.41632700001355,None,175.41632700001355,None,175.41632700001355,None,175.41632700001355,None,None,None,None,None,None,,,,,,,,,,student1,2022-10-21_12h59.46.468,Hippopolis_Updating,2021.1.4,60.083949289667174,
Hippopolis,stimuli/subj_files/student1_cityA.csv,./stimuli/frankfurt.jpg,./stimuli/street_plate1.png,NARANCS UTCA,stimuli/objects/017a.jpg,object,1,stimuli/objects/075a.jpg,stimuli/objects/075a.jpg,stimuli/scenes/041b.jpg,stimuli/scenes/041a.jpg,stimuli/objects/075b.jpg,target,dist2,dist1,lure,0,0,0,0,0,13,13,76,,,,,,,,,,,177.41907020000508,None,178.41917580002337,None,178.41917580002337,None,178.41917580002337,None,178.41917580002337,None,181.43163200002164,None,181.43163200002164,None,181.43163200002164,None,181.43163200002164,None,None,None,None,None,None,,,,,,,,,,student1,2022-10-21_12h59.46.468,Hippopolis_Updating,2021.1.4,60.083949289667174,
Hippopolis,stimuli/subj_files/student1_cityA.csv,./stimuli/frankfurt.jpg,./stimuli/street_plate1.png,KÖNYVTÁR UTCA,stimuli/objects/113a.jpg,object,1,stimuli/objects/109a.jpg,stimuli/objects/109a.jpg,stimuli/objects/109b.jpg,stimuli/scenes/067a.jpg,stimuli/scenes/067b.jpg,target,lure,dist1,dist2,0,0,0,0,0,14,14,42,,,,,,,,,,,183.43567590002203,None,184.43582290000631,None,184.43582290000631,None,184.43582290000631,None,184.43582290000631,None,187.4446566000115,None,187.4446566000115,None,187.4446566000115,None,187.4446566000115,None,None,None,None,None,None,,,,,,,,,,student1,2022-10-21_12h59.46.468,Hippopolis_Updating,2021.1.4,60.083949289667174,
Hippopolis,stimuli/subj_files/student1_cityA.csv,./stimuli/frankfurt.jpg,./stimuli/street_plate1.png,KORONA UTCA,stimuli/scenes/108a.jpg,scene,1,stimuli/scenes/011a.jpg,stimuli/objects/076a.jpg,stimuli/scenes/011b.jpg,stimuli/objects/076b.jpg,stimuli/scenes/011a.jpg,dist1,lure,dist2,target,0,0,0,0,0,15,15,9,,,,,,,,,,,189.4517716000264,None,190.45228720002342,None,190.45228720002342,None,190.45228720002342,None,190.45228720002342,None,193.4553225999989,None,193.4553225999989,None,193.4553225999989,None,193.4553225999989,None,None,None,None,None,None,,,,,,,,,,student1,2022-10-21_12h59.46.468,Hippopolis_Updating,2021.1.4,60.083949289667174,
Hippopolis,stimuli/subj_files/student1_cityA.csv,./stimuli/frankfurt.jpg,./stimuli/street_plate1.png,AKÁC UTCA,stimuli/scenes/081a.jpg,scene,2,stimuli/objects/055a.jpg,stimuli/objects/055b.jpg,stimuli/objects/107b.jpg,stimuli/objects/107a.jpg,stimuli/objects/055a.jpg,lure,dist2,dist1,target,0,0,0,0,0,16,16,74,,,,,,,,,,,195.46863180000219,None,196.4687191999983,None,196.4687191999983,None,196.4687191999983,None,196.4687191999983,None,199.47253470000578,None,199.47253470000578,None,199.47253470000578,None,199.47253470000578,None,None,None,None,None,None,,,,,,,,,,student1,2022-10-21_12h59.46.468,Hippopolis_Updating,2021.1.4,60.083949289667174,
Hippopolis,stimuli/subj_files/student1_cityA.csv,./stimuli/frankfurt.jpg,./stimuli/street_plate1.png,RÁDIÓ UTCA,stimuli/scenes/068a.jpg,scene,1,stimuli/scenes/067a.jpg,stimuli/scenes/018b.jpg,stimuli/scenes/067a.jpg,stimuli/scenes/067b.jpg,stimuli/scenes/018a.jpg,dist2,target,lure,dist1,0,0,0,0,0,17,17,44,,,,,,,,,,,201.48518440002226,None,202.48570090002613,None,202.48570090002613,None,202.48570090002613,None,202.48570090002613,None,205.49071670000558,None,205.49071670000558,None,205.49071670000558,None,205.49071670000558,None,None,None,None,None,None,,,,,,,,,,student1,2022-10-21_12h59.46.468,Hippopolis_Updating,2021.1.4,60.083949289667174,
Hippopolis,stimuli/subj_files/student1_cityA.csv,./stimuli/frankfurt.jpg,./stimuli/street_plate1.png,TRIATLON UTCA,stimuli/objects/024a.jpg,object,0,stimuli/objects/024a.jpg,stimuli/objects/024b.jpg,stimuli/objects/080a.jpg,stimuli/objects/024a.jpg,stimuli/objects/080b.jpg,lure,dist1,target,dist2,0,0,0,0,0,18,18,2,,,,,,,,,,,207.50149410002632,None,208.50238489999902,None,208.50238489999902,None,208.50238489999902,None,208.50238489999902,None,211.5025003000046,None,211.5025003000046,None,211.5025003000046,None,211.5025003000046,None,None,None,None,None,None,,,,,,,,,,student1,2022-10-21_12h59.46.468,Hippopolis_Updating,2021.1.4,60.083949289667174,
Hippopolis,stimuli/subj_files/student1_cityA.csv,./stimuli/frankfurt.jpg,./stimuli/street_plate1.png,PADLÓ UTCA,stimuli/objects/100a.jpg,object,0,stimuli/objects/100a.jpg,stimuli/scenes/058a.jpg,stimuli/scenes/058b.jpg,stimuli/objects/100a.jpg,stimuli/objects/100b.jpg,dist1,dist2,target,lure,0,0,0,0,0,19,19,59,,,,,,,,,,,213.5016450000112,None,214.50177960001747,None,214.50177960001747,None,214.50177960001747,None,214.50177960001747,None,217.50257930002408,None,217.50257930002408,None,217.50257930002408,None,217.50257930002408,None,None,None,None,None,None,,,,,,,,,,student1,2022-10-21_12h59.46.468,Hippopolis_Updating,2021.1.4,60.083949289667174,
Hippopolis,stimuli/subj_files/student1_cityA.csv,./stimuli/frankfurt.jpg,./stimuli/street_plate1.png,FOGAS UTCA,stimuli/scenes/025a.jpg,scene,1,stimuli/scenes/018a.jpg,stimuli/scenes/018b.jpg,stimuli/scenes/064a.jpg,stimuli/scenes/018a.jpg,stimuli/scenes/064b.jpg,lure,dist1,target,dist2,0,0,0,0,0,20,20,38,,,,,,,,,,,219.5014059000241,None,220.50317630000063,None,220.50317630000063,None,220.50317630000063,None,220.50317630000063,None,223.52264690000447,None,223.52264690000447,None,223.52264690000447,None,223.52264690000447,None,None,None,None,None,None,,,,,,,,,,student1,2022-10-21_12h59.46.468,Hippopolis_Updating,2021.1.4,60.083949289667174,
Hippopolis,stimuli/subj_files/student1_cityA.csv,./stimuli/frankfurt.jpg,./stimuli/street_plate1.png,PAPAGÁJ UTCA,stimuli/objects/093a.jpg,object,2,stimuli/scenes/097a.jpg,stimuli/scenes/097a.jpg,stimuli/scenes/109b.jpg,stimuli/scenes/109a.jpg,stimuli/scenes/097b.jpg,target,dist2,dist1,lure,0,0,0,0,0,21,21,55,,,,,,,,,,,225.5178713000205,None,226.51832440000726,None,226.51832440000726,None,226.51832440000726,None,226.51832440000726,None,229.52579900002456,None,229.52579900002456,None,229.52579900002456,None,229.52579900002456,None,None,None,None,None,None,,,,,,,,,,student1,2022-10-21_12h59.46.468,Hippopolis_Updating,2021.1.4,60.083949289667174,
Hippopolis,stimuli/subj_files/student1_cityA.csv,./stimuli/frankfurt.jpg,./stimuli/street_plate1.png,TELEP UTCA,stimuli/scenes/048a.jpg,scene,2,stimuli/objects/120a.jpg,stimuli/objects/120a.jpg,stimuli/objects/120b.jpg,stimuli/scenes/119b.jpg,stimuli/scenes/119a.jpg,target,lure,dist2,dist1,0,0,0,0,0,22,22,75,,,,,,,,,,,231.53451290001976,None,232.53463280000142,None,232.53463280000142,None,232.53463280000142,None,232.53463280000142,None,235.5427739000006,None,235.5427739000006,None,235.5427739000006,None,235.5427739000006,None,None,None,None,None,None,,,,,,,,,,student1,2022-10-21_12h59.46.468,Hippopolis_Updating,2021.1.4,60.083949289667174,
Hippopolis,stimuli/subj_files/student1_cityA.csv,./stimuli/frankfurt.jpg,./stimuli/street_plate1.png,MUSTÁR UTCA,stimuli/scenes/050a.jpg,scene,0,stimuli/scenes/050a.jpg,stimuli/objects/009a.jpg,stimuli/objects/009b.jpg,stimuli/scenes/050a.jpg,stimuli/scenes/050b.jpg,dist1,dist2,target,lure,0,0,0,0,0,23,23,78,,,,,,,,,,,237.55133350001415,None,238.55179590001353,None,238.55179590001353,None,238.55179590001353,None,238.55179590001353,None,241.55204780001077,None,241.55204780001077,None,241.55204780001077,None,241.55204780001077,None,None,None,None,None,None,,,,,,,,,,student1,2022-10-21_12h59.46.468,Hippopolis_Updating,2021.1.4,60.083949289667174,
Hippopolis,stimuli/subj_files/student1_cityA.csv,./stimuli/frankfurt.jpg,./stimuli/street_plate1.png,BAGOLY UTCA,stimuli/scenes/029a.jpg,scene,2,stimuli/objects/028a.jpg,stimuli/objects/028b.jpg,stimuli/objects/028a.jpg,stimuli/scenes/028a.jpg,stimuli/scenes/028b.jpg,lure,target,dist1,dist2,0,0,0,0,0,24,24,21,,,,,,,,,,,243.55114170000888,None,244.55159149999963,None,244.55159149999963,None,244.55159149999963,None,244.55159149999963,None,247.55377620001673,None,247.55377620001673,None,247.55377620001673,None,247.55377620001673,None,None,None,None,None,None,,,,,,,,,,student1,2022-10-21_12h59.46.468,Hippopolis_Updating,2021.1.4,60.083949289667174,
Hippopolis,stimuli/subj_files/student1_cityA.csv,./stimuli/frankfurt.jpg,./stimuli/street_plate1.png,MARTINI UTCA,stimuli/objects/060a.jpg,object,1,stimuli/objects/011a.jpg,stimuli/objects/075b.jpg,stimuli/objects/075a.jpg,stimuli/objects/011b.jpg,stimuli/objects/011a.jpg,dist2,dist1,lure,target,0,0,0,0,0,25,25,60,,,,,,,,,,,249.56766810000408,None,250.56826230001752,None,250.56826230001752,None,250.56826230001752,None,250.56826230001752,None,253.57861850000336,None,253.57861850000336,None,253.57861850000336,None,253.57861850000336,None,None,None,None,None,None,,,,,,,,,,student1,2022-10-21_12h59.46.468,Hippopolis_Updating,2021.1.4,60.083949289667174,
Hippopolis,stimuli/subj_files/student1_cityA.csv,./stimuli/frankfurt.jpg,./stimuli/street_plate1.png,HEGEDŰ UTCA,stimuli/scenes/113a.jpg,scene,2,stimuli/objects/036a.jpg,stimuli/objects/036b.jpg,stimuli/scenes/059b.jpg,stimuli/scenes/059a.jpg,stimuli/objects/036a.jpg,lure,dist2,dist1,target,0,0,0,0,0,26,26,69,,,,,,,,,,,255.58430139999837,None,256.58449520001886,None,256.58449520001886,None,256.58449520001886,None,256.58449520001886,None,259.59604920001584,None,259.59604920001584,None,259.59604920001584,None,259.59604920001584,None,None,None,None,None,None,,,,,,,,,,student1,2022-10-21_12h59.46.468,Hippopolis_Updating,2021.1.4,60.083949289667174,
Hippopolis,stimuli/subj_files/student1_cityA.csv,./stimuli/frankfurt.jpg,./stimuli/street_plate1.png,MÁLNA UTCA,stimuli/objects/069a.jpg,object,2,stimuli/scenes/053a.jpg,stimuli/objects/073a.jpg,stimuli/objects/073b.jpg,stimuli/scenes/053b.jpg,stimuli/scenes/053a.jpg,dist1,dist2,lure,target,0,0,0,0,0,27,27,14,,,,,,,,,,,261.6008534000139,None,262.60400400002254,None,262.60400400002254,None,262.60400400002254,None,262.60400400002254,None,265.6310219000152,None,265.6310219000152,None,265.6310219000152,None,265.6310219000152,None,None,None,None,None,None,,,,,,,,,,student1,2022-10-21_12h59.46.468,Hippopolis_Updating,2021.1.4,60.083949289667174,
Hippopolis,stimuli/subj_files/student1_cityA.csv,./stimuli/frankfurt.jpg,./stimuli/street_plate1.png,CSILLAG UTCA,stimuli/scenes/083a.jpg,scene,1,stimuli/scenes/117a.jpg,stimuli/scenes/117a.jpg,stimuli/scenes/117b.jpg,stimuli/objects/041a.jpg,stimuli/objects/041b.jpg,target,lure,dist1,dist2,0,0,0,0,0,28,28,15,,,,,,,,,,,267.6173880000133,None,268.61790250000195,None,268.61790250000195,None,268.61790250000195,None,268.61790250000195,None,271.6419980000064,None,271.6419980000064,None,271.6419980000064,None,271.6419980000064,None,None,None,None,None,None,,,,,,,,,,student1,2022-10-21_12h59.46.468,Hippopolis_Updating,2021.1.4,60.083949289667174,
Hippopolis,stimuli/subj_files/student1_cityA.csv,./stimuli/frankfurt.jpg,./stimuli/street_plate1.png,SZOMSZÉD UTCA,stimuli/objects/026a.jpg,object,1,stimuli/objects/004a.jpg,stimuli/objects/027b.jpg,stimuli/objects/004b.jpg,stimuli/objects/004a.jpg,stimuli/objects/027a.jpg,dist2,lure,target,dist1,0,0,0,0,0,29,29,65,,,,,,,,,,,273.63402090000454,None,274.6343589000171,None,274.6343589000171,None,274.6343589000171,None,274.6343589000171,None,277.6527872000006,None,277.6527872000006,None,277.6527872000006,None,277.6527872000006,None,None,None,None,None,None,,,,,,,,,,student1,2022-10-21_12h59.46.468,Hippopolis_Updating,2021.1.4,60.083949289667174,
Hippopolis,stimuli/subj_files/student1_cityA.csv,./stimuli/frankfurt.jpg,./stimuli/street_plate1.png,PIZSAMA UTCA,stimuli/scenes/060a.jpg,scene,2,stimuli/objects/006a.jpg,stimuli/scenes/007b.jpg,stimuli/scenes/007a.jpg,stimuli/objects/006b.jpg,stimuli/objects/006a.jpg,dist2,dist1,lure,target,0,0,0,0,0,30,30,79,,,,,,,,,,,279.6502393000119,None,280.650835700013,None,280.650835700013,None,280.650835700013,None,280.650835700013,None,283.6623110000219,None,283.6623110000219,None,283.6623110000219,None,283.6623110000219,None,None,None,None,None,None,,,,,,,,,,student1,2022-10-21_12h59.46.468,Hippopolis_Updating,2021.1.4,60.083949289667174,
Hippopolis,stimuli/subj_files/student1_cityA.csv,./stimuli/frankfurt.jpg,./stimuli/street_plate1.png,HEGESZTŐ UTCA,stimuli/scenes/043a.jpg,scene,0,stimuli/scenes/043a.jpg,stimuli/scenes/043b.jpg,stimuli/scenes/043a.jpg,stimuli/objects/062a.jpg,stimuli/objects/062b.jpg,lure,target,dist1,dist2,0,0,0,0,0,31,31,77,,,,,,,,,,,285.6671175000083,None,286.67791280001984,None,286.67791280001984,None,286.67791280001984,None,286.67791280001984,None,289.68929310000385,None,289.68929310000385,None,289.68929310000385,None,289.68929310000385,None,None,None,None,None,None,,,,,,,,,,student1,2022-10-21_12h59.46.468,Hippopolis_Updating,2021.1.4,60.083949289667174,
Hippopolis,stimuli/subj_files/student1_cityA.csv,./stimuli/frankfurt.jpg,./stimuli/street_plate1.png,CSAVAR UTCA,stimuli/objects/078a.jpg,object,0,stimuli/objects/078a.jpg,stimuli/objects/078b.jpg,stimuli/objects/024b.jpg,stimuli/objects/078a.jpg,stimuli/objects/024a.jpg,lure,dist2,target,dist1,0,0,0,0,0,32,32,10,,,,,,,,,,,291.6836370000092,None,292.6838121000037,None,292.6838121000037,None,292.6838121000037,None,292.6838121000037,None,295.68643320002593,None,295.68643320002593,None,295.68643320002593,None,295.68643320002593,None,None,None,None,None,None,,,,,,,,,,student1,2022-10-21_12h59.46.468,Hippopolis_Updating,2021.1.4,60.083949289667174,
Hippopolis,stimuli/subj_files/student1_cityA.csv,./stimuli/frankfurt.jpg,./stimuli/street_plate1.png,FIÓK UTCA,stimuli/scenes/002a.jpg,scene,1,stimuli/scenes/014a.jpg,stimuli/scenes/014a.jpg,stimuli/objects/004a.jpg,stimuli/objects/004b.jpg,stimuli/scenes/014b.jpg,target,dist1,dist2,lure,0,0,0,0,0,33,33,73,,,,,,,,,,,297.70010370001546,None,298.70056350002415,None,298.70056350002415,None,298.70056350002415,None,298.70056350002415,None,301.7044618000218,None,301.7044618000218,None,301.7044618000218,None,301.7044618000218,None,None,None,None,None,None,,,,,,,,,,student1,2022-10-21_12h59.46.468,Hippopolis_Updating,2021.1.4,60.083949289667174,
Hippopolis,stimuli/subj_files/student1_cityA.csv,./stimuli/frankfurt.jpg,./stimuli/street_plate1.png,ÁRNYÉK UTCA,stimuli/objects/020a.jpg,object,1,stimuli/objects/027a.jpg,stimuli/scenes/004a.jpg,stimuli/objects/027b.jpg,stimuli/objects/027a.jpg,stimuli/scenes/004b.jpg,dist1,lure,target,dist2,0,0,0,0,0,34,34,52,,,,,,,,,,,303.7167400000035,None,304.7176067000255,None,304.7176067000255,None,304.7176067000255,None,304.7176067000255,None,307.73968810000224,None,307.73968810000224,None,307.73968810000224,None,307.73968810000224,None,None,None,None,None,None,,,,,,,,,,student1,2022-10-21_12h59.46.468,Hippopolis_Updating,2021.1.4,60.083949289667174,
Hippopolis,stimuli/subj_files/student1_cityA.csv,./stimuli/frankfurt.jpg,./stimuli/street_plate1.png,KÖTÉL UTCA,stimuli/objects/051a.jpg,object,0,stimuli/objects/051a.jpg,stimuli/scenes/024b.jpg,stimuli/objects/051b.jpg,stimuli/scenes/024a.jpg,stimuli/objects/051a.jpg,dist2,lure,dist1,target,0,0,0,0,0,35,35,7,,,,,,,,,,,309.7332516000024,None,310.7337202000199,None,310.7337202000199,None,310.7337202000199,None,310.7337202000199,None,313.7362694000185,None,313.7362694000185,None,313.7362694000185,None,313.7362694000185,None,None,None,None,None,None,,,,,,,,,,student1,2022-10-21_12h59.46.468,Hippopolis_Updating,2021.1.4,60.083949289667174,
Hippopolis,stimuli/subj_files/student1_cityA.csv,./stimuli/frankfurt.jpg,./stimuli/street_plate1.png,CITROM UTCA,stimuli/scenes/036a.jpg,scene,2,stimuli/objects/043a.jpg,stimuli/objects/043b.jpg,stimuli/objects/067a.jpg,stimuli/objects/043a.jpg,stimuli/objects/067b.jpg,lure,dist1,target,dist2,0,0,0,0,0,36,36,26,,,,,,,,,,,315.74989279999863,None,316.7501912000007,None,316.7501912000007,None,316.7501912000007,None,316.7501912000007,None,319.7580050000106,None,319.7580050000106,None,319.7580050000106,None,319.7580050000106,None,None,None,None,None,None,,,,,,,,,,student1,2022-10-21_12h59.46.468,Hippopolis_Updating,2021.1.4,60.083949289667174,
Hippopolis,stimuli/subj_files/student1_cityA.csv,./stimuli/frankfurt.jpg,./stimuli/street_plate1.png,PULÓVER UTCA,stimuli/objects/114a.jpg,object,0,stimuli/objects/114a.jpg,stimuli/scenes/050b.jpg,stimuli/scenes/050a.jpg,stimuli/objects/114b.jpg,stimuli/objects/114a.jpg,dist2,dist1,lure,target,0,0,0,0,0,37,37,43,,,,,,,,,,,321.7664995000232,None,322.7668677000038,None,322.7668677000038,None,322.7668677000038,None,322.7668677000038,None,325.77403270002105,None,325.77403270002105,None,325.77403270002105,None,325.77403270002105,None,None,None,None,None,None,,,,,,,,,,student1,2022-10-21_12h59.46.468,Hippopolis_Updating,2021.1.4,60.083949289667174,
Hippopolis,stimuli/subj_files/student1_cityA.csv,./stimuli/frankfurt.jpg,./stimuli/street_plate1.png,BOLYGÓ UTCA,stimuli/scenes/118a.jpg,scene,1,stimuli/scenes/087a.jpg,stimuli/objects/011a.jpg,stimuli/scenes/087b.jpg,stimuli/objects/011b.jpg,stimuli/scenes/087a.jpg,dist1,lure,dist2,target,0,0,0,0,0,38,38,31,,,,,,,,,,,327.7829281000013,None,328.7851759000041,None,328.7851759000041,None,328.7851759000041,None,328.7851759000041,None,331.80509020001045,None,331.80509020001045,None,331.80509020001045,None,331.80509020001045,None,None,None,None,None,None,,,,,,,,,,student1,2022-10-21_12h59.46.468,Hippopolis_Updating,2021.1.4,60.083949289667174,
Hippopolis,stimuli/subj_files/student1_cityA.csv,./stimuli/frankfurt.jpg,./stimuli/street_plate1.png,OROSZLÁN UTCA,stimuli/scenes/072a.jpg,scene,0,stimuli/scenes/072a.jpg,stimuli/scenes/072a.jpg,stimuli/scenes/072b.jpg,stimuli/scenes/027b.jpg,stimuli/scenes/027a.jpg,target,lure,dist2,dist1,0,0,0,0,0,39,39,66,,,,,,,,,,,333.79967430001125,None,334.7995259000163,None,334.7995259000163,None,334.7995259000163,None,334.7995259000163,None,337.80220620002365,None,337.80220620002365,None,337.80220620002365,None,337.80220620002365,None,None,None,None,None,None,,,,,,,,,,student1,2022-10-21_12h59.46.468,Hippopolis_Updating,2021.1.4,60.083949289667174,
Hippopolis,stimuli/subj_files/student1_cityA.csv,./stimuli/frankfurt.jpg,./stimuli/street_plate1.png,MUNKA UTCA,stimuli/scenes/039a.jpg,scene,2,stimuli/objects/067a.jpg,stimuli/scenes/097a.jpg,stimuli/objects/067b.jpg,stimuli/objects/067a.jpg,stimuli/scenes/097b.jpg,dist1,lure,target,dist2,0,0,0,0,0,40,40,4,,,,,,,,,,,339.8163465000107,None,340.8163819000183,None,340.8163819000183,None,340.8163819000183,None,340.8163819000183,None,343.8358343,None,343.8358343,None,343.8358343,None,343.8358343,None,None,None,None,None,None,,,,,,,,,,student1,2022-10-21_12h59.46.468,Hippopolis_Updating,2021.1.4,60.083949289667174,
Hippopolis,stimuli/subj_files/student1_cityA.csv,./stimuli/frankfurt.jpg,./stimuli/street_plate1.png,ZSEMLE UTCA,stimuli/objects/115a.jpg,object,1,stimuli/objects/053a.jpg,stimuli/objects/007a.jpg,stimuli/objects/053a.jpg,stimuli/objects/007b.jpg,stimuli/objects/053b.jpg,dist1,target,dist2,lure,0,0,0,0,0,41,41,47,,,,,,,,,,,345.83290540002054,None,346.83343320002314,None,346.83343320002314,None,346.83343320002314,None,346.83343320002314,None,349.8534220000147,None,349.8534220000147,None,349.8534220000147,None,349.8534220000147,None,None,None,None,None,None,,,,,,,,,,student1,2022-10-21_12h59.46.468,Hippopolis_Updating,2021.1.4,60.083949289667174,
Hippopolis,stimuli/subj_files/student1_cityA.csv,./stimuli/frankfurt.jpg,./stimuli/street_plate1.png,KULLANCS UTCA,stimuli/objects/089a.jpg,object,0,stimuli/objects/089a.jpg,stimuli/scenes/072a.jpg,stimuli/objects/089a.jpg,stimuli/scenes/072b.jpg,stimuli/objects/089b.jpg,dist1,target,dist2,lure,0,0,0,0,0,42,42,34,,,,,,,,,,,351.8491520000098,None,352.84959740002523,None,352.84959740002523,None,352.84959740002523,None,352.84959740002523,None,355.85415759999887,None,355.85415759999887,None,355.85415759999887,None,355.85415759999887,None,None,None,None,None,None,,,,,,,,,,student1,2022-10-21_12h59.46.468,Hippopolis_Updating,2021.1.4,60.083949289667174,
Hippopolis,stimuli/subj_files/student1_cityA.csv,./stimuli/frankfurt.jpg,./stimuli/street_plate1.png,KARTON UTCA,stimuli/objects/101a.jpg,object,2,stimuli/scenes/044a.jpg,stimuli/scenes/074a.jpg,stimuli/scenes/044b.jpg,stimuli/scenes/044a.jpg,stimuli/scenes/074b.jpg,dist1,lure,target,dist2,0,0,0,0,0,43,43,8,,,,,,,,,,,357.86600730000646,None,358.86612190000596,None,358.86612190000596,None,358.86612190000596,None,358.86612190000596,None,361.8752235000138,None,361.8752235000138,None,361.8752235000138,None,361.8752235000138,None,None,None,None,None,None,,,,,,,,,,student1,2022-10-21_12h59.46.468,Hippopolis_Updating,2021.1.4,60.083949289667174,
Hippopolis,stimuli/subj_files/student1_cityA.csv,./stimuli/frankfurt.jpg,./stimuli/street_plate1.png,AJÁNDÉK UTCA,stimuli/scenes/005a.jpg,scene,1,stimuli/scenes/009a.jpg,stimuli/scenes/078b.jpg,stimuli/scenes/078a.jpg,stimuli/scenes/009a.jpg,stimuli/scenes/009b.jpg,dist2,dist1,target,lure,0,0,0,0,0,44,44,28,,,,,,,,,,,363.8822555000079,None,364.8823944000178,None,364.8823944000178,None,364.8823944000178,None,364.8823944000178,None,367.89059770002495,None,367.89059770002495,None,367.89059770002495,None,367.89059770002495,None,369.8991430000169,None,space,369.8991430000169,None,2.1028320000041276,,,,,,,,,student1,2022-10-21_12h59.46.468,Hippopolis_Updating,2021.1.4,60.083949289667174,
Hippopolis,stimuli/subj_files/student1_cityA.csv,./stimuli/frankfurt.jpg,./stimuli/street_plate1.png,HÁRFA UTCA,stimuli/objects/083a.jpg,object,2,stimuli/scenes/028a.jpg,stimuli/scenes/028b.jpg,stimuli/objects/012b.jpg,stimuli/objects/012a.jpg,stimuli/scenes/028a.jpg,lure,dist2,dist1,target,0,0,0,0,0,45,45,16,,,,,,,,,,,372.03226430001087,None,373.032841200009,None,373.032841200009,None,373.032841200009,None,373.032841200009,None,376.0415786000085,None,376.0415786000085,None,376.0415786000085,None,376.0415786000085,None,None,None,None,None,None,,,,,,,,,,student1,2022-10-21_12h59.46.468,Hippopolis_Updating,2021.1.4,60.083949289667174,
Hippopolis,stimuli/subj_files/student1_cityA.csv,./stimuli/frankfurt.jpg,./stimuli/street_plate1.png,MOTOR UTCA,stimuli/objects/097a.jpg,object,1,stimuli/objects/071a.jpg,stimuli/objects/015b.jpg,stimuli/objects/071b.jpg,stimuli/objects/071a.jpg,stimuli/objects/015a.jpg,dist2,lure,target,dist1,0,0,0,0,0,46,46,36,,,,,,,,,,,378.048772500013,None,379.04913560001296,None,379.04913560001296,None,379.04913560001296,None,379.04913560001296,None,382.06532150000567,None,382.06532150000567,None,382.06532150000567,None,382.06532150000567,None,None,None,None,None,None,,,,,,,,,,student1,2022-10-21_12h59.46.468,Hippopolis_Updating,2021.1.4,60.083949289667174,
Hippopolis,stimuli/subj_files/student1_cityA.csv,./stimuli/frankfurt.jpg,./stimuli/street_plate1.png,KOCKA UTCA,stimuli/objects/062a.jpg,object,0,stimuli/objects/062a.jpg,stimuli/scenes/095b.jpg,stimuli/objects/062a.jpg,stimuli/objects/062b.jpg,stimuli/scenes/095a.jpg,dist2,target,lure,dist1,0,0,0,0,0,47,47,35,,,,,,,,,,,384.0654614000232,None,385.0665977000026,None,385.0665977000026,None,385.0665977000026,None,385.0665977000026,None,388.07264200001373,None,388.07264200001373,None,388.07264200001373,None,388.07264200001373,None,None,None,None,None,None,,,,,,,,,,student1,2022-10-21_12h59.46.468,Hippopolis_Updating,2021.1.4,60.083949289667174,
Hippopolis,stimuli/subj_files/student1_cityA.csv,./stimuli/frankfurt.jpg,./stimuli/street_plate1.png,SIVATAG UTCA,stimuli/scenes/016a.jpg,scene,2,stimuli/objects/046a.jpg,stimuli/objects/046b.jpg,stimuli/objects/006a.jpg,stimuli/objects/006b.jpg,stimuli/objects/046a.jpg,lure,dist1,dist2,target,0,0,0,0,0,48,48,23,,,,,,,,,,,390.0819623999996,None,391.0826284000068,None,391.0826284000068,None,391.0826284000068,None,391.0826284000068,None,394.095572500024,None,394.095572500024,None,394.095572500024,None,394.095572500024,None,None,None,None,None,None,,,,,,,,,,student1,2022-10-21_12h59.46.468,Hippopolis_Updating,2021.1.4,60.083949289667174,
Hippopolis,stimuli/subj_files/student1_cityA.csv,./stimuli/frankfurt.jpg,./stimuli/street_plate1.png,KÖTÉNY UTCA,stimuli/scenes/031a.jpg,scene,1,stimuli/scenes/064a.jpg,stimuli/objects/103a.jpg,stimuli/objects/103b.jpg,stimuli/scenes/064b.jpg,stimuli/scenes/064a.jpg,dist1,dist2,lure,target,0,0,0,0,0,49,49,22,,,,,,,,,,,396.0990792000084,None,397.0988272000104,None,397.0988272000104,None,397.0988272000104,None,397.0988272000104,None,400.1094576000178,None,400.1094576000178,None,400.1094576000178,None,400.1094576000178,None,None,None,None,None,None,,,,,,,,,,student1,2022-10-21_12h59.46.468,Hippopolis_Updating,2021.1.4,60.083949289667174,
Hippopolis,stimuli/subj_files/student1_cityA.csv,./stimuli/frankfurt.jpg,./stimuli/street_plate1.png,PAPUCS UTCA,stimuli/scenes/051a.jpg,scene,0,stimuli/scenes/051a.jpg,stimuli/scenes/051b.jpg,stimuli/scenes/051a.jpg,stimuli/scenes/090a.jpg,stimuli/scenes/090b.jpg,lure,target,dist1,dist2,0,0,0,0,0,50,50,68,,,,,,,,,,,402.1150355999998,None,403.115778700012,None,403.115778700012,None,403.115778700012,None,403.115778700012,None,406.1171084000089,None,406.1171084000089,None,406.1171084000089,None,406.1171084000089,None,None,None,None,None,None,,,,,,,,,,student1,2022-10-21_12h59.46.468,Hippopolis_Updating,2021.1.4,60.083949289667174,
Hippopolis,stimuli/subj_files/student1_cityA.csv,./stimuli/frankfurt.jpg,./stimuli/street_plate1.png,KOKTÉL UTCA,stimuli/scenes/008a.jpg,scene,2,stimuli/objects/012a.jpg,stimuli/objects/036b.jpg,stimuli/objects/012b.jpg,stimuli/objects/036a.jpg,stimuli/objects/012a.jpg,dist2,lure,dist1,target,0,0,0,0,0,51,51,46,,,,,,,,,,,408.13180200001807,None,409.13194050002494,None,409.13194050002494,None,409.13194050002494,None,409.13194050002494,None,412.1517135000031,None,412.1517135000031,None,412.1517135000031,None,412.1517135000031,None,None,None,None,None,None,,,,,,,,,,student1,2022-10-21_12h59.46.468,Hippopolis_Updating,2021.1.4,60.083949289667174,
Hippopolis,stimuli/subj_files/student1_cityA.csv,./stimuli/frankfurt.jpg,./stimuli/street_plate1.png,TOJÁS UTCA,stimuli/objects/021a.jpg,object,2,stimuli/scenes/034a.jpg,stimuli/scenes/034a.jpg,stimuli/objects/059a.jpg,stimuli/objects/059b.jpg,stimuli/scenes/034b.jpg,target,dist1,dist2,lure,0,0,0,0,0,52,52,37,,,,,,,,,,,414.1482380000234,None,415.14854160000687,None,415.14854160000687,None,415.14854160000687,None,415.14854160000687,None,418.1573644000164,None,418.1573644000164,None,418.1573644000164,None,418.1573644000164,None,None,None,None,None,None,,,,,,,,,,student1,2022-10-21_12h59.46.468,Hippopolis_Updating,2021.1.4,60.083949289667174,
Hippopolis,stimuli/subj_files/student1_cityA.csv,./stimuli/frankfurt.jpg,./stimuli/street_plate1.png,KECSKE UTCA,stimuli/scenes/085a.jpg,scene,2,stimuli/objects/022a.jpg,stimuli/objects/022b.jpg,stimuli/objects/022a.jpg,stimuli/scenes/053a.jpg,stimuli/scenes/053b.jpg,lure,target,dist1,dist2,0,0,0,0,0,53,53,6,,,,,,,,,,,420.164763400011,None,421.16934089999995,None,421.16934089999995,None,421.16934089999995,None,421.16934089999995,None,424.1937211000186,None,424.1937211000186,None,424.1937211000186,None,424.1937211000186,None,None,None,None,None,None,,,,,,,,,,student1,2022-10-21_12h59.46.468,Hippopolis_Updating,2021.1.4,60.083949289667174,
Hippopolis,stimuli/subj_files/student1_cityA.csv,./stimuli/frankfurt.jpg,./stimuli/street_plate1.png,POGÁCSA UTCA,stimuli/scenes/046a.jpg,scene,0,stimuli/scenes/046a.jpg,stimuli/scenes/042a.jpg,stimuli/scenes/046a.jpg,stimuli/scenes/046b.jpg,stimuli/scenes/042b.jpg,dist1,target,lure,dist2,0,0,0,0,0,54,54,49,,,,,,,,,,,426.1816657000163,None,427.18335279999883,None,427.18335279999883,None,427.18335279999883,None,427.18335279999883,None,430.1878302000114,None,430.1878302000114,None,430.1878302000114,None,430.1878302000114,None,None,None,None,None,None,,,,,,,,,,student1,2022-10-21_12h59.46.468,Hippopolis_Updating,2021.1.4,60.083949289667174,
Hippopolis,stimuli/subj_files/student1_cityA.csv,./stimuli/frankfurt.jpg,./stimuli/street_plate1.png,FÓKA UTCA,stimuli/scenes/058a.jpg,scene,0,stimuli/scenes/058a.jpg,stimuli/scenes/058a.jpg,stimuli/scenes/058b.jpg,stimuli/objects/111b.jpg,stimuli/objects/111a.jpg,target,lure,dist2,dist1,0,0,0,0,0,55,55,51,,,,,,,,,,,432.19822050002404,None,433.19830690001254,None,433.19830690001254,None,433.19830690001254,None,433.19830690001254,None,436.2010016000131,None,436.2010016000131,None,436.2010016000131,None,436.2010016000131,None,None,None,None,None,None,,,,,,,,,,student1,2022-10-21_12h59.46.468,Hippopolis_Updating,2021.1.4,60.083949289667174,
Hippopolis,stimuli/subj_files/student1_cityA.csv,./stimuli/frankfurt.jpg,./stimuli/street_plate1.png,KERÉK UTCA,stimuli/scenes/096a.jpg,scene,1,stimuli/scenes/041a.jpg,stimuli/scenes/117a.jpg,stimuli/scenes/041b.jpg,stimuli/scenes/041a.jpg,stimuli/scenes/117b.jpg,dist1,lure,target,dist2,0,0,0,0,0,56,56,20,,,,,,,,,,,438.2144259000197,None,439.21486100001493,None,439.21486100001493,None,439.21486100001493,None,439.21486100001493,None,442.2286947000248,None,442.2286947000248,None,442.2286947000248,None,442.2286947000248,None,None,None,None,None,None,,,,,,,,,,student1,2022-10-21_12h59.46.468,Hippopolis_Updating,2021.1.4,60.083949289667174,
Hippopolis,stimuli/subj_files/student1_cityA.csv,./stimuli/frankfurt.jpg,./stimuli/street_plate1.png,KERET UTCA,stimuli/scenes/027a.jpg,scene,0,stimuli/scenes/027a.jpg,stimuli/objects/100a.jpg,stimuli/objects/100b.jpg,stimuli/scenes/027a.jpg,stimuli/scenes/027b.jpg,dist1,dist2,target,lure,0,0,0,0,0,57,57,3,,,,,,,,,,,444.23113820000435,None,445.2313869000063,None,445.2313869000063,None,445.2313869000063,None,445.2313869000063,None,448.2332043000206,None,448.2332043000206,None,448.2332043000206,None,448.2332043000206,None,None,None,None,None,None,,,,,,,,,,student1,2022-10-21_12h59.46.468,Hippopolis_Updating,2021.1.4,60.083949289667174,
Hippopolis,stimuli/subj_files/student1_cityA.csv,./stimuli/frankfurt.jpg,./stimuli/street_plate1.png,MOGYORÓ UTCA,stimuli/objects/106a.jpg,object,1,stimuli/objects/103a.jpg,stimuli/scenes/116a.jpg,stimuli/objects/103b.jpg,stimuli/objects/103a.jpg,stimuli/scenes/116b.jpg,dist1,lure,target,dist2,0,0,0,0,0,58,58,54,,,,,,,,,,,450.24776550001116,None,451.2489113000047,None,451.2489113000047,None,451.2489113000047,None,451.2489113000047,None,454.2823395000014,None,454.2823395000014,None,454.2823395000014,None,454.2823395000014,None,None,None,None,None,None,,,,,,,,,,student1,2022-10-21_12h59.46.468,Hippopolis_Updating,2021.1.4,60.083949289667174,
Hippopolis,stimuli/subj_files/student1_cityA.csv,./stimuli/frankfurt.jpg,./stimuli/street_plate1.png,HARMONIKA UTCA,stimuli/scenes/024a.jpg,scene,0,stimuli/scenes/024a.jpg,stimuli/scenes/101b.jpg,stimuli/scenes/024b.jpg,stimuli/scenes/101a.jpg,stimuli/scenes/024a.jpg,dist2,lure,dist1,target,0,0,0,0,0,59,59,25,,,,,,,,,,,456.2642600000254,None,457.26448570002685,None,457.26448570002685,None,457.26448570002685,None,457.26448570002685,None,460.26590350002516,None,460.26590350002516,None,460.26590350002516,None,460.26590350002516,None,None,None,None,None,None,,,,,,,,,,student1,2022-10-21_12h59.46.468,Hippopolis_Updating,2021.1.4,60.083949289667174,
Hippopolis,stimuli/subj_files/student1_cityA.csv,./stimuli/frankfurt.jpg,./stimuli/street_plate1.png,PETÁRDA UTCA,stimuli/objects/009a.jpg,object,0,stimuli/objects/009a.jpg,stimuli/objects/009a.jpg,stimuli/scenes/051a.jpg,stimuli/objects/009b.jpg,stimuli/scenes/051b.jpg,target,dist1,lure,dist2,0,0,0,0,0,60,60,64,,,,,,,,,,,462.2806092000101,None,463.28108330001123,None,463.28108330001123,None,463.28108330001123,None,463.28108330001123,None,466.28469020000193,None,466.28469020000193,None,466.28469020000193,None,466.28469020000193,None,None,None,None,None,None,,,,,,,,,,student1,2022-10-21_12h59.46.468,Hippopolis_Updating,2021.1.4,60.083949289667174,
Hippopolis,stimuli/subj_files/student1_cityA.csv,./stimuli/frankfurt.jpg,./stimuli/street_plate1.png,BONBON UTCA,stimuli/objects/095a.jpg,object,2,stimuli/scenes/007a.jpg,stimuli/objects/028b.jpg,stimuli/objects/028a.jpg,stimuli/scenes/007a.jpg,stimuli/scenes/007b.jpg,dist2,dist1,target,lure,0,0,0,0,0,61,61,72,,,,,,,,,,,468.2976786000072,None,469.2976662000001,None,469.2976662000001,None,469.2976662000001,None,469.2976662000001,None,472.3073633000022,None,472.3073633000022,None,472.3073633000022,None,472.3073633000022,None,None,None,None,None,None,,,,,,,,,,student1,2022-10-21_12h59.46.468,Hippopolis_Updating,2021.1.4,60.083949289667174,
Hippopolis,stimuli/subj_files/student1_cityA.csv,./stimuli/frankfurt.jpg,./stimuli/street_plate1.png,ÁLOM UTCA,stimuli/objects/070a.jpg,object,0,stimuli/objects/070a.jpg,stimuli/objects/070b.jpg,stimuli/objects/114b.jpg,stimuli/objects/114a.jpg,stimuli/objects/070a.jpg,lure,dist2,dist1,target,0,0,0,0,0,62,62,50,,,,,,,,,,,474.31440260002273,None,475.3150904000213,None,475.3150904000213,None,475.3150904000213,None,475.3150904000213,None,478.3189575000142,None,478.3189575000142,None,478.3189575000142,None,478.3189575000142,None,None,None,None,None,None,,,,,,,,,,student1,2022-10-21_12h59.46.468,Hippopolis_Updating,2021.1.4,60.083949289667174,
Hippopolis,stimuli/subj_files/student1_cityA.csv,./stimuli/frankfurt.jpg,./stimuli/street_plate1.png,HORDÓ UTCA,stimuli/scenes/095a.jpg,scene,0,stimuli/scenes/095a.jpg,stimuli/scenes/095a.jpg,stimuli/scenes/046a.jpg,stimuli/scenes/095b.jpg,stimuli/scenes/046b.jpg,target,dist1,lure,dist2,0,0,0,0,0,63,63,27,,,,,,,,,,,480.33046770002693,None,481.33094890002394,None,481.33094890002394,None,481.33094890002394,None,481.33094890002394,None,484.34552400000393,None,484.34552400000393,None,484.34552400000393,None,484.34552400000393,None,None,None,None,None,None,,,,,,,,,,student1,2022-10-21_12h59.46.468,Hippopolis_Updating,2021.1.4,60.083949289667174,
Hippopolis,stimuli/subj_files/student1_cityA.csv,./stimuli/frankfurt.jpg,./stimuli/street_plate1.png,KIRAKÓ UTCA,stimuli/objects/079a.jpg,object,2,stimuli/scenes/070a.jpg,stimuli/scenes/070a.jpg,stimuli/scenes/070b.jpg,stimuli/objects/043b.jpg,stimuli/objects/043a.jpg,target,lure,dist2,dist1,0,0,0,0,0,64,64,57,,,,,,,,,,,486.3475828000228,None,487.34747940002126,None,487.34747940002126,None,487.34747940002126,None,487.34747940002126,None,490.3536880000029,None,490.3536880000029,None,490.3536880000029,None,490.3536880000029,None,None,None,None,None,None,,,,,,,,,,student1,2022-10-21_12h59.46.468,Hippopolis_Updating,2021.1.4,60.083949289667174,
Hippopolis,stimuli/subj_files/student1_cityA.csv,./stimuli/frankfurt.jpg,./stimuli/street_plate1.png,PÁLMAFA UTCA,stimuli/objects/090a.jpg,object,1,stimuli/objects/007a.jpg,stimuli/objects/053a.jpg,stimuli/objects/007a.jpg,stimuli/objects/053b.jpg,stimuli/objects/007b.jpg,dist1,target,dist2,lure,0,0,0,0,0,65,65,12,,,,,,,,,,,492.36331190000055,None,493.3639283000084,None,493.3639283000084,None,493.3639283000084,None,493.3639283000084,None,496.3831206000177,None,496.3831206000177,None,496.3831206000177,None,496.3831206000177,None,None,None,None,None,None,,,,,,,,,,student1,2022-10-21_12h59.46.468,Hippopolis_Updating,2021.1.4,60.083949289667174,
Hippopolis,stimuli/subj_files/student1_cityA.csv,./stimuli/frankfurt.jpg,./stimuli/street_plate1.png,DOMINÓ UTCA,stimuli/scenes/042a.jpg,scene,0,stimuli/scenes/042a.jpg,stimuli/scenes/042a.jpg,stimuli/scenes/042b.jpg,stimuli/objects/070a.jpg,stimuli/objects/070b.jpg,target,lure,dist1,dist2,0,0,0,0,0,66,66,63,,,,,,,,,,,498.38014439999824,None,499.3805161000055,None,499.3805161000055,None,499.3805161000055,None,499.3805161000055,None,502.38296170000103,None,502.38296170000103,None,502.38296170000103,None,502.38296170000103,None,None,None,None,None,None,,,,,,,,,,student1,2022-10-21_12h59.46.468,Hippopolis_Updating,2021.1.4,60.083949289667174,
Hippopolis,stimuli/subj_files/student1_cityA.csv,./stimuli/frankfurt.jpg,./stimuli/street_plate1.png,VÖDÖR UTCA,stimuli/scenes/055a.jpg,scene,1,stimuli/scenes/088a.jpg,stimuli/scenes/088b.jpg,stimuli/scenes/088a.jpg,stimuli/scenes/087b.jpg,stimuli/scenes/087a.jpg,lure,target,dist2,dist1,0,0,0,0,0,67,67,56,,,,,,,,,,,504.39725320000434,None,505.3968684000138,None,505.3968684000138,None,505.3968684000138,None,505.3968684000138,None,508.40423700000974,None,508.40423700000974,None,508.40423700000974,None,508.40423700000974,None,None,None,None,None,None,,,,,,,,,,student1,2022-10-21_12h59.46.468,Hippopolis_Updating,2021.1.4,60.083949289667174,
Hippopolis,stimuli/subj_files/student1_cityA.csv,./stimuli/frankfurt.jpg,./stimuli/street_plate1.png,MOCSÁR UTCA,stimuli/objects/080a.jpg,object,0,stimuli/objects/080a.jpg,stimuli/objects/080b.jpg,stimuli/objects/080a.jpg,stimuli/scenes/043b.jpg,stimuli/scenes/043a.jpg,lure,target,dist2,dist1,0,0,0,0,0,68,68,17,,,,,,,,,,,510.41365070000757,None,511.4137296000263,None,511.4137296000263,None,511.4137296000263,None,511.4137296000263,None,514.4244447000092,None,514.4244447000092,None,514.4244447000092,None,514.4244447000092,None,None,None,None,None,None,,,,,,,,,,student1,2022-10-21_12h59.46.468,Hippopolis_Updating,2021.1.4,60.083949289667174,
Hippopolis,stimuli/subj_files/student1_cityA.csv,./stimuli/frankfurt.jpg,./stimuli/street_plate1.png,LIGET UTCA,stimuli/objects/038a.jpg,object,2,stimuli/scenes/109a.jpg,stimuli/scenes/109a.jpg,stimuli/objects/055a.jpg,stimuli/scenes/109b.jpg,stimuli/objects/055b.jpg,target,dist1,lure,dist2,0,0,0,0,0,69,69,62,,,,,,,,,,,516.4299937000033,None,517.4302181000239,None,517.4302181000239,None,517.4302181000239,None,517.4302181000239,None,520.4458869000082,None,520.4458869000082,None,520.4458869000082,None,520.4458869000082,None,None,None,None,None,None,,,,,,,,,,student1,2022-10-21_12h59.46.468,Hippopolis_Updating,2021.1.4,60.083949289667174,
Hippopolis,stimuli/subj_files/student1_cityA.csv,./stimuli/frankfurt.jpg,./stimuli/street_plate1.png,FÉNYKÉP UTCA,stimuli/scenes/010a.jpg,scene,1,stimuli/scenes/078a.jpg,stimuli/scenes/088a.jpg,stimuli/scenes/078a.jpg,stimuli/scenes/088b.jpg,stimuli/scenes/078b.jpg,dist1,target,dist2,lure,0,0,0,0,0,70,70,32,,,,,,,,,,,522.4466071000206,None,523.4466037000238,None,523.4466037000238,None,523.4466037000238,None,523.4466037000238,None,526.4667744000035,None,526.4667744000035,None,526.4667744000035,None,526.4667744000035,None,None,None,None,None,None,,,,,,,,,,student1,2022-10-21_12h59.46.468,Hippopolis_Updating,2021.1.4,60.083949289667174,
Hippopolis,stimuli/subj_files/student1_cityA.csv,./stimuli/frankfurt.jpg,./stimuli/street_plate1.png,BÖGRE UTCA,stimuli/objects/050a.jpg,object,1,stimuli/objects/076a.jpg,stimuli/scenes/037a.jpg,stimuli/objects/076a.jpg,stimuli/objects/076b.jpg,stimuli/scenes/037b.jpg,dist1,target,lure,dist2,0,0,0,0,0,71,71,41,,,,,,,,,,,528.4629440999997,None,529.4638752000174,None,529.4638752000174,None,529.4638752000174,None,529.4638752000174,None,532.4721577000164,None,532.4721577000164,None,532.4721577000164,None,532.4721577000164,None,None,None,None,None,None,,,,,,,,,,student1,2022-10-21_12h59.46.468,Hippopolis_Updating,2021.1.4,60.083949289667174,
Hippopolis,stimuli/subj_files/student1_cityA.csv,./stimuli/frankfurt.jpg,./stimuli/street_plate1.png,LAKAT UTCA,stimuli/objects/066a.jpg,object,2,stimuli/scenes/084a.jpg,stimuli/scenes/084b.jpg,stimuli/scenes/034a.jpg,stimuli/scenes/084a.jpg,stimuli/scenes/034b.jpg,lure,dist1,target,dist2,0,0,0,0,0,72,72,58,,,,,,,,,,,534.4794547000201,None,535.479888300004,None,535.479888300004,None,535.479888300004,None,535.479888300004,None,538.4893174000026,None,538.4893174000026,None,538.4893174000026,None,538.4893174000026,None,None,None,None,None,None,,,,,,,,,,student1,2022-10-21_12h59.46.468,Hippopolis_Updating,2021.1.4,60.083949289667174,
Hippopolis,stimuli/subj_files/student1_cityA.csv,./stimuli/frankfurt.jpg,./stimuli/street_plate1.png,PÁFRÁNY UTCA,stimuli/scenes/101a.jpg,scene,0,stimuli/scenes/101a.jpg,stimuli/scenes/101a.jpg,stimuli/scenes/101b.jpg,stimuli/objects/051a.jpg,stimuli/objects/051b.jpg,target,lure,dist1,dist2,0,0,0,0,0,73,73,0,,,,,,,,,,,540.4961568000144,None,541.4975282000087,None,541.4975282000087,None,541.4975282000087,None,541.4975282000087,None,544.5163009000244,None,544.5163009000244,None,544.5163009000244,None,544.5163009000244,None,None,None,None,None,None,,,,,,,,,,student1,2022-10-21_12h59.46.468,Hippopolis_Updating,2021.1.4,60.083949289667174,
Hippopolis,stimuli/subj_files/student1_cityA.csv,./stimuli/frankfurt.jpg,./stimuli/street_plate1.png,PÉKSÉG UTCA,stimuli/scenes/073a.jpg,scene,2,stimuli/objects/059a.jpg,stimuli/objects/059a.jpg,stimuli/objects/046b.jpg,stimuli/objects/059b.jpg,stimuli/objects/046a.jpg,target,dist2,lure,dist1,0,0,0,0,0,74,74,61,,,,,,,,,,,546.5126956000167,None,547.5128586000064,None,547.5128586000064,None,547.5128586000064,None,547.5128586000064,None,550.5317899000074,None,550.5317899000074,None,550.5317899000074,None,550.5317899000074,None,None,None,None,None,None,,,,,,,,,,student1,2022-10-21_12h59.46.468,Hippopolis_Updating,2021.1.4,60.083949289667174,
Hippopolis,stimuli/subj_files/student1_cityA.csv,./stimuli/frankfurt.jpg,./stimuli/street_plate1.png,SZIKLA UTCA,stimuli/scenes/111a.jpg,scene,2,stimuli/objects/073a.jpg,stimuli/objects/120b.jpg,stimuli/objects/120a.jpg,stimuli/objects/073a.jpg,stimuli/objects/073b.jpg,dist2,dist1,target,lure,0,0,0,0,0,75,75,1,,,,,,,,,,,552.5290364000248,None,553.531527300016,None,553.531527300016,None,553.531527300016,None,553.531527300016,None,556.5651771000121,None,556.5651771000121,None,556.5651771000121,None,556.5651771000121,None,None,None,None,None,None,,,,,,,,,,student1,2022-10-21_12h59.46.468,Hippopolis_Updating,2021.1.4,60.083949289667174,
Hippopolis,stimuli/subj_files/student1_cityA.csv,./stimuli/frankfurt.jpg,./stimuli/street_plate1.png,TALICSKA UTCA,stimuli/objects/014a.jpg,object,1,stimuli/objects/108a.jpg,stimuli/objects/109a.jpg,stimuli/objects/109b.jpg,stimuli/objects/108a.jpg,stimuli/objects/108b.jpg,dist1,dist2,target,lure,0,0,0,0,0,76,76,13,,,,,,,,,,,558.5462538000138,None,559.5481543000205,None,559.5481543000205,None,559.5481543000205,None,559.5481543000205,None,562.5830293000035,None,562.5830293000035,None,562.5830293000035,None,562.5830293000035,None,None,None,None,None,None,,,,,,,,,,student1,2022-10-21_12h59.46.468,Hippopolis_Updating,2021.1.4,60.083949289667174,
Hippopolis,stimuli/subj_files/student1_cityA.csv,./stimuli/frankfurt.jpg,./stimuli/street_plate1.png,EGÉR UTCA,stimuli/scenes/071a.jpg,scene,1,stimuli/scenes/116a.jpg,stimuli/scenes/116b.jpg,stimuli/scenes/116a.jpg,stimuli/scenes/009b.jpg,stimuli/scenes/009a.jpg,lure,target,dist2,dist1,0,0,0,0,0,77,77,29,,,,,,,,,,,564.5624552000081,None,565.5626656000095,None,565.5626656000095,None,565.5626656000095,None,565.5626656000095,None,568.578585500014,None,568.578585500014,None,568.578585500014,None,568.578585500014,None,None,None,None,None,None,,,,,,,,,,student1,2022-10-21_12h59.46.468,Hippopolis_Updating,2021.1.4,60.083949289667174,
Hippopolis,stimuli/subj_files/student1_cityA.csv,./stimuli/frankfurt.jpg,./stimuli/street_plate1.png,RÓZSA UTCA,stimuli/objects/091a.jpg,object,0,stimuli/objects/091a.jpg,stimuli/objects/091b.jpg,stimuli/objects/078b.jpg,stimuli/objects/078a.jpg,stimuli/objects/091a.jpg,lure,dist2,dist1,target,0,0,0,0,0,78,78,45,,,,,,,,,,,570.5787489000068,None,571.5792422000086,None,571.5792422000086,None,571.5792422000086,None,571.5792422000086,None,574.5828369000228,None,574.5828369000228,None,574.5828369000228,None,574.5828369000228,None,None,None,None,None,None,,,,,,,,,,student1,2022-10-21_12h59.46.468,Hippopolis_Updating,2021.1.4,60.083949289667174,
Hippopolis,stimuli/subj_files/student1_cityA.csv,./stimuli/frankfurt.jpg,./stimuli/street_plate1.png,HERNYÓ UTCA,stimuli/scenes/066a.jpg,scene,1,stimuli/scenes/037a.jpg,stimuli/scenes/037a.jpg,stimuli/objects/045b.jpg,stimuli/scenes/037b.jpg,stimuli/objects/045a.jpg,target,dist2,lure,dist1,0,0,0,0,0,79,79,5,,,,,,,,,,,576.5954087999999,None,577.5957032000006,None,577.5957032000006,None,577.5957032000006,None,577.5957032000006,None,580.6079381000018,None,580.6079381000018,None,580.6079381000018,None,580.6079381000018,None,None,None,None,None,None,,,,,,,,,,student1,2022-10-21_12h59.46.468,Hippopolis_Updating,2021.1.4,60.083949289667174,
Camponello,stimuli/subj_files/student1_cityB.csv,./stimuli/leipzig.jpg,./stimuli/street_plate2.png,FÉSŰ UTCA,stimuli/objects/084a.jpg,object,0,stimuli/objects/084a.jpg,stimuli/objects/118b.jpg,stimuli/objects/118a.jpg,stimuli/objects/084a.jpg,stimuli/objects/084b.jpg,dist2,dist1,target,lure,0,1,1,1,0,0,0,23,,,,,,,589.783188100002,None,589.783188100002,None,592.7714753000182,None,593.7754588000244,None,593.7754588000244,None,593.7754588000244,None,593.7754588000244,None,596.7714254000166,None,596.7714254000166,None,596.7714254000166,None,596.7714254000166,None,None,None,None,None,None,,582.6124963000184,None,space,7.1002831000078,582.6124963000184,None,,,student1,2022-10-21_12h59.46.468,Hippopolis_Updating,2021.1.4,60.083949289667174,
Camponello,stimuli/subj_files/student1_cityB.csv,./stimuli/leipzig.jpg,./stimuli/street_plate2.png,MANDARIN UTCA,stimuli/scenes/075a.jpg,scene,0,stimuli/scenes/075a.jpg,stimuli/objects/072a.jpg,stimuli/objects/072b.jpg,stimuli/scenes/075b.jpg,stimuli/scenes/075a.jpg,dist1,dist2,lure,target,0,1,1,1,0,1,1,37,,,,,,,,,,,598.7616905000177,None,599.7620647000149,None,599.7620647000149,None,599.7620647000149,None,599.7620647000149,None,602.7661658000143,None,602.7661658000143,None,602.7661658000143,None,602.7661658000143,None,None,None,None,None,None,,,,,,,,,,student1,2022-10-21_12h59.46.468,Hippopolis_Updating,2021.1.4,60.083949289667174,
Camponello,stimuli/subj_files/student1_cityB.csv,./stimuli/leipzig.jpg,./stimuli/street_plate2.png,ÁLLOMÁS UTCA,stimuli/scenes/069a.jpg,scene,0,stimuli/scenes/069a.jpg,stimuli/scenes/106a.jpg,stimuli/scenes/106b.jpg,stimuli/scenes/069b.jpg,stimuli/scenes/069a.jpg,dist1,dist2,lure,target,0,1,1,1,0,2,2,42,,,,,,,,,,,604.7781587000063,None,605.7792523000098,None,605.7792523000098,None,605.7792523000098,None,605.7792523000098,None,608.785946500022,None,608.785946500022,None,608.785946500022,None,608.785946500022,None,None,None,None,None,None,,,,,,,,,,student1,2022-10-21_12h59.46.468,Hippopolis_Updating,2021.1.4,60.083949289667174,
Camponello,stimuli/subj_files/student1_cityB.csv,./stimuli/leipzig.jpg,./stimuli/street_plate2.png,REPÜLŐ UTCA,stimuli/scenes/098a.jpg,scene,0,stimuli/scenes/098a.jpg,stimuli/scenes/013a.jpg,stimuli/scenes/013b.jpg,stimuli/scenes/098a.jpg,stimuli/scenes/098b.jpg,dist1,dist2,target,lure,0,1,1,1,0,3,3,66,,,,,,,,,,,610.7947022000153,None,611.7949889000156,None,611.7949889000156,None,611.7949889000156,None,611.7949889000156,None,614.7989650000236,None,614.7989650000236,None,614.7989650000236,None,614.7989650000236,None,None,None,None,None,None,,,,,,,,,,student1,2022-10-21_12h59.46.468,Hippopolis_Updating,2021.1.4,60.083949289667174,
Camponello,stimuli/subj_files/student1_cityB.csv,./stimuli/leipzig.jpg,./stimuli/street_plate2.png,BANÁN UTCA,stimuli/scenes/045a.jpg,scene,0,stimuli/scenes/045a.jpg,stimuli/scenes/045b.jpg,stimuli/scenes/045a.jpg,stimuli/scenes/112b.jpg,stimuli/scenes/112a.jpg,lure,target,dist2,dist1,0,1,1,1,0,4,4,57,,,,,,,,,,,616.8114767000079,None,617.8117536000209,None,617.8117536000209,None,617.8117536000209,None,617.8117536000209,None,620.8150909000251,None,620.8150909000251,None,620.8150909000251,None,620.8150909000251,None,None,None,None,None,None,,,,,,,,,,student1,2022-10-21_12h59.46.468,Hippopolis_Updating,2021.1.4,60.083949289667174,
Camponello,stimuli/subj_files/student1_cityB.csv,./stimuli/leipzig.jpg,./stimuli/street_plate2.png,TÁNYÉR UTCA,stimuli/objects/118a.jpg,object,0,stimuli/objects/118a.jpg,stimuli/objects/102b.jpg,stimuli/objects/102a.jpg,stimuli/objects/118b.jpg,stimuli/objects/118a.jpg,dist2,dist1,lure,target,0,1,1,1,0,5,5,28,,,,,,,,,,,622.8283643000177,None,623.8282880000188,None,623.8282880000188,None,623.8282880000188,None,623.8282880000188,None,626.8392516000022,None,626.8392516000022,None,626.8392516000022,None,626.8392516000022,None,None,None,None,None,None,,,,,,,,,,student1,2022-10-21_12h59.46.468,Hippopolis_Updating,2021.1.4,60.083949289667174,
Camponello,stimuli/subj_files/student1_cityB.csv,./stimuli/leipzig.jpg,./stimuli/street_plate2.png,KOCSI UTCA,stimuli/scenes/114a.jpg,scene,0,stimuli/scenes/114a.jpg,stimuli/objects/082b.jpg,stimuli/scenes/114b.jpg,stimuli/scenes/114a.jpg,stimuli/objects/082a.jpg,dist2,lure,target,dist1,0,1,1,1,0,6,6,69,,,,,,,,,,,628.8444877000002,None,629.8447223000112,None,629.8447223000112,None,629.8447223000112,None,629.8447223000112,None,632.8583221000154,None,632.8583221000154,None,632.8583221000154,None,632.8583221000154,None,None,None,None,None,None,,,,,,,,,,student1,2022-10-21_12h59.46.468,Hippopolis_Updating,2021.1.4,60.083949289667174,
Camponello,stimuli/subj_files/student1_cityB.csv,./stimuli/leipzig.jpg,./stimuli/street_plate2.png,BOHÓC UTCA,stimuli/objects/064a.jpg,object,0,stimuli/objects/064a.jpg,stimuli/objects/040b.jpg,stimuli/objects/040a.jpg,stimuli/objects/064a.jpg,stimuli/objects/064b.jpg,dist2,dist1,target,lure,0,1,1,1,0,7,7,17,,,,,,,,,,,634.8612938000006,None,635.8614744000079,None,635.8614744000079,None,635.8614744000079,None,635.8614744000079,None,638.8669671000098,None,638.8669671000098,None,638.8669671000098,None,638.8669671000098,None,None,None,None,None,None,,,,,,,,,,student1,2022-10-21_12h59.46.468,Hippopolis_Updating,2021.1.4,60.083949289667174,
Camponello,stimuli/subj_files/student1_cityB.csv,./stimuli/leipzig.jpg,./stimuli/street_plate2.png,MOSODA UTCA,stimuli/objects/052a.jpg,object,0,stimuli/objects/052a.jpg,stimuli/objects/052b.jpg,stimuli/scenes/035a.jpg,stimuli/objects/052a.jpg,stimuli/scenes/035b.jpg,lure,dist1,target,dist2,0,1,1,1,0,8,8,51,,,,,,,,,,,640.8780929000059,None,641.8781164000102,None,641.8781164000102,None,641.8781164000102,None,641.8781164000102,None,644.8906680000073,None,644.8906680000073,None,644.8906680000073,None,644.8906680000073,None,None,None,None,None,None,,,,,,,,,,student1,2022-10-21_12h59.46.468,Hippopolis_Updating,2021.1.4,60.083949289667174,
Camponello,stimuli/subj_files/student1_cityB.csv,./stimuli/leipzig.jpg,./stimuli/street_plate2.png,SÜTŐ UTCA,stimuli/scenes/038a.jpg,scene,0,stimuli/scenes/038a.jpg,stimuli/scenes/038b.jpg,stimuli/objects/033b.jpg,stimuli/objects/033a.jpg,stimuli/scenes/038a.jpg,lure,dist2,dist1,target,0,1,1,1,0,9,9,5,,,,,,,,,,,646.8943091000256,None,647.8961971000244,None,647.8961971000244,None,647.8961971000244,None,647.8961971000244,None,650.9195470999985,None,650.9195470999985,None,650.9195470999985,None,650.9195470999985,None,None,None,None,None,None,,,,,,,,,,student1,2022-10-21_12h59.46.468,Hippopolis_Updating,2021.1.4,60.083949289667174,
Camponello,stimuli/subj_files/student1_cityB.csv,./stimuli/leipzig.jpg,./stimuli/street_plate2.png,PAPRIKA UTCA,stimuli/objects/033a.jpg,object,0,stimuli/objects/033a.jpg,stimuli/scenes/023a.jpg,stimuli/objects/033b.jpg,stimuli/scenes/023b.jpg,stimuli/objects/033a.jpg,dist1,lure,dist2,target,0,1,1,1,0,10,10,30,,,,,,,,,,,652.9106852000114,None,653.9139629999991,None,653.9139629999991,None,653.9139629999991,None,653.9139629999991,None,656.9410268000211,None,656.9410268000211,None,656.9410268000211,None,656.9410268000211,None,None,None,None,None,None,,,,,,,,,,student1,2022-10-21_12h59.46.468,Hippopolis_Updating,2021.1.4,60.083949289667174,
Camponello,stimuli/subj_files/student1_cityB.csv,./stimuli/leipzig.jpg,./stimuli/street_plate2.png,KÍGYÓ UTCA,stimuli/scenes/032a.jpg,scene,0,stimuli/scenes/032a.jpg,stimuli/scenes/032a.jpg,stimuli/objects/088a.jpg,stimuli/scenes/032b.jpg,stimuli/objects/088b.jpg,target,dist1,lure,dist2,0,1,1,1,0,11,11,76,,,,,,,,,,,658.9273482999997,None,659.9334176000266,None,659.9334176000266,None,659.9334176000266,None,659.9334176000266,None,662.9543817000231,None,662.9543817000231,None,662.9543817000231,None,662.9543817000231,None,None,None,None,None,None,,,,,,,,,,student1,2022-10-21_12h59.46.468,Hippopolis_Updating,2021.1.4,60.083949289667174,
Camponello,stimuli/subj_files/student1_cityB.csv,./stimuli/leipzig.jpg,./stimuli/street_plate2.png,TULIPÁN UTCA,stimuli/objects/058a.jpg,object,0,stimuli/objects/058a.jpg,stimuli/objects/117a.jpg,stimuli/objects/117b.jpg,stimuli/objects/058b.jpg,stimuli/objects/058a.jpg,dist1,dist2,lure,target,0,1,1,1,0,12,12,1,,,,,,,,,,,664.9440302000148,None,665.9458668000007,None,665.9458668000007,None,665.9458668000007,None,665.9458668000007,None,668.9679491000134,None,668.9679491000134,None,668.9679491000134,None,668.9679491000134,None,None,None,None,None,None,,,,,,,,,,student1,2022-10-21_12h59.46.468,Hippopolis_Updating,2021.1.4,60.083949289667174,
Camponello,stimuli/subj_files/student1_cityB.csv,./stimuli/leipzig.jpg,./stimuli/street_plate2.png,FEJSZE UTCA,stimuli/objects/065a.jpg,object,0,stimuli/objects/065a.jpg,stimuli/scenes/075b.jpg,stimuli/objects/065b.jpg,stimuli/objects/065a.jpg,stimuli/scenes/075a.jpg,dist2,lure,target,dist1,0,1,1,1,0,13,13,9,,,,,,,,,,,670.9606391999987,None,671.960864600027,None,671.960864600027,None,671.960864600027,None,671.960864600027,None,674.9714254999999,None,674.9714254999999,None,674.9714254999999,None,674.9714254999999,None,None,None,None,None,None,,,,,,,,,,student1,2022-10-21_12h59.46.468,Hippopolis_Updating,2021.1.4,60.083949289667174,
Camponello,stimuli/subj_files/student1_cityB.csv,./stimuli/leipzig.jpg,./stimuli/street_plate2.png,KOSÁR UTCA,stimuli/objects/057a.jpg,object,2,stimuli/scenes/001a.jpg,stimuli/scenes/001a.jpg,stimuli/scenes/001b.jpg,stimuli/objects/005b.jpg,stimuli/objects/005a.jpg,target,lure,dist2,dist1,0,1,1,1,0,14,14,38,,,,,,,,,,,676.9773675000179,None,677.9792342000001,None,677.9792342000001,None,677.9792342000001,None,677.9792342000001,None,681.0024462000001,None,681.0024462000001,None,681.0024462000001,None,681.0024462000001,None,None,None,None,None,None,,,,,,,,,,student1,2022-10-21_12h59.46.468,Hippopolis_Updating,2021.1.4,60.083949289667174,
Camponello,stimuli/subj_files/student1_cityB.csv,./stimuli/leipzig.jpg,./stimuli/street_plate2.png,SALÁTA UTCA,stimuli/objects/008a.jpg,object,0,stimuli/objects/008a.jpg,stimuli/scenes/099b.jpg,stimuli/objects/008b.jpg,stimuli/objects/008a.jpg,stimuli/scenes/099a.jpg,dist2,lure,target,dist1,0,1,1,1,0,15,15,73,,,,,,,,,,,682.994022800005,None,683.9941543000168,None,683.9941543000168,None,683.9941543000168,None,683.9941543000168,None,686.997769300011,None,686.997769300011,None,686.997769300011,None,686.997769300011,None,None,None,None,None,None,,,,,,,,,,student1,2022-10-21_12h59.46.468,Hippopolis_Updating,2021.1.4,60.083949289667174,
Camponello,stimuli/subj_files/student1_cityB.csv,./stimuli/leipzig.jpg,./stimuli/street_plate2.png,MENTA UTCA,stimuli/objects/092a.jpg,object,0,stimuli/objects/092a.jpg,stimuli/scenes/069a.jpg,stimuli/scenes/069b.jpg,stimuli/objects/092a.jpg,stimuli/objects/092b.jpg,dist1,dist2,target,lure,0,1,1,1,0,16,16,67,,,,,,,,,,,689.0103261000186,None,690.0106346000102,None,690.0106346000102,None,690.0106346000102,None,690.0106346000102,None,693.0192098000261,None,693.0192098000261,None,693.0192098000261,None,693.0192098000261,None,None,None,None,None,None,,,,,,,,,,student1,2022-10-21_12h59.46.468,Hippopolis_Updating,2021.1.4,60.083949289667174,
Camponello,stimuli/subj_files/student1_cityB.csv,./stimuli/leipzig.jpg,./stimuli/street_plate2.png,ASZTAL UTCA,stimuli/scenes/120a.jpg,scene,2,stimuli/objects/035a.jpg,stimuli/scenes/079b.jpg,stimuli/scenes/079a.jpg,stimuli/objects/035b.jpg,stimuli/objects/035a.jpg,dist2,dist1,lure,target,0,1,1,1,0,17,17,24,,,,,,,,,,,695.0270399000146,None,696.0275257000176,None,696.0275257000176,None,696.0275257000176,None,696.0275257000176,None,699.0384322000027,None,699.0384322000027,None,699.0384322000027,None,699.0384322000027,None,None,None,None,None,None,,,,,,,,,,student1,2022-10-21_12h59.46.468,Hippopolis_Updating,2021.1.4,60.083949289667174,
Camponello,stimuli/subj_files/student1_cityB.csv,./stimuli/leipzig.jpg,./stimuli/street_plate2.png,TISZTÁS UTCA,stimuli/objects/116a.jpg,object,0,stimuli/objects/116a.jpg,stimuli/objects/058a.jpg,stimuli/objects/116a.jpg,stimuli/objects/116b.jpg,stimuli/objects/058b.jpg,dist1,target,lure,dist2,0,1,1,1,0,18,18,18,,,,,,,,,,,701.0433652000211,None,702.0436514000176,None,702.0436514000176,None,702.0436514000176,None,702.0436514000176,None,705.0445876000158,None,705.0445876000158,None,705.0445876000158,None,705.0445876000158,None,None,None,None,None,None,,,,,,,,,,student1,2022-10-21_12h59.46.468,Hippopolis_Updating,2021.1.4,60.083949289667174,
Camponello,stimuli/subj_files/student1_cityB.csv,./stimuli/leipzig.jpg,./stimuli/street_plate2.png,FÉSZEK UTCA,stimuli/objects/042a.jpg,object,1,stimuli/objects/044a.jpg,stimuli/scenes/020b.jpg,stimuli/objects/044a.jpg,stimuli/scenes/020a.jpg,stimuli/objects/044b.jpg,dist2,target,dist1,lure,0,1,1,1,0,19,19,10,,,,,,,,,,,707.0432536000153,None,708.0441588000103,None,708.0441588000103,None,708.0441588000103,None,708.0441588000103,None,711.0569566000195,None,711.0569566000195,None,711.0569566000195,None,711.0569566000195,None,None,None,None,None,None,,,,,,,,,,student1,2022-10-21_12h59.46.468,Hippopolis_Updating,2021.1.4,60.083949289667174,
Camponello,stimuli/subj_files/student1_cityB.csv,./stimuli/leipzig.jpg,./stimuli/street_plate2.png,TÁSKA UTCA,stimuli/objects/110a.jpg,object,2,stimuli/scenes/079a.jpg,stimuli/scenes/079a.jpg,stimuli/objects/037b.jpg,stimuli/objects/037a.jpg,stimuli/scenes/079b.jpg,target,dist2,dist1,lure,0,1,1,1,0,20,20,33,,,,,,,,,,,713.0596659000148,None,714.0601651000034,None,714.0601651000034,None,714.0601651000034,None,714.0601651000034,None,717.0694291000254,None,717.0694291000254,None,717.0694291000254,None,717.0694291000254,None,None,None,None,None,None,,,,,,,,,,student1,2022-10-21_12h59.46.468,Hippopolis_Updating,2021.1.4,60.083949289667174,
Camponello,stimuli/subj_files/student1_cityB.csv,./stimuli/leipzig.jpg,./stimuli/street_plate2.png,TÜKÖR UTCA,stimuli/scenes/006a.jpg,scene,0,stimuli/scenes/006a.jpg,stimuli/objects/116b.jpg,stimuli/objects/116a.jpg,stimuli/scenes/006a.jpg,stimuli/scenes/006b.jpg,dist2,dist1,target,lure,0,1,1,1,0,21,21,25,,,,,,,,,,,719.0763160000206,None,720.0766997000028,None,720.0766997000028,None,720.0766997000028,None,720.0766997000028,None,723.0795410000137,None,723.0795410000137,None,723.0795410000137,None,723.0795410000137,None,None,None,None,None,None,,,,,,,,,,student1,2022-10-21_12h59.46.468,Hippopolis_Updating,2021.1.4,60.083949289667174,
Camponello,stimuli/subj_files/student1_cityB.csv,./stimuli/leipzig.jpg,./stimuli/street_plate2.png,TELEFON UTCA,stimuli/scenes/017a.jpg,scene,0,stimuli/scenes/017a.jpg,stimuli/objects/094b.jpg,stimuli/scenes/017b.jpg,stimuli/scenes/017a.jpg,stimuli/objects/094a.jpg,dist2,lure,target,dist1,0,1,1,1,0,22,22,27,,,,,,,,,,,725.0928482000018,None,726.0932353000098,None,726.0932353000098,None,726.0932353000098,None,726.0932353000098,None,729.0964622000174,None,729.0964622000174,None,729.0964622000174,None,729.0964622000174,None,None,None,None,None,None,,,,,,,,,,student1,2022-10-21_12h59.46.468,Hippopolis_Updating,2021.1.4,60.083949289667174,
Camponello,stimuli/subj_files/student1_cityB.csv,./stimuli/leipzig.jpg,./stimuli/street_plate2.png,VÁSÁR UTCA,stimuli/scenes/089a.jpg,scene,0,stimuli/scenes/089a.jpg,stimuli/scenes/089a.jpg,stimuli/scenes/089b.jpg,stimuli/scenes/082b.jpg,stimuli/scenes/082a.jpg,target,lure,dist2,dist1,0,1,1,1,0,23,23,41,,,,,,,,,,,731.1095753000118,None,732.1101827000093,None,732.1101827000093,None,732.1101827000093,None,732.1101827000093,None,735.1183967000106,None,735.1183967000106,None,735.1183967000106,None,735.1183967000106,None,None,None,None,None,None,,,,,,,,,,student1,2022-10-21_12h59.46.468,Hippopolis_Updating,2021.1.4,60.083949289667174,
Camponello,stimuli/subj_files/student1_cityB.csv,./stimuli/leipzig.jpg,./stimuli/street_plate2.png,LEVÉL UTCA,stimuli/scenes/019a.jpg,scene,0,stimuli/scenes/019a.jpg,stimuli/objects/052a.jpg,stimuli/scenes/019a.jpg,stimuli/scenes/019b.jpg,stimuli/objects/052b.jpg,dist1,target,lure,dist2,0,1,1,1,0,24,24,8,,,,,,,,,,,737.1262119000021,None,738.1269564000249,None,738.1269564000249,None,738.1269564000249,None,738.1269564000249,None,741.1284769000195,None,741.1284769000195,None,741.1284769000195,None,741.1284769000195,None,None,None,None,None,None,,,,,,,,,,student1,2022-10-21_12h59.46.468,Hippopolis_Updating,2021.1.4,60.083949289667174,
Camponello,stimuli/subj_files/student1_cityB.csv,./stimuli/leipzig.jpg,./stimuli/street_plate2.png,KESELYŰ UTCA,stimuli/objects/003a.jpg,object,2,stimuli/scenes/100a.jpg,stimuli/objects/029a.jpg,stimuli/scenes/100b.jpg,stimuli/objects/029b.jpg,stimuli/scenes/100a.jpg,dist1,lure,dist2,target,0,1,1,1,0,25,25,6,,,,,,,,,,,743.1430050000199,None,744.1448520999984,None,744.1448520999984,None,744.1448520999984,None,744.1448520999984,None,747.1981743000215,None,747.1981743000215,None,747.1981743000215,None,747.1981743000215,None,None,None,None,None,None,,,,,,,,,,student1,2022-10-21_12h59.46.468,Hippopolis_Updating,2021.1.4,60.083949289667174,
Camponello,stimuli/subj_files/student1_cityB.csv,./stimuli/leipzig.jpg,./stimuli/street_plate2.png,ZÁSZLÓ UTCA,stimuli/scenes/103a.jpg,scene,2,stimuli/objects/037a.jpg,stimuli/scenes/102b.jpg,stimuli/objects/037b.jpg,stimuli/scenes/102a.jpg,stimuli/objects/037a.jpg,dist2,lure,dist1,target,0,1,1,1,0,26,26,60,,,,,,,,,,,749.1592508000031,None,750.1600837000005,None,750.1600837000005,None,750.1600837000005,None,750.1600837000005,None,753.1789478000137,None,753.1789478000137,None,753.1789478000137,None,753.1789478000137,None,None,None,None,None,None,,,,,,,,,,student1,2022-10-21_12h59.46.468,Hippopolis_Updating,2021.1.4,60.083949289667174,
Camponello,stimuli/subj_files/student1_cityB.csv,./stimuli/leipzig.jpg,./stimuli/street_plate2.png,SIRÁLY UTCA,stimuli/objects/081a.jpg,object,0,stimuli/objects/081a.jpg,stimuli/objects/081a.jpg,stimuli/objects/081b.jpg,stimuli/scenes/019a.jpg,stimuli/scenes/019b.jpg,target,lure,dist1,dist2,0,1,1,1,0,27,27,50,,,,,,,,,,,755.1757868000132,None,756.1758837000234,None,756.1758837000234,None,756.1758837000234,None,756.1758837000234,None,759.1875971000118,None,759.1875971000118,None,759.1875971000118,None,759.1875971000118,None,None,None,None,None,None,,,,,,,,,,student1,2022-10-21_12h59.46.468,Hippopolis_Updating,2021.1.4,60.083949289667174,
Camponello,stimuli/subj_files/student1_cityB.csv,./stimuli/leipzig.jpg,./stimuli/street_plate2.png,KRÉTA UTCA,stimuli/scenes/091a.jpg,scene,0,stimuli/scenes/091a.jpg,stimuli/scenes/098b.jpg,stimuli/scenes/091b.jpg,stimuli/scenes/098a.jpg,stimuli/scenes/091a.jpg,dist2,lure,dist1,target,0,1,1,1,0,28,28,21,,,,,,,,,,,761.192082500027,None,762.1925319000147,None,762.1925319000147,None,762.1925319000147,None,762.1925319000147,None,765.1959872000152,None,765.1959872000152,None,765.1959872000152,None,765.1959872000152,None,None,None,None,None,None,,,,,,,,,,student1,2022-10-21_12h59.46.468,Hippopolis_Updating,2021.1.4,60.083949289667174,
Camponello,stimuli/subj_files/student1_cityB.csv,./stimuli/leipzig.jpg,./stimuli/street_plate2.png,PÁRNA UTCA,stimuli/objects/112a.jpg,object,0,stimuli/objects/112a.jpg,stimuli/objects/112b.jpg,stimuli/scenes/032b.jpg,stimuli/scenes/032a.jpg,stimuli/objects/112a.jpg,lure,dist2,dist1,target,0,1,1,1,0,29,29,77,,,,,,,,,,,767.2088916000212,None,768.2093718000106,None,768.2093718000106,None,768.2093718000106,None,768.2093718000106,None,771.2180640000151,None,771.2180640000151,None,771.2180640000151,None,771.2180640000151,None,None,None,None,None,None,,,,,,,,,,student1,2022-10-21_12h59.46.468,Hippopolis_Updating,2021.1.4,60.083949289667174,
Camponello,stimuli/subj_files/student1_cityB.csv,./stimuli/leipzig.jpg,./stimuli/street_plate2.png,FÜGE UTCA,stimuli/scenes/115a.jpg,scene,0,stimuli/scenes/115a.jpg,stimuli/scenes/115b.jpg,stimuli/scenes/115a.jpg,stimuli/objects/084b.jpg,stimuli/objects/084a.jpg,lure,target,dist2,dist1,0,1,1,1,0,30,30,47,,,,,,,,,,,773.2256687000045,None,774.2259731000231,None,774.2259731000231,None,774.2259731000231,None,774.2259731000231,None,777.2326082000218,None,777.2326082000218,None,777.2326082000218,None,777.2326082000218,None,None,None,None,None,None,,,,,,,,,,student1,2022-10-21_12h59.46.468,Hippopolis_Updating,2021.1.4,60.083949289667174,
Camponello,stimuli/subj_files/student1_cityB.csv,./stimuli/leipzig.jpg,./stimuli/street_plate2.png,POLIP UTCA,stimuli/scenes/077a.jpg,scene,0,stimuli/scenes/077a.jpg,stimuli/scenes/077b.jpg,stimuli/scenes/077a.jpg,stimuli/scenes/091b.jpg,stimuli/scenes/091a.jpg,lure,target,dist2,dist1,0,1,1,1,0,31,31,49,,,,,,,,,,,779.2419929000025,None,780.2425164000015,None,780.2425164000015,None,780.2425164000015,None,780.2425164000015,None,783.2464008000097,None,783.2464008000097,None,783.2464008000097,None,783.2464008000097,None,None,None,None,None,None,,,,,,,,,,student1,2022-10-21_12h59.46.468,Hippopolis_Updating,2021.1.4,60.083949289667174,
Camponello,stimuli/subj_files/student1_cityB.csv,./stimuli/leipzig.jpg,./stimuli/street_plate2.png,GYŰRŰ UTCA,stimuli/objects/056a.jpg,object,1,stimuli/objects/013a.jpg,stimuli/objects/013b.jpg,stimuli/objects/087b.jpg,stimuli/objects/013a.jpg,stimuli/objects/087a.jpg,lure,dist2,target,dist1,0,1,1,1,0,32,32,22,,,,,,,,,,,785.258490600012,None,786.2596259000129,None,786.2596259000129,None,786.2596259000129,None,786.2596259000129,None,789.2724640000088,None,789.2724640000088,None,789.2724640000088,None,789.2724640000088,None,None,None,None,None,None,,,,,,,,,,student1,2022-10-21_12h59.46.468,Hippopolis_Updating,2021.1.4,60.083949289667174,
Camponello,stimuli/subj_files/student1_cityB.csv,./stimuli/leipzig.jpg,./stimuli/street_plate2.png,SAJTÓ UTCA,stimuli/scenes/112a.jpg,scene,0,stimuli/scenes/112a.jpg,stimuli/objects/018a.jpg,stimuli/scenes/112b.jpg,stimuli/scenes/112a.jpg,stimuli/objects/018b.jpg,dist1,lure,target,dist2,0,1,1,1,0,33,33,15,,,,,,,,,,,791.2750628000067,None,792.2754529000085,None,792.2754529000085,None,792.2754529000085,None,792.2754529000085,None,795.2858951000089,None,795.2858951000089,None,795.2858951000089,None,795.2858951000089,None,None,None,None,None,None,,,,,,,,,,student1,2022-10-21_12h59.46.468,Hippopolis_Updating,2021.1.4,60.083949289667174,
Camponello,stimuli/subj_files/student1_cityB.csv,./stimuli/leipzig.jpg,./stimuli/street_plate2.png,KATONA UTCA,stimuli/objects/077a.jpg,object,0,stimuli/objects/077a.jpg,stimuli/objects/077a.jpg,stimuli/scenes/115a.jpg,stimuli/scenes/115b.jpg,stimuli/objects/077b.jpg,target,dist1,dist2,lure,0,1,1,1,0,34,34,74,,,,,,,,,,,797.2921039000212,None,798.2918966000143,None,798.2918966000143,None,798.2918966000143,None,798.2918966000143,None,801.2957246000005,None,801.2957246000005,None,801.2957246000005,None,801.2957246000005,None,None,None,None,None,None,,,,,,,,,,student1,2022-10-21_12h59.46.468,Hippopolis_Updating,2021.1.4,60.083949289667174,
Camponello,stimuli/subj_files/student1_cityB.csv,./stimuli/leipzig.jpg,./stimuli/street_plate2.png,ECSET UTCA,stimuli/scenes/003a.jpg,scene,2,stimuli/objects/005a.jpg,stimuli/objects/035b.jpg,stimuli/objects/005b.jpg,stimuli/objects/035a.jpg,stimuli/objects/005a.jpg,dist2,lure,dist1,target,0,1,1,1,0,35,35,11,,,,,,,,,,,803.3084207000211,None,804.3087935000076,None,804.3087935000076,None,804.3087935000076,None,804.3087935000076,None,807.3276101000083,None,807.3276101000083,None,807.3276101000083,None,807.3276101000083,None,None,None,None,None,None,,,,,,,,,,student1,2022-10-21_12h59.46.468,Hippopolis_Updating,2021.1.4,60.083949289667174,
Camponello,stimuli/subj_files/student1_cityB.csv,./stimuli/leipzig.jpg,./stimuli/street_plate2.png,SZÖCSKE UTCA,stimuli/scenes/026a.jpg,scene,2,stimuli/objects/061a.jpg,stimuli/scenes/063a.jpg,stimuli/objects/061a.jpg,stimuli/scenes/063b.jpg,stimuli/objects/061b.jpg,dist1,target,dist2,lure,0,1,1,1,0,36,36,71,,,,,,,,,,,809.3247869000188,None,810.3250729000138,None,810.3250729000138,None,810.3250729000138,None,810.3250729000138,None,813.3344501000247,None,813.3344501000247,None,813.3344501000247,None,813.3344501000247,None,None,None,None,None,None,,,,,,,,,,student1,2022-10-21_12h59.46.468,Hippopolis_Updating,2021.1.4,60.083949289667174,
Camponello,stimuli/subj_files/student1_cityB.csv,./stimuli/leipzig.jpg,./stimuli/street_plate2.png,TOLMÁCS UTCA,stimuli/scenes/082a.jpg,scene,0,stimuli/scenes/082a.jpg,stimuli/scenes/082b.jpg,stimuli/objects/081b.jpg,stimuli/objects/081a.jpg,stimuli/scenes/082a.jpg,lure,dist2,dist1,target,0,1,1,1,0,37,37,2,,,,,,,,,,,815.3415943,None,816.3422307000146,None,816.3422307000146,None,816.3422307000146,None,816.3422307000146,None,819.3462987000239,None,819.3462987000239,None,819.3462987000239,None,819.3462987000239,None,None,None,None,None,None,,,,,,,,,,student1,2022-10-21_12h59.46.468,Hippopolis_Updating,2021.1.4,60.083949289667174,
Camponello,stimuli/subj_files/student1_cityB.csv,./stimuli/leipzig.jpg,./stimuli/street_plate2.png,SUGÁR UTCA,stimuli/objects/094a.jpg,object,0,stimuli/objects/094a.jpg,stimuli/objects/094b.jpg,stimuli/objects/064b.jpg,stimuli/objects/064a.jpg,stimuli/objects/094a.jpg,lure,dist2,dist1,target,0,1,1,1,0,38,38,40,,,,,,,,,,,821.3584900000133,None,822.358197900001,None,822.358197900001,None,822.358197900001,None,822.358197900001,None,825.3623328000249,None,825.3623328000249,None,825.3623328000249,None,825.3623328000249,None,None,None,None,None,None,,,,,,,,,,student1,2022-10-21_12h59.46.468,Hippopolis_Updating,2021.1.4,60.083949289667174,
Camponello,stimuli/subj_files/student1_cityB.csv,./stimuli/leipzig.jpg,./stimuli/street_plate2.png,KESZTYŰ UTCA,stimuli/scenes/040a.jpg,scene,1,stimuli/scenes/105a.jpg,stimuli/objects/096b.jpg,stimuli/scenes/105a.jpg,stimuli/scenes/105b.jpg,stimuli/objects/096a.jpg,dist2,target,lure,dist1,0,1,1,1,0,39,39,16,,,,,,,,,,,827.3749058000103,None,828.3747189000132,None,828.3747189000132,None,828.3747189000132,None,828.3747189000132,None,831.3842398000124,None,831.3842398000124,None,831.3842398000124,None,831.3842398000124,None,None,None,None,None,None,,,,,,,,,,student1,2022-10-21_12h59.46.468,Hippopolis_Updating,2021.1.4,60.083949289667174,
Camponello,stimuli/subj_files/student1_cityB.csv,./stimuli/leipzig.jpg,./stimuli/street_plate2.png,PALACK UTCA,stimuli/scenes/033a.jpg,scene,1,stimuli/scenes/107a.jpg,stimuli/objects/119b.jpg,stimuli/scenes/107b.jpg,stimuli/objects/119a.jpg,stimuli/scenes/107a.jpg,dist2,lure,dist1,target,0,1,1,1,0,40,40,44,,,,,,,,,,,833.3906225000101,None,834.3918893000227,None,834.3918893000227,None,834.3918893000227,None,834.3918893000227,None,837.4072431000241,None,837.4072431000241,None,837.4072431000241,None,837.4072431000241,None,None,None,None,None,None,,,,,,,,,,student1,2022-10-21_12h59.46.468,Hippopolis_Updating,2021.1.4,60.083949289667174,
Camponello,stimuli/subj_files/student1_cityB.csv,./stimuli/leipzig.jpg,./stimuli/street_plate2.png,TENISZ UTCA,stimuli/objects/102a.jpg,object,0,stimuli/objects/102a.jpg,stimuli/objects/102b.jpg,stimuli/objects/102a.jpg,stimuli/scenes/038a.jpg,stimuli/scenes/038b.jpg,lure,target,dist1,dist2,0,1,1,1,0,41,41,75,,,,,,,,,,,839.4073939000082,None,840.4078918000159,None,840.4078918000159,None,840.4078918000159,None,840.4078918000159,None,843.4216176000191,None,843.4216176000191,None,843.4216176000191,None,843.4216176000191,None,None,None,None,None,None,,,,,,,,,,student1,2022-10-21_12h59.46.468,Hippopolis_Updating,2021.1.4,60.083949289667174,
Camponello,stimuli/subj_files/student1_cityB.csv,./stimuli/leipzig.jpg,./stimuli/street_plate2.png,KAKAÓ UTCA,stimuli/objects/099a.jpg,object,1,stimuli/objects/119a.jpg,stimuli/scenes/086a.jpg,stimuli/objects/119a.jpg,stimuli/scenes/086b.jpg,stimuli/objects/119b.jpg,dist1,target,dist2,lure,0,1,1,1,0,42,42,0,,,,,,,,,,,845.424255400023,None,846.4245154000237,None,846.4245154000237,None,846.4245154000237,None,846.4245154000237,None,849.4416090000013,None,849.4416090000013,None,849.4416090000013,None,849.4416090000013,None,None,None,None,None,None,,,,,,,,,,student1,2022-10-21_12h59.46.468,Hippopolis_Updating,2021.1.4,60.083949289667174,
Camponello,stimuli/subj_files/student1_cityB.csv,./stimuli/leipzig.jpg,./stimuli/street_plate2.png,ZEBRA UTCA,stimuli/scenes/106a.jpg,scene,0,stimuli/scenes/106a.jpg,stimuli/scenes/030a.jpg,stimuli/scenes/106a.jpg,stimuli/scenes/106b.jpg,stimuli/scenes/030b.jpg,dist1,target,lure,dist2,0,1,1,1,0,43,43,12,,,,,,,,,,,851.4410618000256,None,852.4412913999986,None,852.4412913999986,None,852.4412913999986,None,852.4412913999986,None,855.4448622000054,None,855.4448622000054,None,855.4448622000054,None,855.4448622000054,None,None,None,None,None,None,,,,,,,,,,student1,2022-10-21_12h59.46.468,Hippopolis_Updating,2021.1.4,60.083949289667174,
Camponello,stimuli/subj_files/student1_cityB.csv,./stimuli/leipzig.jpg,./stimuli/street_plate2.png,HARCSA UTCA,stimuli/scenes/080a.jpg,scene,2,stimuli/objects/029a.jpg,stimuli/scenes/054b.jpg,stimuli/scenes/054a.jpg,stimuli/objects/029b.jpg,stimuli/objects/029a.jpg,dist2,dist1,lure,target,0,1,1,1,0,44,44,59,,,,,,,,,,,857.4573470000178,None,858.4576559000125,None,858.4576559000125,None,858.4576559000125,None,858.4576559000125,None,861.4646581000125,None,861.4646581000125,None,861.4646581000125,None,861.4646581000125,None,863.4748297000187,None,space,863.4748297000187,None,4.058148600015556,,,,,,,,,student1,2022-10-21_12h59.46.468,Hippopolis_Updating,2021.1.4,60.083949289667174,
Camponello,stimuli/subj_files/student1_cityB.csv,./stimuli/leipzig.jpg,./stimuli/street_plate2.png,KANÁL UTCA,stimuli/scenes/057a.jpg,scene,1,stimuli/scenes/020a.jpg,stimuli/scenes/020b.jpg,stimuli/scenes/020a.jpg,stimuli/scenes/062a.jpg,stimuli/scenes/062b.jpg,lure,target,dist1,dist2,0,1,1,1,0,45,45,14,,,,,,,,,,,867.5575268000248,None,868.5578441000252,None,868.5578441000252,None,868.5578441000252,None,868.5578441000252,None,871.5693635000207,None,871.5693635000207,None,871.5693635000207,None,871.5693635000207,None,None,None,None,None,None,,,,,,,,,,student1,2022-10-21_12h59.46.468,Hippopolis_Updating,2021.1.4,60.083949289667174,
Camponello,stimuli/subj_files/student1_cityB.csv,./stimuli/leipzig.jpg,./stimuli/street_plate2.png,BETON UTCA,stimuli/objects/104a.jpg,object,2,stimuli/scenes/063a.jpg,stimuli/scenes/063b.jpg,stimuli/scenes/063a.jpg,stimuli/objects/054a.jpg,stimuli/objects/054b.jpg,lure,target,dist1,dist2,0,1,1,1,0,46,46,52,,,,,,,,,,,873.5735643000226,None,874.5746603000152,None,874.5746603000152,None,874.5746603000152,None,874.5746603000152,None,877.5806734000216,None,877.5806734000216,None,877.5806734000216,None,877.5806734000216,None,None,None,None,None,None,,,,,,,,,,student1,2022-10-21_12h59.46.468,Hippopolis_Updating,2021.1.4,60.083949289667174,
Camponello,stimuli/subj_files/student1_cityB.csv,./stimuli/leipzig.jpg,./stimuli/street_plate2.png,RIBIZLI UTCA,stimuli/objects/088a.jpg,object,0,stimuli/objects/088a.jpg,stimuli/objects/088b.jpg,stimuli/objects/065a.jpg,stimuli/objects/088a.jpg,stimuli/objects/065b.jpg,lure,dist1,target,dist2,0,1,1,1,0,47,47,34,,,,,,,,,,,879.5904256000067,None,880.5906798000215,None,880.5906798000215,None,880.5906798000215,None,880.5906798000215,None,883.6028973000066,None,883.6028973000066,None,883.6028973000066,None,883.6028973000066,None,None,None,None,None,None,,,,,,,,,,student1,2022-10-21_12h59.46.468,Hippopolis_Updating,2021.1.4,60.083949289667174,
Camponello,stimuli/subj_files/student1_cityB.csv,./stimuli/leipzig.jpg,./stimuli/street_plate2.png,BÚJÓCSKA UTCA,stimuli/scenes/015a.jpg,scene,1,stimuli/scenes/086a.jpg,stimuli/scenes/105b.jpg,stimuli/scenes/086a.jpg,stimuli/scenes/105a.jpg,stimuli/scenes/086b.jpg,dist2,target,dist1,lure,0,1,1,1,0,48,48,48,,,,,,,,,,,885.6067312000087,None,886.6131760000135,None,886.6131760000135,None,886.6131760000135,None,886.6131760000135,None,889.638205300027,None,889.638205300027,None,889.638205300027,None,889.638205300027,None,None,None,None,None,None,,,,,,,,,,student1,2022-10-21_12h59.46.468,Hippopolis_Updating,2021.1.4,60.083949289667174,
Camponello,stimuli/subj_files/student1_cityB.csv,./stimuli/leipzig.jpg,./stimuli/street_plate2.png,KÁRTYA UTCA,stimuli/scenes/076a.jpg,scene,0,stimuli/scenes/076a.jpg,stimuli/objects/008a.jpg,stimuli/scenes/076b.jpg,stimuli/scenes/076a.jpg,stimuli/objects/008b.jpg,dist1,lure,target,dist2,0,1,1,1,0,49,49,64,,,,,,,,,,,891.6234166000213,None,892.6237015000079,None,892.6237015000079,None,892.6237015000079,None,892.6237015000079,None,895.6396271000267,None,895.6396271000267,None,895.6396271000267,None,895.6396271000267,None,None,None,None,None,None,,,,,,,,,,student1,2022-10-21_12h59.46.468,Hippopolis_Updating,2021.1.4,60.083949289667174,
Camponello,stimuli/subj_files/student1_cityB.csv,./stimuli/leipzig.jpg,./stimuli/street_plate2.png,VITORLA UTCA,stimuli/scenes/110a.jpg,scene,1,stimuli/scenes/062a.jpg,stimuli/scenes/107a.jpg,stimuli/scenes/107b.jpg,stimuli/scenes/062b.jpg,stimuli/scenes/062a.jpg,dist1,dist2,lure,target,0,1,1,1,0,50,50,45,,,,,,,,,,,897.639870700019,None,898.6402739000041,None,898.6402739000041,None,898.6402739000041,None,898.6402739000041,None,901.6490264000022,None,901.6490264000022,None,901.6490264000022,None,901.6490264000022,None,None,None,None,None,None,,,,,,,,,,student1,2022-10-21_12h59.46.468,Hippopolis_Updating,2021.1.4,60.083949289667174,
Camponello,stimuli/subj_files/student1_cityB.csv,./stimuli/leipzig.jpg,./stimuli/street_plate2.png,SZAXOFON UTCA,stimuli/objects/117a.jpg,object,0,stimuli/objects/117a.jpg,stimuli/scenes/021a.jpg,stimuli/objects/117a.jpg,stimuli/objects/117b.jpg,stimuli/scenes/021b.jpg,dist1,target,lure,dist2,0,1,1,1,0,51,51,20,,,,,,,,,,,903.6566451000108,None,904.6618166000117,None,904.6618166000117,None,904.6618166000117,None,904.6618166000117,None,907.6856209000107,None,907.6856209000107,None,907.6856209000107,None,907.6856209000107,None,None,None,None,None,None,,,,,,,,,,student1,2022-10-21_12h59.46.468,Hippopolis_Updating,2021.1.4,60.083949289667174,
Camponello,stimuli/subj_files/student1_cityB.csv,./stimuli/leipzig.jpg,./stimuli/street_plate2.png,MÁRVÁNY UTCA,stimuli/scenes/023a.jpg,scene,0,stimuli/scenes/023a.jpg,stimuli/objects/030a.jpg,stimuli/scenes/023b.jpg,stimuli/objects/030b.jpg,stimuli/scenes/023a.jpg,dist1,lure,dist2,target,0,1,1,1,0,52,52,58,,,,,,,,,,,909.6732013000001,None,910.6733872000186,None,910.6733872000186,None,910.6733872000186,None,910.6733872000186,None,913.6784948999994,None,913.6784948999994,None,913.6784948999994,None,913.6784948999994,None,None,None,None,None,None,,,,,,,,,,student1,2022-10-21_12h59.46.468,Hippopolis_Updating,2021.1.4,60.083949289667174,
Camponello,stimuli/subj_files/student1_cityB.csv,./stimuli/leipzig.jpg,./stimuli/street_plate2.png,LEGELŐ UTCA,stimuli/objects/030a.jpg,object,0,stimuli/objects/030a.jpg,stimuli/objects/039a.jpg,stimuli/objects/030a.jpg,stimuli/objects/030b.jpg,stimuli/objects/039b.jpg,dist1,target,lure,dist2,0,1,1,1,0,53,53,70,,,,,,,,,,,915.6898880000226,None,916.6933625000238,None,916.6933625000238,None,916.6933625000238,None,916.6933625000238,None,919.7158506000123,None,919.7158506000123,None,919.7158506000123,None,919.7158506000123,None,None,None,None,None,None,,,,,,,,,,student1,2022-10-21_12h59.46.468,Hippopolis_Updating,2021.1.4,60.083949289667174,
Camponello,stimuli/subj_files/student1_cityB.csv,./stimuli/leipzig.jpg,./stimuli/street_plate2.png,SZALVÉTA UTCA,stimuli/objects/072a.jpg,object,0,stimuli/objects/072a.jpg,stimuli/scenes/045b.jpg,stimuli/scenes/045a.jpg,stimuli/objects/072b.jpg,stimuli/objects/072a.jpg,dist2,dist1,lure,target,0,1,1,1,0,54,54,54,,,,,,,,,,,921.7062540000188,None,922.7073340000061,None,922.7073340000061,None,922.7073340000061,None,922.7073340000061,None,925.7072691000067,None,925.7072691000067,None,925.7072691000067,None,925.7072691000067,None,None,None,None,None,None,,,,,,,,,,student1,2022-10-21_12h59.46.468,Hippopolis_Updating,2021.1.4,60.083949289667174,
Camponello,stimuli/subj_files/student1_cityB.csv,./stimuli/leipzig.jpg,./stimuli/street_plate2.png,SZOBOR UTCA,stimuli/objects/031a.jpg,object,1,stimuli/objects/010a.jpg,stimuli/objects/010a.jpg,stimuli/objects/044b.jpg,stimuli/objects/044a.jpg,stimuli/objects/010b.jpg,target,dist2,dist1,lure,0,1,1,1,0,55,55,79,,,,,,,,,,,927.7061032000056,None,928.7066981000244,None,928.7066981000244,None,928.7066981000244,None,928.7066981000244,None,931.7160533000133,None,931.7160533000133,None,931.7160533000133,None,931.7160533000133,None,None,None,None,None,None,,,,,,,,,,student1,2022-10-21_12h59.46.468,Hippopolis_Updating,2021.1.4,60.083949289667174,
Camponello,stimuli/subj_files/student1_cityB.csv,./stimuli/leipzig.jpg,./stimuli/street_plate2.png,KÓKUSZ UTCA,stimuli/scenes/052a.jpg,scene,0,stimuli/scenes/052a.jpg,stimuli/scenes/052a.jpg,stimuli/objects/077b.jpg,stimuli/objects/077a.jpg,stimuli/scenes/052b.jpg,target,dist2,dist1,lure,0,1,1,1,0,56,56,19,,,,,,,,,,,933.723003400024,None,934.7228822000034,None,934.7228822000034,None,934.7228822000034,None,934.7228822000034,None,937.7255713000195,None,937.7255713000195,None,937.7255713000195,None,937.7255713000195,None,None,None,None,None,None,,,,,,,,,,student1,2022-10-21_12h59.46.468,Hippopolis_Updating,2021.1.4,60.083949289667174,
Camponello,stimuli/subj_files/student1_cityB.csv,./stimuli/leipzig.jpg,./stimuli/street_plate2.png,HORGONY UTCA,stimuli/objects/039a.jpg,object,0,stimuli/objects/039a.jpg,stimuli/objects/039b.jpg,stimuli/objects/039a.jpg,stimuli/objects/092b.jpg,stimuli/objects/092a.jpg,lure,target,dist2,dist1,0,1,1,1,0,57,57,26,,,,,,,,,,,939.7392818000226,None,940.7412891999993,None,940.7412891999993,None,940.7412891999993,None,940.7412891999993,None,943.7415501000069,None,943.7415501000069,None,943.7415501000069,None,943.7415501000069,None,None,None,None,None,None,,,,,,,,,,student1,2022-10-21_12h59.46.468,Hippopolis_Updating,2021.1.4,60.083949289667174,
Camponello,stimuli/subj_files/student1_cityB.csv,./stimuli/leipzig.jpg,./stimuli/street_plate2.png,MAJOM UTCA,stimuli/objects/018a.jpg,object,0,stimuli/objects/018a.jpg,stimuli/objects/018a.jpg,stimuli/scenes/092b.jpg,stimuli/objects/018b.jpg,stimuli/scenes/092a.jpg,target,dist2,lure,dist1,0,1,1,1,0,58,58,78,,,,,,,,,,,945.755777000013,None,946.7561450000212,None,946.7561450000212,None,946.7561450000212,None,946.7561450000212,None,949.7627616000245,None,949.7627616000245,None,949.7627616000245,None,949.7627616000245,None,None,None,None,None,None,,,,,,,,,,student1,2022-10-21_12h59.46.468,Hippopolis_Updating,2021.1.4,60.083949289667174,
Camponello,stimuli/subj_files/student1_cityB.csv,./stimuli/leipzig.jpg,./stimuli/street_plate2.png,ZONGORA UTCA,stimuli/objects/034a.jpg,object,0,stimuli/objects/034a.jpg,stimuli/objects/034a.jpg,stimuli/objects/034b.jpg,stimuli/objects/016b.jpg,stimuli/objects/016a.jpg,target,lure,dist2,dist1,0,1,1,1,0,59,59,31,,,,,,,,,,,951.7724254000059,None,952.7725133000058,None,952.7725133000058,None,952.7725133000058,None,952.7725133000058,None,955.7873643000203,None,955.7873643000203,None,955.7873643000203,None,955.7873643000203,None,None,None,None,None,None,,,,,,,,,,student1,2022-10-21_12h59.46.468,Hippopolis_Updating,2021.1.4,60.083949289667174,
Camponello,stimuli/subj_files/student1_cityB.csv,./stimuli/leipzig.jpg,./stimuli/street_plate2.png,HENTES UTCA,stimuli/scenes/092a.jpg,scene,0,stimuli/scenes/092a.jpg,stimuli/scenes/114b.jpg,stimuli/scenes/114a.jpg,stimuli/scenes/092a.jpg,stimuli/scenes/092b.jpg,dist2,dist1,target,lure,0,1,1,1,0,60,60,46,,,,,,,,,,,957.7890019000042,None,958.791673300002,None,958.791673300002,None,958.791673300002,None,958.791673300002,None,961.8129806000215,None,961.8129806000215,None,961.8129806000215,None,961.8129806000215,None,None,None,None,None,None,,,,,,,,,,student1,2022-10-21_12h59.46.468,Hippopolis_Updating,2021.1.4,60.083949289667174,
Camponello,stimuli/subj_files/student1_cityB.csv,./stimuli/leipzig.jpg,./stimuli/street_plate2.png,KUTYA UTCA,stimuli/scenes/030a.jpg,scene,0,stimuli/scenes/030a.jpg,stimuli/scenes/030b.jpg,stimuli/scenes/052b.jpg,stimuli/scenes/052a.jpg,stimuli/scenes/030a.jpg,lure,dist2,dist1,target,0,1,1,1,0,61,61,35,,,,,,,,,,,963.8060395000211,None,964.8068501000234,None,964.8068501000234,None,964.8068501000234,None,964.8068501000234,None,967.8113348000043,None,967.8113348000043,None,967.8113348000043,None,967.8113348000043,None,None,None,None,None,None,,,,,,,,,,student1,2022-10-21_12h59.46.468,Hippopolis_Updating,2021.1.4,60.083949289667174,
Camponello,stimuli/subj_files/student1_cityB.csv,./stimuli/leipzig.jpg,./stimuli/street_plate2.png,TORONY UTCA,stimuli/scenes/094a.jpg,scene,2,stimuli/objects/054a.jpg,stimuli/scenes/001a.jpg,stimuli/scenes/001b.jpg,stimuli/objects/054b.jpg,stimuli/objects/054a.jpg,dist1,dist2,lure,target,0,1,1,1,0,62,62,62,,,,,,,,,,,969.8225553000229,None,970.8223904000188,None,970.8223904000188,None,970.8223904000188,None,970.8223904000188,None,973.8360741000215,None,973.8360741000215,None,973.8360741000215,None,973.8360741000215,None,None,None,None,None,None,,,,,,,,,,student1,2022-10-21_12h59.46.468,Hippopolis_Updating,2021.1.4,60.083949289667174,
Camponello,stimuli/subj_files/student1_cityB.csv,./stimuli/leipzig.jpg,./stimuli/street_plate2.png,TÉRKÉP UTCA,stimuli/scenes/013a.jpg,scene,0,stimuli/scenes/013a.jpg,stimuli/scenes/006b.jpg,stimuli/scenes/006a.jpg,stimuli/scenes/013a.jpg,stimuli/scenes/013b.jpg,dist2,dist1,target,lure,0,1,1,1,0,63,63,63,,,,,,,,,,,975.8391615000146,None,976.83960940002,None,976.83960940002,None,976.83960940002,None,976.83960940002,None,979.8497241000005,None,979.8497241000005,None,979.8497241000005,None,979.8497241000005,None,None,None,None,None,None,,,,,,,,,,student1,2022-10-21_12h59.46.468,Hippopolis_Updating,2021.1.4,60.083949289667174,
Camponello,stimuli/subj_files/student1_cityB.csv,./stimuli/leipzig.jpg,./stimuli/street_plate2.png,SZŐNYEG UTCA,stimuli/objects/040a.jpg,object,0,stimuli/objects/040a.jpg,stimuli/objects/040a.jpg,stimuli/objects/040b.jpg,stimuli/objects/019b.jpg,stimuli/objects/019a.jpg,target,lure,dist2,dist1,0,1,1,1,0,64,64,29,,,,,,,,,,,981.8555716000265,None,982.8557475999987,None,982.8557475999987,None,982.8557475999987,None,982.8557475999987,None,985.8656708000053,None,985.8656708000053,None,985.8656708000053,None,985.8656708000053,None,None,None,None,None,None,,,,,,,,,,student1,2022-10-21_12h59.46.468,Hippopolis_Updating,2021.1.4,60.083949289667174,
Camponello,stimuli/subj_files/student1_cityB.csv,./stimuli/leipzig.jpg,./stimuli/street_plate2.png,LABDA UTCA,stimuli/objects/082a.jpg,object,0,stimuli/objects/082a.jpg,stimuli/scenes/049a.jpg,stimuli/scenes/049b.jpg,stimuli/objects/082b.jpg,stimuli/objects/082a.jpg,dist1,dist2,lure,target,0,1,1,1,0,65,65,72,,,,,,,,,,,987.8716182000062,None,988.873304800014,None,988.873304800014,None,988.873304800014,None,988.873304800014,None,991.8926929000008,None,991.8926929000008,None,991.8926929000008,None,991.8926929000008,None,None,None,None,None,None,,,,,,,,,,student1,2022-10-21_12h59.46.468,Hippopolis_Updating,2021.1.4,60.083949289667174,
Camponello,stimuli/subj_files/student1_cityB.csv,./stimuli/leipzig.jpg,./stimuli/street_plate2.png,TERÍTŐ UTCA,stimuli/objects/098a.jpg,object,1,stimuli/objects/096a.jpg,stimuli/objects/096b.jpg,stimuli/objects/096a.jpg,stimuli/objects/013b.jpg,stimuli/objects/013a.jpg,lure,target,dist2,dist1,0,1,1,1,0,66,66,39,,,,,,,,,,,993.8884036000236,None,994.8887993000099,None,994.8887993000099,None,994.8887993000099,None,994.8887993000099,None,997.9013536999992,None,997.9013536999992,None,997.9013536999992,None,997.9013536999992,None,None,None,None,None,None,,,,,,,,,,student1,2022-10-21_12h59.46.468,Hippopolis_Updating,2021.1.4,60.083949289667174,
Camponello,stimuli/subj_files/student1_cityB.csv,./stimuli/leipzig.jpg,./stimuli/street_plate2.png,LÉPCSŐ UTCA,stimuli/objects/049a.jpg,object,0,stimuli/objects/049a.jpg,stimuli/scenes/076b.jpg,stimuli/scenes/076a.jpg,stimuli/objects/049b.jpg,stimuli/objects/049a.jpg,dist2,dist1,lure,target,0,1,1,1,0,67,67,43,,,,,,,,,,,999.9054365000047,None,1000.9051074000017,None,1000.9051074000017,None,1000.9051074000017,None,1000.9051074000017,None,1003.9080931000062,None,1003.9080931000062,None,1003.9080931000062,None,1003.9080931000062,None,None,None,None,None,None,,,,,,,,,,student1,2022-10-21_12h59.46.468,Hippopolis_Updating,2021.1.4,60.083949289667174,
Camponello,stimuli/subj_files/student1_cityB.csv,./stimuli/leipzig.jpg,./stimuli/street_plate2.png,SZŐLŐ UTCA,stimuli/scenes/099a.jpg,scene,0,stimuli/scenes/099a.jpg,stimuli/objects/105a.jpg,stimuli/scenes/099a.jpg,stimuli/scenes/099b.jpg,stimuli/objects/105b.jpg,dist1,target,lure,dist2,0,1,1,1,0,68,68,55,,,,,,,,,,,1005.9218809000158,None,1006.922358700016,None,1006.922358700016,None,1006.922358700016,None,1006.922358700016,None,1009.9302405000199,None,1009.9302405000199,None,1009.9302405000199,None,1009.9302405000199,None,None,None,None,None,None,,,,,,,,,,student1,2022-10-21_12h59.46.468,Hippopolis_Updating,2021.1.4,60.083949289667174,
Camponello,stimuli/subj_files/student1_cityB.csv,./stimuli/leipzig.jpg,./stimuli/street_plate2.png,VIHAR UTCA,stimuli/objects/048a.jpg,object,2,stimuli/scenes/054a.jpg,stimuli/scenes/054b.jpg,stimuli/scenes/100b.jpg,stimuli/scenes/054a.jpg,stimuli/scenes/100a.jpg,lure,dist2,target,dist1,0,1,1,1,0,69,69,65,,,,,,,,,,,1011.9380770999996,None,1012.9387637000182,None,1012.9387637000182,None,1012.9387637000182,None,1012.9387637000182,None,1015.9468263000017,None,1015.9468263000017,None,1015.9468263000017,None,1015.9468263000017,None,None,None,None,None,None,,,,,,,,,,student1,2022-10-21_12h59.46.468,Hippopolis_Updating,2021.1.4,60.083949289667174,
Camponello,stimuli/subj_files/student1_cityB.csv,./stimuli/leipzig.jpg,./stimuli/street_plate2.png,KALAPÁCS UTCA,stimuli/scenes/049a.jpg,scene,0,stimuli/scenes/049a.jpg,stimuli/objects/112b.jpg,stimuli/scenes/049a.jpg,stimuli/objects/112a.jpg,stimuli/scenes/049b.jpg,dist2,target,dist1,lure,0,1,1,1,0,70,70,3,,,,,,,,,,,1017.9543997000146,None,1018.9549544000183,None,1018.9549544000183,None,1018.9549544000183,None,1018.9549544000183,None,1021.9576716000156,None,1021.9576716000156,None,1021.9576716000156,None,1021.9576716000156,None,None,None,None,None,None,,,,,,,,,,student1,2022-10-21_12h59.46.468,Hippopolis_Updating,2021.1.4,60.083949289667174,
Camponello,stimuli/subj_files/student1_cityB.csv,./stimuli/leipzig.jpg,./stimuli/street_plate2.png,SZILVA UTCA,stimuli/objects/105a.jpg,object,0,stimuli/objects/105a.jpg,stimuli/objects/049b.jpg,stimuli/objects/105b.jpg,stimuli/objects/049a.jpg,stimuli/objects/105a.jpg,dist2,lure,dist1,target,0,1,1,1,0,71,71,36,,,,,,,,,,,1023.9716648000176,None,1024.9715994000144,None,1024.9715994000144,None,1024.9715994000144,None,1024.9715994000144,None,1027.9837687000108,None,1027.9837687000108,None,1027.9837687000108,None,1027.9837687000108,None,None,None,None,None,None,,,,,,,,,,student1,2022-10-21_12h59.46.468,Hippopolis_Updating,2021.1.4,60.083949289667174,
