CityName,StimuliFile,CityImage,StreetSign,Cue,Image,Category,Novelty,UpdateImage,TestImage1,TestImage2,TestImage3,TestImage4,TestImage1Type,TestImage2Type,TestImage3Type,TestImage4Type,CityBlock.thisRepN,CityBlock.thisTrialN,CityBlock.thisN,CityBlock.thisIndex,LearningTrials.thisRepN,LearningTrials.thisTrialN,LearningTrials.thisN,LearningTrials.thisIndex,learning_instructions_text.started,intro_key.started,intro_key.keys,intro_key.rt,cityname_text.started,city_image.started,fx_cross.started,plate.started,city_text.started,street_text.started,fx_cross_prediction.started,plate_updating.started,city_text_updating.started,street_text_updating.started,updating_image.started,short_break_key.keys,fx_cross.stopped,short_break_text.started,short_break_key.started,short_break_key.rt,break_text.started,break_key_resp.started,break_key_resp.keys,break_key_resp.rt,end_text.started,participant,date,expName,psychopyVersion,frameRate,
,,,,,,,,,,,,,,,,,,,,,,,,,16.926614310592413,16.926614310592413,space,7.668932354077697,,,,,,,,,,,,,,,,,,,,,,student1,2022-10-25_10h37.17.201,Hippopolis_Updating,2022.2.2,59.95219243166023,
Hippopolis,stimuli/subj_files/student1_cityA.csv,./stimuli/frankfurt.jpg,./stimuli/street_plate1.png,KOKTÉL UTCA,stimuli/scenes/008a.jpg,scene,2,stimuli/objects/012a.jpg,stimuli/objects/036b.jpg,stimuli/objects/012b.jpg,stimuli/objects/036a.jpg,stimuli/objects/012a.jpg,dist2,lure,dist1,target,0,0,0,0,0,0,0,46,,,,,24.684915693476796,24.684915693476796,27.64266018755734,28.659962406381965,28.659962406381965,28.659962406381965,28.659962406381965,31.688733296468854,31.688733296468854,31.688733296468854,31.688733296468854,None,,,,,,,,,,student1,2022-10-25_10h37.17.201,Hippopolis_Updating,2022.2.2,59.95219243166023,
Hippopolis,stimuli/subj_files/student1_cityA.csv,./stimuli/frankfurt.jpg,./stimuli/street_plate1.png,MÁLNA UTCA,stimuli/objects/069a.jpg,object,2,stimuli/scenes/053a.jpg,stimuli/objects/073a.jpg,stimuli/objects/073b.jpg,stimuli/scenes/053b.jpg,stimuli/scenes/053a.jpg,dist1,dist2,lure,target,0,0,0,0,0,1,1,14,,,,,,,33.633503226563334,34.66012195311487,34.66012195311487,34.66012195311487,34.66012195311487,37.6848827265203,37.6848827265203,37.6848827265203,37.6848827265203,None,,,,,,,,,,student1,2022-10-25_10h37.17.201,Hippopolis_Updating,2022.2.2,59.95219243166023,
Hippopolis,stimuli/subj_files/student1_cityA.csv,./stimuli/frankfurt.jpg,./stimuli/street_plate1.png,FÓKA UTCA,stimuli/scenes/058a.jpg,scene,0,stimuli/scenes/058a.jpg,stimuli/scenes/058a.jpg,stimuli/scenes/058b.jpg,stimuli/objects/111b.jpg,stimuli/objects/111a.jpg,target,lure,dist2,dist1,0,0,0,0,0,2,2,51,,,,,,,39.64944479241967,40.67511370405555,40.67511370405555,40.67511370405555,40.67511370405555,43.664559703320265,43.664559703320265,43.664559703320265,43.664559703320265,None,,,,,,,,,,student1,2022-10-25_10h37.17.201,Hippopolis_Updating,2022.2.2,59.95219243166023,
Hippopolis,stimuli/subj_files/student1_cityA.csv,./stimuli/frankfurt.jpg,./stimuli/street_plate1.png,PADLÓ UTCA,stimuli/objects/100a.jpg,object,0,stimuli/objects/100a.jpg,stimuli/scenes/058a.jpg,stimuli/scenes/058b.jpg,stimuli/objects/100a.jpg,stimuli/objects/100b.jpg,dist1,dist2,target,lure,0,0,0,0,0,3,3,59,,,,,,,45.66504145227373,46.69925899617374,46.69925899617374,46.69925899617374,46.69925899617374,49.69075857102871,49.69075857102871,49.69075857102871,49.69075857102871,None,,,,,,,,,,student1,2022-10-25_10h37.17.201,Hippopolis_Updating,2022.2.2,59.95219243166023,
Hippopolis,stimuli/subj_files/student1_cityA.csv,./stimuli/frankfurt.jpg,./stimuli/street_plate1.png,FOGAS UTCA,stimuli/scenes/025a.jpg,scene,1,stimuli/scenes/018a.jpg,stimuli/scenes/018b.jpg,stimuli/scenes/064a.jpg,stimuli/scenes/018a.jpg,stimuli/scenes/064b.jpg,lure,dist1,target,dist2,0,0,0,0,0,4,4,38,,,,,,,51.679218366742134,52.70154676027596,52.70154676027596,52.70154676027596,52.70154676027596,55.72548087872565,55.72548087872565,55.72548087872565,55.72548087872565,None,52.70154676027596,,,,,,,,,student1,2022-10-25_10h37.17.201,Hippopolis_Updating,2022.2.2,59.95219243166023,
Hippopolis,stimuli/subj_files/student1_cityA.csv,./stimuli/frankfurt.jpg,./stimuli/street_plate1.png,LÉTRA UTCA,stimuli/objects/047a.jpg,object,1,stimuli/objects/015a.jpg,stimuli/objects/108b.jpg,stimuli/objects/015b.jpg,stimuli/objects/108a.jpg,stimuli/objects/015a.jpg,dist2,lure,dist1,target,0,0,0,0,0,5,5,33,,,,,,,57.69237642548978,58.72000405564904,58.72000405564904,58.72000405564904,58.72000405564904,61.74659758992493,61.74659758992493,61.74659758992493,61.74659758992493,None,,,,,,,,,,student1,2022-10-25_10h37.17.201,Hippopolis_Updating,2022.2.2,59.95219243166023,
Hippopolis,stimuli/subj_files/student1_cityA.csv,./stimuli/frankfurt.jpg,./stimuli/street_plate1.png,KERET UTCA,stimuli/scenes/027a.jpg,scene,0,stimuli/scenes/027a.jpg,stimuli/objects/100a.jpg,stimuli/objects/100b.jpg,stimuli/scenes/027a.jpg,stimuli/scenes/027b.jpg,dist1,dist2,target,lure,0,0,0,0,0,6,6,3,,,,,,,63.700533190742135,64.7193086463958,64.7193086463958,64.7193086463958,64.7193086463958,67.72459606640041,67.72459606640041,67.72459606640041,67.72459606640041,None,,,,,,,,,,student1,2022-10-25_10h37.17.201,Hippopolis_Updating,2022.2.2,59.95219243166023,
Hippopolis,stimuli/subj_files/student1_cityA.csv,./stimuli/frankfurt.jpg,./stimuli/street_plate1.png,KORONA UTCA,stimuli/scenes/108a.jpg,scene,1,stimuli/scenes/011a.jpg,stimuli/objects/076a.jpg,stimuli/scenes/011b.jpg,stimuli/objects/076b.jpg,stimuli/scenes/011a.jpg,dist1,lure,dist2,target,0,0,0,0,0,7,7,9,,,,,,,69.69899650663137,70.72211672179401,70.72211672179401,70.72211672179401,70.72211672179401,73.73746551014483,73.73746551014483,73.73746551014483,73.73746551014483,None,,,,,,,,,,student1,2022-10-25_10h37.17.201,Hippopolis_Updating,2022.2.2,59.95219243166023,
Hippopolis,stimuli/subj_files/student1_cityA.csv,./stimuli/frankfurt.jpg,./stimuli/street_plate1.png,HEGEDŰ UTCA,stimuli/scenes/113a.jpg,scene,2,stimuli/objects/036a.jpg,stimuli/objects/036b.jpg,stimuli/scenes/059b.jpg,stimuli/scenes/059a.jpg,stimuli/objects/036a.jpg,lure,dist2,dist1,target,0,0,0,0,0,8,8,69,,,,,,,75.70744499564171,76.7373644337058,76.7373644337058,76.7373644337058,76.7373644337058,79.76050268672407,79.76050268672407,79.76050268672407,79.76050268672407,None,,,,,,,,,,student1,2022-10-25_10h37.17.201,Hippopolis_Updating,2022.2.2,59.95219243166023,
Hippopolis,stimuli/subj_files/student1_cityA.csv,./stimuli/frankfurt.jpg,./stimuli/street_plate1.png,DOMINÓ UTCA,stimuli/scenes/042a.jpg,scene,0,stimuli/scenes/042a.jpg,stimuli/scenes/042a.jpg,stimuli/scenes/042b.jpg,stimuli/objects/070a.jpg,stimuli/objects/070b.jpg,target,lure,dist1,dist2,0,0,0,0,0,9,9,63,,,,,,,81.71588726527989,82.74139258824289,82.74139258824289,82.74139258824289,82.74139258824289,85.73852852918208,85.73852852918208,85.73852852918208,85.73852852918208,None,,,,,,,,,,student1,2022-10-25_10h37.17.201,Hippopolis_Updating,2022.2.2,59.95219243166023,
Hippopolis,stimuli/subj_files/student1_cityA.csv,./stimuli/frankfurt.jpg,./stimuli/street_plate1.png,HORDÓ UTCA,stimuli/scenes/095a.jpg,scene,0,stimuli/scenes/095a.jpg,stimuli/scenes/095a.jpg,stimuli/scenes/046a.jpg,stimuli/scenes/095b.jpg,stimuli/scenes/046b.jpg,target,dist1,lure,dist2,0,0,0,0,0,10,10,27,,,,,,,87.71859986148775,88.73801972344518,88.73801972344518,88.73801972344518,88.73801972344518,91.76539699360728,91.76539699360728,91.76539699360728,91.76539699360728,None,88.73801972344518,,,,,,,,,student1,2022-10-25_10h37.17.201,Hippopolis_Updating,2022.2.2,59.95219243166023,
Hippopolis,stimuli/subj_files/student1_cityA.csv,./stimuli/frankfurt.jpg,./stimuli/street_plate1.png,TALICSKA UTCA,stimuli/objects/014a.jpg,object,1,stimuli/objects/108a.jpg,stimuli/objects/109a.jpg,stimuli/objects/109b.jpg,stimuli/objects/108a.jpg,stimuli/objects/108b.jpg,dist1,dist2,target,lure,0,0,0,0,0,11,11,13,,,,,,,93.71884431317449,94.74347042106092,94.74347042106092,94.74347042106092,94.74347042106092,97.77736576460302,97.77736576460302,97.77736576460302,97.77736576460302,None,,,,,,,,,,student1,2022-10-25_10h37.17.201,Hippopolis_Updating,2022.2.2,59.95219243166023,
Hippopolis,stimuli/subj_files/student1_cityA.csv,./stimuli/frankfurt.jpg,./stimuli/street_plate1.png,LIGET UTCA,stimuli/objects/038a.jpg,object,2,stimuli/scenes/109a.jpg,stimuli/scenes/109a.jpg,stimuli/objects/055a.jpg,stimuli/scenes/109b.jpg,stimuli/objects/055b.jpg,target,dist1,lure,dist2,0,0,0,0,0,12,12,62,,,,,,,99.7275425400585,100.7549163904041,100.7549163904041,100.7549163904041,100.7549163904041,103.76376638747752,103.76376638747752,103.76376638747752,103.76376638747752,None,,,,,,,,,,student1,2022-10-25_10h37.17.201,Hippopolis_Updating,2022.2.2,59.95219243166023,
Hippopolis,stimuli/subj_files/student1_cityA.csv,./stimuli/frankfurt.jpg,./stimuli/street_plate1.png,AJÁNDÉK UTCA,stimuli/scenes/005a.jpg,scene,1,stimuli/scenes/009a.jpg,stimuli/scenes/078b.jpg,stimuli/scenes/078a.jpg,stimuli/scenes/009a.jpg,stimuli/scenes/009b.jpg,dist2,dist1,target,lure,0,0,0,0,0,13,13,28,,,,,,,105.74997449852526,106.76746269874275,106.76746269874275,106.76746269874275,106.76746269874275,109.78761964477599,109.78761964477599,109.78761964477599,109.78761964477599,None,,,,,,,,,,student1,2022-10-25_10h37.17.201,Hippopolis_Updating,2022.2.2,59.95219243166023,
Hippopolis,stimuli/subj_files/student1_cityA.csv,./stimuli/frankfurt.jpg,./stimuli/street_plate1.png,RÓZSA UTCA,stimuli/objects/091a.jpg,object,0,stimuli/objects/091a.jpg,stimuli/objects/091b.jpg,stimuli/objects/078b.jpg,stimuli/objects/078a.jpg,stimuli/objects/091a.jpg,lure,dist2,dist1,target,0,0,0,0,0,14,14,45,,,,,,,111.7569671664387,112.78792225383222,112.78792225383222,112.78792225383222,112.78792225383222,115.78803763724864,115.78803763724864,115.78803763724864,115.78803763724864,None,,,,,,,,,,student1,2022-10-25_10h37.17.201,Hippopolis_Updating,2022.2.2,59.95219243166023,
Hippopolis,stimuli/subj_files/student1_cityA.csv,./stimuli/frankfurt.jpg,./stimuli/street_plate1.png,NARANCS UTCA,stimuli/objects/017a.jpg,object,1,stimuli/objects/075a.jpg,stimuli/objects/075a.jpg,stimuli/scenes/041b.jpg,stimuli/scenes/041a.jpg,stimuli/objects/075b.jpg,target,dist2,dist1,lure,0,0,0,0,0,15,15,76,,,,,,,117.76866349391639,118.8007509559393,118.8007509559393,118.8007509559393,118.8007509559393,121.82235004007816,121.82235004007816,121.82235004007816,121.82235004007816,None,,,,,,,,,,student1,2022-10-25_10h37.17.201,Hippopolis_Updating,2022.2.2,59.95219243166023,
Hippopolis,stimuli/subj_files/student1_cityA.csv,./stimuli/frankfurt.jpg,./stimuli/street_plate1.png,EGÉR UTCA,stimuli/scenes/071a.jpg,scene,1,stimuli/scenes/116a.jpg,stimuli/scenes/116b.jpg,stimuli/scenes/116a.jpg,stimuli/scenes/009b.jpg,stimuli/scenes/009a.jpg,lure,target,dist2,dist1,0,0,0,0,0,16,16,29,,,,,,,123.78222212940454,124.80983234383166,124.80983234383166,124.80983234383166,124.80983234383166,127.83194458670914,127.83194458670914,127.83194458670914,127.83194458670914,None,,,,,,,,,,student1,2022-10-25_10h37.17.201,Hippopolis_Updating,2022.2.2,59.95219243166023,
Hippopolis,stimuli/subj_files/student1_cityA.csv,./stimuli/frankfurt.jpg,./stimuli/street_plate1.png,CITROM UTCA,stimuli/scenes/036a.jpg,scene,2,stimuli/objects/043a.jpg,stimuli/objects/043b.jpg,stimuli/objects/067a.jpg,stimuli/objects/043a.jpg,stimuli/objects/067b.jpg,lure,dist1,target,dist2,0,0,0,0,0,17,17,26,,,,,,,129.78996338881552,130.824760960415,130.824760960415,130.824760960415,130.824760960415,133.81865248456597,133.81865248456597,133.81865248456597,133.81865248456597,None,,,,,,,,,,student1,2022-10-25_10h37.17.201,Hippopolis_Updating,2022.2.2,59.95219243166023,
Hippopolis,stimuli/subj_files/student1_cityA.csv,./stimuli/frankfurt.jpg,./stimuli/street_plate1.png,PÉKSÉG UTCA,stimuli/scenes/073a.jpg,scene,2,stimuli/objects/059a.jpg,stimuli/objects/059a.jpg,stimuli/objects/046b.jpg,stimuli/objects/059b.jpg,stimuli/objects/046a.jpg,target,dist2,lure,dist1,0,0,0,0,0,18,18,61,,,,,,,135.79811237938702,136.8289766535163,136.8289766535163,136.8289766535163,136.8289766535163,139.83897177688777,139.83897177688777,139.83897177688777,139.83897177688777,None,,,,,,,,,,student1,2022-10-25_10h37.17.201,Hippopolis_Updating,2022.2.2,59.95219243166023,
Hippopolis,stimuli/subj_files/student1_cityA.csv,./stimuli/frankfurt.jpg,./stimuli/street_plate1.png,VÖDÖR UTCA,stimuli/scenes/055a.jpg,scene,1,stimuli/scenes/088a.jpg,stimuli/scenes/088b.jpg,stimuli/scenes/088a.jpg,stimuli/scenes/087b.jpg,stimuli/scenes/087a.jpg,lure,target,dist2,dist1,0,0,0,0,0,19,19,56,,,,,,,141.79880623333156,142.8234662413597,142.8234662413597,142.8234662413597,142.8234662413597,145.83813081495464,145.83813081495464,145.83813081495464,145.83813081495464,None,,,,,,,,,,student1,2022-10-25_10h37.17.201,Hippopolis_Updating,2022.2.2,59.95219243166023,
Hippopolis,stimuli/subj_files/student1_cityA.csv,./stimuli/frankfurt.jpg,./stimuli/street_plate1.png,PÁFRÁNY UTCA,stimuli/scenes/101a.jpg,scene,0,stimuli/scenes/101a.jpg,stimuli/scenes/101a.jpg,stimuli/scenes/101b.jpg,stimuli/objects/051a.jpg,stimuli/objects/051b.jpg,target,lure,dist1,dist2,0,0,0,0,0,20,20,0,,,,,,,147.80225218459964,148.82718121260405,148.82718121260405,148.82718121260405,148.82718121260405,151.83035907708108,151.83035907708108,151.83035907708108,151.83035907708108,None,,,,,,,,,,student1,2022-10-25_10h37.17.201,Hippopolis_Updating,2022.2.2,59.95219243166023,
Hippopolis,stimuli/subj_files/student1_cityA.csv,./stimuli/frankfurt.jpg,./stimuli/street_plate1.png,CUKOR UTCA,stimuli/objects/111a.jpg,object,0,stimuli/objects/111a.jpg,stimuli/objects/089b.jpg,stimuli/objects/111b.jpg,stimuli/objects/111a.jpg,stimuli/objects/089a.jpg,dist2,lure,target,dist1,0,0,0,0,0,21,21,30,,,,,,,153.81488588638604,154.83535757102072,154.83535757102072,154.83535757102072,154.83535757102072,157.8420638013631,157.8420638013631,157.8420638013631,157.8420638013631,None,,,,,,,,,,student1,2022-10-25_10h37.17.201,Hippopolis_Updating,2022.2.2,59.95219243166023,
Hippopolis,stimuli/subj_files/student1_cityA.csv,./stimuli/frankfurt.jpg,./stimuli/street_plate1.png,HERNYÓ UTCA,stimuli/scenes/066a.jpg,scene,1,stimuli/scenes/037a.jpg,stimuli/scenes/037a.jpg,stimuli/objects/045b.jpg,stimuli/scenes/037b.jpg,stimuli/objects/045a.jpg,target,dist2,lure,dist1,0,0,0,0,0,22,22,5,,,,,,,159.82618412561715,160.8540530987084,160.8540530987084,160.8540530987084,160.8540530987084,163.85588648170233,163.85588648170233,163.85588648170233,163.85588648170233,None,,,,,,,,,,student1,2022-10-25_10h37.17.201,Hippopolis_Updating,2022.2.2,59.95219243166023,
Hippopolis,stimuli/subj_files/student1_cityA.csv,./stimuli/frankfurt.jpg,./stimuli/street_plate1.png,ZSEMLE UTCA,stimuli/objects/115a.jpg,object,1,stimuli/objects/053a.jpg,stimuli/objects/007a.jpg,stimuli/objects/053a.jpg,stimuli/objects/007b.jpg,stimuli/objects/053b.jpg,dist1,target,dist2,lure,0,0,0,0,0,23,23,47,,,,,,,165.82867404446006,166.85505080595613,166.85505080595613,166.85505080595613,166.85505080595613,169.85433642566204,169.85433642566204,169.85433642566204,169.85433642566204,None,,,,,,,,,,student1,2022-10-25_10h37.17.201,Hippopolis_Updating,2022.2.2,59.95219243166023,
Hippopolis,stimuli/subj_files/student1_cityA.csv,./stimuli/frankfurt.jpg,./stimuli/street_plate1.png,PÁLMAFA UTCA,stimuli/objects/090a.jpg,object,1,stimuli/objects/007a.jpg,stimuli/objects/053a.jpg,stimuli/objects/007a.jpg,stimuli/objects/053b.jpg,stimuli/objects/007b.jpg,dist1,target,dist2,lure,0,0,0,0,0,24,24,12,,,,,,,171.8367891330272,172.8525562249124,172.8525562249124,172.8525562249124,172.8525562249124,175.8750202152878,175.8750202152878,175.8750202152878,175.8750202152878,None,,,,,,,,,,student1,2022-10-25_10h37.17.201,Hippopolis_Updating,2022.2.2,59.95219243166023,
Hippopolis,stimuli/subj_files/student1_cityA.csv,./stimuli/frankfurt.jpg,./stimuli/street_plate1.png,OROSZLÁN UTCA,stimuli/scenes/072a.jpg,scene,0,stimuli/scenes/072a.jpg,stimuli/scenes/072a.jpg,stimuli/scenes/072b.jpg,stimuli/scenes/027b.jpg,stimuli/scenes/027a.jpg,target,lure,dist2,dist1,0,0,0,0,0,25,25,66,,,,,,,177.83951666019857,178.87229424528778,178.87229424528778,178.87229424528778,178.87229424528778,181.86405755206943,181.86405755206943,181.86405755206943,181.86405755206943,None,,,,,,,,,,student1,2022-10-25_10h37.17.201,Hippopolis_Updating,2022.2.2,59.95219243166023,
Hippopolis,stimuli/subj_files/student1_cityA.csv,./stimuli/frankfurt.jpg,./stimuli/street_plate1.png,BOLYGÓ UTCA,stimuli/scenes/118a.jpg,scene,1,stimuli/scenes/087a.jpg,stimuli/objects/011a.jpg,stimuli/scenes/087b.jpg,stimuli/objects/011b.jpg,stimuli/scenes/087a.jpg,dist1,lure,dist2,target,0,0,0,0,0,26,26,31,,,,,,,183.855342220515,184.88668357767165,184.88668357767165,184.88668357767165,184.88668357767165,187.87737919948995,187.87737919948995,187.87737919948995,187.87737919948995,None,,,,,,,,,,student1,2022-10-25_10h37.17.201,Hippopolis_Updating,2022.2.2,59.95219243166023,
Hippopolis,stimuli/subj_files/student1_cityA.csv,./stimuli/frankfurt.jpg,./stimuli/street_plate1.png,HAJÓ UTCA,stimuli/objects/086a.jpg,object,1,stimuli/objects/041a.jpg,stimuli/scenes/014a.jpg,stimuli/scenes/014b.jpg,stimuli/objects/041a.jpg,stimuli/objects/041b.jpg,dist1,dist2,target,lure,0,0,0,0,0,27,27,71,,,,,,,189.85581463761628,190.88511548377573,190.88511548377573,190.88511548377573,190.88511548377573,193.89631948806345,193.89631948806345,193.89631948806345,193.89631948806345,None,,,,,,,,,,student1,2022-10-25_10h37.17.201,Hippopolis_Updating,2022.2.2,59.95219243166023,
Hippopolis,stimuli/subj_files/student1_cityA.csv,./stimuli/frankfurt.jpg,./stimuli/street_plate1.png,KERÉK UTCA,stimuli/scenes/096a.jpg,scene,1,stimuli/scenes/041a.jpg,stimuli/scenes/117a.jpg,stimuli/scenes/041b.jpg,stimuli/scenes/041a.jpg,stimuli/scenes/117b.jpg,dist1,lure,target,dist2,0,0,0,0,0,28,28,20,,,,,,,195.87269451096654,196.90470297634602,196.90470297634602,196.90470297634602,196.90470297634602,199.91454104147851,199.91454104147851,199.91454104147851,199.91454104147851,None,,,,,,,,,,student1,2022-10-25_10h37.17.201,Hippopolis_Updating,2022.2.2,59.95219243166023,
Hippopolis,stimuli/subj_files/student1_cityA.csv,./stimuli/frankfurt.jpg,./stimuli/street_plate1.png,SZIKLA UTCA,stimuli/scenes/111a.jpg,scene,2,stimuli/objects/073a.jpg,stimuli/objects/120b.jpg,stimuli/objects/120a.jpg,stimuli/objects/073a.jpg,stimuli/objects/073b.jpg,dist2,dist1,target,lure,0,0,0,0,0,29,29,1,,,,,,,201.88388483040035,202.90956182964146,202.90956182964146,202.90956182964146,202.90956182964146,205.9144881721586,205.9144881721586,205.9144881721586,205.9144881721586,None,,,,,,,,,,student1,2022-10-25_10h37.17.201,Hippopolis_Updating,2022.2.2,59.95219243166023,
Hippopolis,stimuli/subj_files/student1_cityA.csv,./stimuli/frankfurt.jpg,./stimuli/street_plate1.png,KARTON UTCA,stimuli/objects/101a.jpg,object,2,stimuli/scenes/044a.jpg,stimuli/scenes/074a.jpg,stimuli/scenes/044b.jpg,stimuli/scenes/044a.jpg,stimuli/scenes/074b.jpg,dist1,lure,target,dist2,0,0,0,0,0,30,30,8,,,,,,,207.9003656823188,208.91882733255625,208.91882733255625,208.91882733255625,208.91882733255625,211.92783967591822,211.92783967591822,211.92783967591822,211.92783967591822,None,,,,,,,,,,student1,2022-10-25_10h37.17.201,Hippopolis_Updating,2022.2.2,59.95219243166023,
Hippopolis,stimuli/subj_files/student1_cityA.csv,./stimuli/frankfurt.jpg,./stimuli/street_plate1.png,KAKAS UTCA,stimuli/objects/002a.jpg,object,2,stimuli/scenes/074a.jpg,stimuli/scenes/074b.jpg,stimuli/scenes/074a.jpg,stimuli/scenes/070a.jpg,stimuli/scenes/070b.jpg,lure,target,dist1,dist2,0,0,0,0,0,31,31,24,,,,,,,213.91718770749867,214.94816332124174,214.94816332124174,214.94816332124174,214.94816332124174,217.95591826550663,217.95591826550663,217.95591826550663,217.95591826550663,None,,,,,,,,,,student1,2022-10-25_10h37.17.201,Hippopolis_Updating,2022.2.2,59.95219243166023,
Hippopolis,stimuli/subj_files/student1_cityA.csv,./stimuli/frankfurt.jpg,./stimuli/street_plate1.png,TOBOZ UTCA,stimuli/objects/001a.jpg,object,2,stimuli/scenes/059a.jpg,stimuli/scenes/059a.jpg,stimuli/objects/085a.jpg,stimuli/objects/085b.jpg,stimuli/scenes/059b.jpg,target,dist1,dist2,lure,0,0,0,0,0,32,32,40,,,,,,,219.9219943098724,220.95087374188006,220.95087374188006,220.95087374188006,220.95087374188006,223.95289777219296,223.95289777219296,223.95289777219296,223.95289777219296,None,,,,,,,,,,student1,2022-10-25_10h37.17.201,Hippopolis_Updating,2022.2.2,59.95219243166023,
Hippopolis,stimuli/subj_files/student1_cityA.csv,./stimuli/frankfurt.jpg,./stimuli/street_plate1.png,MARTINI UTCA,stimuli/objects/060a.jpg,object,1,stimuli/objects/011a.jpg,stimuli/objects/075b.jpg,stimuli/objects/075a.jpg,stimuli/objects/011b.jpg,stimuli/objects/011a.jpg,dist2,dist1,lure,target,0,0,0,0,0,33,33,60,,,,,,,225.93114722892642,226.9620939195156,226.9620939195156,226.9620939195156,226.9620939195156,229.98152497783303,229.98152497783303,229.98152497783303,229.98152497783303,None,,,,,,,,,,student1,2022-10-25_10h37.17.201,Hippopolis_Updating,2022.2.2,59.95219243166023,
Hippopolis,stimuli/subj_files/student1_cityA.csv,./stimuli/frankfurt.jpg,./stimuli/street_plate1.png,SIVATAG UTCA,stimuli/scenes/016a.jpg,scene,2,stimuli/objects/046a.jpg,stimuli/objects/046b.jpg,stimuli/objects/006a.jpg,stimuli/objects/006b.jpg,stimuli/objects/046a.jpg,lure,dist1,dist2,target,0,0,0,0,0,34,34,23,,,,,,,231.94742157123983,232.97345902584493,232.97345902584493,232.97345902584493,232.97345902584493,235.9861748330295,235.9861748330295,235.9861748330295,235.9861748330295,None,,,,,,,,,,student1,2022-10-25_10h37.17.201,Hippopolis_Updating,2022.2.2,59.95219243166023,
Hippopolis,stimuli/subj_files/student1_cityA.csv,./stimuli/frankfurt.jpg,./stimuli/street_plate1.png,KORONG UTCA,stimuli/scenes/065a.jpg,scene,1,stimuli/scenes/004a.jpg,stimuli/scenes/004a.jpg,stimuli/scenes/011b.jpg,stimuli/scenes/011a.jpg,stimuli/scenes/004b.jpg,target,dist2,dist1,lure,0,0,0,0,0,35,35,53,,,,,,,237.95620190352201,238.98505956493318,238.98505956493318,238.98505956493318,238.98505956493318,241.988843889907,241.988843889907,241.988843889907,241.988843889907,None,,,,,,,,,,student1,2022-10-25_10h37.17.201,Hippopolis_Updating,2022.2.2,59.95219243166023,
Hippopolis,stimuli/subj_files/student1_cityA.csv,./stimuli/frankfurt.jpg,./stimuli/street_plate1.png,KÖTÉL UTCA,stimuli/objects/051a.jpg,object,0,stimuli/objects/051a.jpg,stimuli/scenes/024b.jpg,stimuli/objects/051b.jpg,stimuli/scenes/024a.jpg,stimuli/objects/051a.jpg,dist2,lure,dist1,target,0,0,0,0,0,36,36,7,,,,,,,243.974884679541,245.0009348858148,245.0009348858148,245.0009348858148,245.0009348858148,247.9993751887232,247.9993751887232,247.9993751887232,247.9993751887232,None,,,,,,,,,,student1,2022-10-25_10h37.17.201,Hippopolis_Updating,2022.2.2,59.95219243166023,
Hippopolis,stimuli/subj_files/student1_cityA.csv,./stimuli/frankfurt.jpg,./stimuli/street_plate1.png,MOCSÁR UTCA,stimuli/objects/080a.jpg,object,0,stimuli/objects/080a.jpg,stimuli/objects/080b.jpg,stimuli/objects/080a.jpg,stimuli/scenes/043b.jpg,stimuli/scenes/043a.jpg,lure,target,dist2,dist1,0,0,0,0,0,37,37,17,,,,,,,249.9811097830534,251.00392490066588,251.00392490066588,251.00392490066588,251.00392490066588,254.0059137865901,254.0059137865901,254.0059137865901,254.0059137865901,None,,,,,,,,,,student1,2022-10-25_10h37.17.201,Hippopolis_Updating,2022.2.2,59.95219243166023,
Hippopolis,stimuli/subj_files/student1_cityA.csv,./stimuli/frankfurt.jpg,./stimuli/street_plate1.png,TRIATLON UTCA,stimuli/objects/024a.jpg,object,0,stimuli/objects/024a.jpg,stimuli/objects/024b.jpg,stimuli/objects/080a.jpg,stimuli/objects/024a.jpg,stimuli/objects/080b.jpg,lure,dist1,target,dist2,0,0,0,0,0,38,38,2,,,,,,,255.99098921194673,257.020032543689,257.020032543689,257.020032543689,257.020032543689,260.0103232357651,260.0103232357651,260.0103232357651,260.0103232357651,None,,,,,,,,,,student1,2022-10-25_10h37.17.201,Hippopolis_Updating,2022.2.2,59.95219243166023,
Hippopolis,stimuli/subj_files/student1_cityA.csv,./stimuli/frankfurt.jpg,./stimuli/street_plate1.png,RÁDIÓ UTCA,stimuli/scenes/068a.jpg,scene,1,stimuli/scenes/067a.jpg,stimuli/scenes/018b.jpg,stimuli/scenes/067a.jpg,stimuli/scenes/067b.jpg,stimuli/scenes/018a.jpg,dist2,target,lure,dist1,0,0,0,0,0,39,39,44,,,,,,,261.9961161520332,263.01845138706267,263.01845138706267,263.01845138706267,263.01845138706267,266.01957723125815,266.01957723125815,266.01957723125815,266.01957723125815,None,,,,,,,,,,student1,2022-10-25_10h37.17.201,Hippopolis_Updating,2022.2.2,59.95219243166023,
Hippopolis,stimuli/subj_files/student1_cityA.csv,./stimuli/frankfurt.jpg,./stimuli/street_plate1.png,FÉNYKÉP UTCA,stimuli/scenes/010a.jpg,scene,1,stimuli/scenes/078a.jpg,stimuli/scenes/088a.jpg,stimuli/scenes/078a.jpg,stimuli/scenes/088b.jpg,stimuli/scenes/078b.jpg,dist1,target,dist2,lure,0,0,0,0,0,40,40,32,,,,,,,268.00569266080856,269.0359688233584,269.0359688233584,269.0359688233584,269.0359688233584,272.0330189280212,272.0330189280212,272.0330189280212,272.0330189280212,None,,,,,,,,,,student1,2022-10-25_10h37.17.201,Hippopolis_Updating,2022.2.2,59.95219243166023,
Hippopolis,stimuli/subj_files/student1_cityA.csv,./stimuli/frankfurt.jpg,./stimuli/street_plate1.png,KÖNYVTÁR UTCA,stimuli/objects/113a.jpg,object,1,stimuli/objects/109a.jpg,stimuli/objects/109a.jpg,stimuli/objects/109b.jpg,stimuli/scenes/067a.jpg,stimuli/scenes/067b.jpg,target,lure,dist1,dist2,0,0,0,0,0,41,41,42,,,,,,,274.00822363235056,275.0340390279889,275.0340390279889,275.0340390279889,275.0340390279889,278.0432802718133,278.0432802718133,278.0432802718133,278.0432802718133,None,,,,,,,,,,student1,2022-10-25_10h37.17.201,Hippopolis_Updating,2022.2.2,59.95219243166023,
Hippopolis,stimuli/subj_files/student1_cityA.csv,./stimuli/frankfurt.jpg,./stimuli/street_plate1.png,CSAVAR UTCA,stimuli/objects/078a.jpg,object,0,stimuli/objects/078a.jpg,stimuli/objects/078b.jpg,stimuli/objects/024b.jpg,stimuli/objects/078a.jpg,stimuli/objects/024a.jpg,lure,dist2,target,dist1,0,0,0,0,0,42,42,10,,,,,,,280.0184451676905,281.0509120579809,281.0509120579809,281.0509120579809,281.0509120579809,284.04445680975914,284.04445680975914,284.04445680975914,284.04445680975914,None,,,,,,,,,,student1,2022-10-25_10h37.17.201,Hippopolis_Updating,2022.2.2,59.95219243166023,
Hippopolis,stimuli/subj_files/student1_cityA.csv,./stimuli/frankfurt.jpg,./stimuli/street_plate1.png,KOCKA UTCA,stimuli/objects/062a.jpg,object,0,stimuli/objects/062a.jpg,stimuli/scenes/095b.jpg,stimuli/objects/062a.jpg,stimuli/objects/062b.jpg,stimuli/scenes/095a.jpg,dist2,target,lure,dist1,0,0,0,0,0,43,43,35,,,,,,,286.0312608089298,287.05059638619423,287.05059638619423,287.05059638619423,287.05059638619423,290.0563702210784,290.0563702210784,290.0563702210784,290.0563702210784,None,,,,,,,,,,student1,2022-10-25_10h37.17.201,Hippopolis_Updating,2022.2.2,59.95219243166023,
Hippopolis,stimuli/subj_files/student1_cityA.csv,./stimuli/frankfurt.jpg,./stimuli/street_plate1.png,KECSKE UTCA,stimuli/scenes/085a.jpg,scene,2,stimuli/objects/022a.jpg,stimuli/objects/022b.jpg,stimuli/objects/022a.jpg,stimuli/scenes/053a.jpg,stimuli/scenes/053b.jpg,lure,target,dist1,dist2,0,0,0,0,0,44,44,6,,,,,,,292.0468773730099,293.0680198967457,293.0680198967457,293.0680198967457,293.0680198967457,296.0688114091754,296.0688114091754,296.0688114091754,296.0688114091754,space,,298.05860169045627,298.05860169045627,14.533286293968558,,,,,,student1,2022-10-25_10h37.17.201,Hippopolis_Updating,2022.2.2,59.95219243166023,
Hippopolis,stimuli/subj_files/student1_cityA.csv,./stimuli/frankfurt.jpg,./stimuli/street_plate1.png,HARMONIKA UTCA,stimuli/scenes/024a.jpg,scene,0,stimuli/scenes/024a.jpg,stimuli/scenes/101b.jpg,stimuli/scenes/024b.jpg,stimuli/scenes/101a.jpg,stimuli/scenes/024a.jpg,dist2,lure,dist1,target,0,0,0,0,0,45,45,25,,,,,,,312.62395315244794,313.65393012575805,313.65393012575805,313.65393012575805,313.65393012575805,316.6522525586188,316.6522525586188,316.6522525586188,316.6522525586188,None,,,,,,,,,,student1,2022-10-25_10h37.17.201,Hippopolis_Updating,2022.2.2,59.95219243166023,
Hippopolis,stimuli/subj_files/student1_cityA.csv,./stimuli/frankfurt.jpg,./stimuli/street_plate1.png,KÖMÉNYMAG UTCA,stimuli/objects/068a.jpg,object,1,stimuli/objects/045a.jpg,stimuli/objects/045a.jpg,stimuli/objects/045b.jpg,stimuli/objects/071a.jpg,stimuli/objects/071b.jpg,target,lure,dist1,dist2,0,0,0,0,0,46,46,18,,,,,,,318.6245362907648,319.64947931468487,319.64947931468487,319.64947931468487,319.64947931468487,322.671397799626,322.671397799626,322.671397799626,322.671397799626,None,,,,,,,,,,student1,2022-10-25_10h37.17.201,Hippopolis_Updating,2022.2.2,59.95219243166023,
Hippopolis,stimuli/subj_files/student1_cityA.csv,./stimuli/frankfurt.jpg,./stimuli/street_plate1.png,OLDAL UTCA,stimuli/scenes/093a.jpg,scene,2,stimuli/objects/107a.jpg,stimuli/objects/107b.jpg,stimuli/objects/022a.jpg,stimuli/objects/107a.jpg,stimuli/objects/022b.jpg,lure,dist1,target,dist2,0,0,0,0,0,47,47,11,,,,,,,324.6392444036901,325.6722014416009,325.6722014416009,325.6722014416009,325.6722014416009,328.6637299377471,328.6637299377471,328.6637299377471,328.6637299377471,None,,,,,,,,,,student1,2022-10-25_10h37.17.201,Hippopolis_Updating,2022.2.2,59.95219243166023,
Hippopolis,stimuli/subj_files/student1_cityA.csv,./stimuli/frankfurt.jpg,./stimuli/street_plate1.png,MOTOR UTCA,stimuli/objects/097a.jpg,object,1,stimuli/objects/071a.jpg,stimuli/objects/015b.jpg,stimuli/objects/071b.jpg,stimuli/objects/071a.jpg,stimuli/objects/015a.jpg,dist2,lure,target,dist1,0,0,0,0,0,48,48,36,,,,,,,330.63906588591635,331.6712009329349,331.6712009329349,331.6712009329349,331.6712009329349,334.7027030810714,334.7027030810714,334.7027030810714,334.7027030810714,None,,,,,,,,,,student1,2022-10-25_10h37.17.201,Hippopolis_Updating,2022.2.2,59.95219243166023,
Hippopolis,stimuli/subj_files/student1_cityA.csv,./stimuli/frankfurt.jpg,./stimuli/street_plate1.png,TELEP UTCA,stimuli/scenes/048a.jpg,scene,2,stimuli/objects/120a.jpg,stimuli/objects/120a.jpg,stimuli/objects/120b.jpg,stimuli/scenes/119b.jpg,stimuli/scenes/119a.jpg,target,lure,dist2,dist1,0,0,0,0,0,49,49,75,,,,,,,336.6447405088693,337.66858256980777,337.66858256980777,337.66858256980777,337.66858256980777,340.6764037590474,340.6764037590474,340.6764037590474,340.6764037590474,None,,,,,,,,,,student1,2022-10-25_10h37.17.201,Hippopolis_Updating,2022.2.2,59.95219243166023,
Hippopolis,stimuli/subj_files/student1_cityA.csv,./stimuli/frankfurt.jpg,./stimuli/street_plate1.png,PIZSAMA UTCA,stimuli/scenes/060a.jpg,scene,2,stimuli/objects/006a.jpg,stimuli/scenes/007b.jpg,stimuli/scenes/007a.jpg,stimuli/objects/006b.jpg,stimuli/objects/006a.jpg,dist2,dist1,lure,target,0,0,0,0,0,50,50,79,,,,,,,342.64667217060924,343.6677969675511,343.6677969675511,343.6677969675511,343.6677969675511,346.69210678339005,346.69210678339005,346.69210678339005,346.69210678339005,None,,,,,,,,,,student1,2022-10-25_10h37.17.201,Hippopolis_Updating,2022.2.2,59.95219243166023,
Hippopolis,stimuli/subj_files/student1_cityA.csv,./stimuli/frankfurt.jpg,./stimuli/street_plate1.png,ÁLOM UTCA,stimuli/objects/070a.jpg,object,0,stimuli/objects/070a.jpg,stimuli/objects/070b.jpg,stimuli/objects/114b.jpg,stimuli/objects/114a.jpg,stimuli/objects/070a.jpg,lure,dist2,dist1,target,0,0,0,0,0,51,51,50,,,,,,,348.655729919672,349.6868563722819,349.6868563722819,349.6868563722819,349.6868563722819,352.6885818373412,352.6885818373412,352.6885818373412,352.6885818373412,None,,,,,,,,,,student1,2022-10-25_10h37.17.201,Hippopolis_Updating,2022.2.2,59.95219243166023,
Hippopolis,stimuli/subj_files/student1_cityA.csv,./stimuli/frankfurt.jpg,./stimuli/street_plate1.png,MUNKA UTCA,stimuli/scenes/039a.jpg,scene,2,stimuli/objects/067a.jpg,stimuli/scenes/097a.jpg,stimuli/objects/067b.jpg,stimuli/objects/067a.jpg,stimuli/scenes/097b.jpg,dist1,lure,target,dist2,0,0,0,0,0,52,52,4,,,,,,,354.65611121430993,355.68599457480013,355.68599457480013,355.68599457480013,355.68599457480013,358.6942387316376,358.6942387316376,358.6942387316376,358.6942387316376,None,,,,,,,,,,student1,2022-10-25_10h37.17.201,Hippopolis_Updating,2022.2.2,59.95219243166023,
Hippopolis,stimuli/subj_files/student1_cityA.csv,./stimuli/frankfurt.jpg,./stimuli/street_plate1.png,MOGYORÓ UTCA,stimuli/objects/106a.jpg,object,1,stimuli/objects/103a.jpg,stimuli/scenes/116a.jpg,stimuli/objects/103b.jpg,stimuli/objects/103a.jpg,stimuli/scenes/116b.jpg,dist1,lure,target,dist2,0,0,0,0,0,53,53,54,,,,,,,360.6643121410161,361.6901872511953,361.6901872511953,361.6901872511953,361.6901872511953,364.7279272545129,364.7279272545129,364.7279272545129,364.7279272545129,None,,,,,,,,,,student1,2022-10-25_10h37.17.201,Hippopolis_Updating,2022.2.2,59.95219243166023,
Hippopolis,stimuli/subj_files/student1_cityA.csv,./stimuli/frankfurt.jpg,./stimuli/street_plate1.png,PAPUCS UTCA,stimuli/scenes/051a.jpg,scene,0,stimuli/scenes/051a.jpg,stimuli/scenes/051b.jpg,stimuli/scenes/051a.jpg,stimuli/scenes/090a.jpg,stimuli/scenes/090b.jpg,lure,target,dist1,dist2,0,0,0,0,0,54,54,68,,,,,,,366.6670306492597,367.6903467979282,367.6903467979282,367.6903467979282,367.6903467979282,370.7103140298277,370.7103140298277,370.7103140298277,370.7103140298277,None,,,,,,,,,,student1,2022-10-25_10h37.17.201,Hippopolis_Updating,2022.2.2,59.95219243166023,
Hippopolis,stimuli/subj_files/student1_cityA.csv,./stimuli/frankfurt.jpg,./stimuli/street_plate1.png,ÜVEG UTCA,stimuli/scenes/061a.jpg,scene,2,stimuli/objects/085a.jpg,stimuli/objects/085b.jpg,stimuli/scenes/084a.jpg,stimuli/objects/085a.jpg,stimuli/scenes/084b.jpg,lure,dist1,target,dist2,0,0,0,0,0,55,55,19,,,,,,,372.6790793463588,373.7075227480382,373.7075227480382,373.7075227480382,373.7075227480382,376.71711418405175,376.71711418405175,376.71711418405175,376.71711418405175,None,,,,,,,,,,student1,2022-10-25_10h37.17.201,Hippopolis_Updating,2022.2.2,59.95219243166023,
Hippopolis,stimuli/subj_files/student1_cityA.csv,./stimuli/frankfurt.jpg,./stimuli/street_plate1.png,TOLLTARTÓ UTCA,stimuli/objects/032a.jpg,object,2,stimuli/scenes/119a.jpg,stimuli/scenes/119a.jpg,stimuli/scenes/104b.jpg,stimuli/scenes/104a.jpg,stimuli/scenes/119b.jpg,target,dist2,dist1,lure,0,0,0,0,0,56,56,67,,,,,,,378.68710393458605,379.71588850952685,379.71588850952685,379.71588850952685,379.71588850952685,382.73591949790716,382.73591949790716,382.73591949790716,382.73591949790716,None,,,,,,,,,,student1,2022-10-25_10h37.17.201,Hippopolis_Updating,2022.2.2,59.95219243166023,
Hippopolis,stimuli/subj_files/student1_cityA.csv,./stimuli/frankfurt.jpg,./stimuli/street_plate1.png,KÖTÉNY UTCA,stimuli/scenes/031a.jpg,scene,1,stimuli/scenes/064a.jpg,stimuli/objects/103a.jpg,stimuli/objects/103b.jpg,stimuli/scenes/064b.jpg,stimuli/scenes/064a.jpg,dist1,dist2,lure,target,0,0,0,0,0,57,57,22,,,,,,,384.70422856882215,385.73221043497324,385.73221043497324,385.73221043497324,385.73221043497324,388.73700677603483,388.73700677603483,388.73700677603483,388.73700677603483,None,,,,,,,,,,student1,2022-10-25_10h37.17.201,Hippopolis_Updating,2022.2.2,59.95219243166023,
Hippopolis,stimuli/subj_files/student1_cityA.csv,./stimuli/frankfurt.jpg,./stimuli/street_plate1.png,HEGESZTŐ UTCA,stimuli/scenes/043a.jpg,scene,0,stimuli/scenes/043a.jpg,stimuli/scenes/043b.jpg,stimuli/scenes/043a.jpg,stimuli/objects/062a.jpg,stimuli/objects/062b.jpg,lure,target,dist1,dist2,0,0,0,0,0,58,58,77,,,,,,,390.71701715141535,391.75624780729413,391.75624780729413,391.75624780729413,391.75624780729413,394.7352296859026,394.7352296859026,394.7352296859026,394.7352296859026,None,,,,,,,,,,student1,2022-10-25_10h37.17.201,Hippopolis_Updating,2022.2.2,59.95219243166023,
Hippopolis,stimuli/subj_files/student1_cityA.csv,./stimuli/frankfurt.jpg,./stimuli/street_plate1.png,PULÓVER UTCA,stimuli/objects/114a.jpg,object,0,stimuli/objects/114a.jpg,stimuli/scenes/050b.jpg,stimuli/scenes/050a.jpg,stimuli/objects/114b.jpg,stimuli/objects/114a.jpg,dist2,dist1,lure,target,0,0,0,0,0,59,59,43,,,,,,,396.7361148092896,397.7653596736491,397.7653596736491,397.7653596736491,397.7653596736491,400.77573546767235,400.77573546767235,400.77573546767235,400.77573546767235,None,,,,,,,,,,student1,2022-10-25_10h37.17.201,Hippopolis_Updating,2022.2.2,59.95219243166023,
Hippopolis,stimuli/subj_files/student1_cityA.csv,./stimuli/frankfurt.jpg,./stimuli/street_plate1.png,BONBON UTCA,stimuli/objects/095a.jpg,object,2,stimuli/scenes/007a.jpg,stimuli/objects/028b.jpg,stimuli/objects/028a.jpg,stimuli/scenes/007a.jpg,stimuli/scenes/007b.jpg,dist2,dist1,target,lure,0,0,0,0,0,60,60,72,,,,,,,402.74066110141575,403.76464311406016,403.76464311406016,403.76464311406016,403.76464311406016,406.7824662681669,406.7824662681669,406.7824662681669,406.7824662681669,None,,,,,,,,,,student1,2022-10-25_10h37.17.201,Hippopolis_Updating,2022.2.2,59.95219243166023,
Hippopolis,stimuli/subj_files/student1_cityA.csv,./stimuli/frankfurt.jpg,./stimuli/street_plate1.png,HÁRFA UTCA,stimuli/objects/083a.jpg,object,2,stimuli/scenes/028a.jpg,stimuli/scenes/028b.jpg,stimuli/objects/012b.jpg,stimuli/objects/012a.jpg,stimuli/scenes/028a.jpg,lure,dist2,dist1,target,0,0,0,0,0,61,61,16,,,,,,,408.746516417712,409.77030032128096,409.77030032128096,409.77030032128096,409.77030032128096,412.7694630920887,412.7694630920887,412.7694630920887,412.7694630920887,None,,,,,,,,,,student1,2022-10-25_10h37.17.201,Hippopolis_Updating,2022.2.2,59.95219243166023,
Hippopolis,stimuli/subj_files/student1_cityA.csv,./stimuli/frankfurt.jpg,./stimuli/street_plate1.png,TERASZ UTCA,stimuli/objects/063a.jpg,object,2,stimuli/scenes/104a.jpg,stimuli/scenes/104a.jpg,stimuli/scenes/056a.jpg,stimuli/scenes/104b.jpg,stimuli/scenes/056b.jpg,target,dist1,lure,dist2,0,0,0,0,0,62,62,48,,,,,,,414.753357315436,415.782059783116,415.782059783116,415.782059783116,415.782059783116,418.7660952042788,418.7660952042788,418.7660952042788,418.7660952042788,None,,,,,,,,,,student1,2022-10-25_10h37.17.201,Hippopolis_Updating,2022.2.2,59.95219243166023,
Hippopolis,stimuli/subj_files/student1_cityA.csv,./stimuli/frankfurt.jpg,./stimuli/street_plate1.png,LÁNDZSA UTCA,stimuli/scenes/090a.jpg,scene,0,stimuli/scenes/090a.jpg,stimuli/scenes/090a.jpg,stimuli/objects/091b.jpg,stimuli/scenes/090b.jpg,stimuli/objects/091a.jpg,target,dist2,lure,dist1,0,0,0,0,0,63,63,39,,,,,,,420.7545456700027,421.78211514279246,421.78211514279246,421.78211514279246,421.78211514279246,424.77393691800535,424.77393691800535,424.77393691800535,424.77393691800535,None,,,,,,,,,,student1,2022-10-25_10h37.17.201,Hippopolis_Updating,2022.2.2,59.95219243166023,
Hippopolis,stimuli/subj_files/student1_cityA.csv,./stimuli/frankfurt.jpg,./stimuli/street_plate1.png,SZOMSZÉD UTCA,stimuli/objects/026a.jpg,object,1,stimuli/objects/004a.jpg,stimuli/objects/027b.jpg,stimuli/objects/004b.jpg,stimuli/objects/004a.jpg,stimuli/objects/027a.jpg,dist2,lure,target,dist1,0,0,0,0,0,64,64,65,,,,,,,426.7708641756326,427.7970596216619,427.7970596216619,427.7970596216619,427.7970596216619,430.8064352199435,430.8064352199435,430.8064352199435,430.8064352199435,None,,,,,,,,,,student1,2022-10-25_10h37.17.201,Hippopolis_Updating,2022.2.2,59.95219243166023,
Hippopolis,stimuli/subj_files/student1_cityA.csv,./stimuli/frankfurt.jpg,./stimuli/street_plate1.png,TOJÁS UTCA,stimuli/objects/021a.jpg,object,2,stimuli/scenes/034a.jpg,stimuli/scenes/034a.jpg,stimuli/objects/059a.jpg,stimuli/objects/059b.jpg,stimuli/scenes/034b.jpg,target,dist1,dist2,lure,0,0,0,0,0,65,65,37,,,,,,,432.773820290342,433.79847874492407,433.79847874492407,433.79847874492407,433.79847874492407,436.81417337059975,436.81417337059975,436.81417337059975,436.81417337059975,None,,,,,,,,,,student1,2022-10-25_10h37.17.201,Hippopolis_Updating,2022.2.2,59.95219243166023,
Hippopolis,stimuli/subj_files/student1_cityA.csv,./stimuli/frankfurt.jpg,./stimuli/street_plate1.png,FIÓK UTCA,stimuli/scenes/002a.jpg,scene,1,stimuli/scenes/014a.jpg,stimuli/scenes/014a.jpg,stimuli/objects/004a.jpg,stimuli/objects/004b.jpg,stimuli/scenes/014b.jpg,target,dist1,dist2,lure,0,0,0,0,0,66,66,73,,,,,,,438.7760825511068,439.79911817237735,439.79911817237735,439.79911817237735,439.79911817237735,442.80461085774004,442.80461085774004,442.80461085774004,442.80461085774004,None,,,,,,,,,,student1,2022-10-25_10h37.17.201,Hippopolis_Updating,2022.2.2,59.95219243166023,
Hippopolis,stimuli/subj_files/student1_cityA.csv,./stimuli/frankfurt.jpg,./stimuli/street_plate1.png,LAKAT UTCA,stimuli/objects/066a.jpg,object,2,stimuli/scenes/084a.jpg,stimuli/scenes/084b.jpg,stimuli/scenes/034a.jpg,stimuli/scenes/084a.jpg,stimuli/scenes/034b.jpg,lure,dist1,target,dist2,0,0,0,0,0,67,67,58,,,,,,,444.79297548532486,445.81682376749814,445.81682376749814,445.81682376749814,445.81682376749814,448.81222087331116,448.81222087331116,448.81222087331116,448.81222087331116,None,,,,,,,,,,student1,2022-10-25_10h37.17.201,Hippopolis_Updating,2022.2.2,59.95219243166023,
Hippopolis,stimuli/subj_files/student1_cityA.csv,./stimuli/frankfurt.jpg,./stimuli/street_plate1.png,POGÁCSA UTCA,stimuli/scenes/046a.jpg,scene,0,stimuli/scenes/046a.jpg,stimuli/scenes/042a.jpg,stimuli/scenes/046a.jpg,stimuli/scenes/046b.jpg,stimuli/scenes/042b.jpg,dist1,target,lure,dist2,0,0,0,0,0,68,68,49,,,,,,,450.7944508995861,451.8154394775629,451.8154394775629,451.8154394775629,451.8154394775629,454.81757204793394,454.81757204793394,454.81757204793394,454.81757204793394,None,,,,,,,,,,student1,2022-10-25_10h37.17.201,Hippopolis_Updating,2022.2.2,59.95219243166023,
Hippopolis,stimuli/subj_files/student1_cityA.csv,./stimuli/frankfurt.jpg,./stimuli/street_plate1.png,MUSTÁR UTCA,stimuli/scenes/050a.jpg,scene,0,stimuli/scenes/050a.jpg,stimuli/objects/009a.jpg,stimuli/objects/009b.jpg,stimuli/scenes/050a.jpg,stimuli/scenes/050b.jpg,dist1,dist2,target,lure,0,0,0,0,0,69,69,78,,,,,,,456.8019551727921,457.8308905865997,457.8308905865997,457.8308905865997,457.8308905865997,460.83192281611264,460.83192281611264,460.83192281611264,460.83192281611264,None,,,,,,,,,,student1,2022-10-25_10h37.17.201,Hippopolis_Updating,2022.2.2,59.95219243166023,
Hippopolis,stimuli/subj_files/student1_cityA.csv,./stimuli/frankfurt.jpg,./stimuli/street_plate1.png,BÖGRE UTCA,stimuli/objects/050a.jpg,object,1,stimuli/objects/076a.jpg,stimuli/scenes/037a.jpg,stimuli/objects/076a.jpg,stimuli/objects/076b.jpg,stimuli/scenes/037b.jpg,dist1,target,lure,dist2,0,0,0,0,0,70,70,41,,,,,,,462.8081995602697,463.83215731568635,463.83215731568635,463.83215731568635,463.83215731568635,466.83165783807635,466.83165783807635,466.83165783807635,466.83165783807635,None,,,,,,,,,,student1,2022-10-25_10h37.17.201,Hippopolis_Updating,2022.2.2,59.95219243166023,
Hippopolis,stimuli/subj_files/student1_cityA.csv,./stimuli/frankfurt.jpg,./stimuli/street_plate1.png,PETÁRDA UTCA,stimuli/objects/009a.jpg,object,0,stimuli/objects/009a.jpg,stimuli/objects/009a.jpg,stimuli/scenes/051a.jpg,stimuli/objects/009b.jpg,stimuli/scenes/051b.jpg,target,dist1,lure,dist2,0,0,0,0,0,71,71,64,,,,,,,468.8251419439912,469.8481421098113,469.8481421098113,469.8481421098113,469.8481421098113,472.84884933941066,472.84884933941066,472.84884933941066,472.84884933941066,None,,,,,,,,,,student1,2022-10-25_10h37.17.201,Hippopolis_Updating,2022.2.2,59.95219243166023,
Hippopolis,stimuli/subj_files/student1_cityA.csv,./stimuli/frankfurt.jpg,./stimuli/street_plate1.png,KIRAKÓ UTCA,stimuli/objects/079a.jpg,object,2,stimuli/scenes/070a.jpg,stimuli/scenes/070a.jpg,stimuli/scenes/070b.jpg,stimuli/objects/043b.jpg,stimuli/objects/043a.jpg,target,lure,dist2,dist1,0,0,0,0,0,72,72,57,,,,,,,474.835983004421,475.8663428276777,475.8663428276777,475.8663428276777,475.8663428276777,478.86983698420227,478.86983698420227,478.86983698420227,478.86983698420227,None,,,,,,,,,,student1,2022-10-25_10h37.17.201,Hippopolis_Updating,2022.2.2,59.95219243166023,
Hippopolis,stimuli/subj_files/student1_cityA.csv,./stimuli/frankfurt.jpg,./stimuli/street_plate1.png,KULLANCS UTCA,stimuli/objects/089a.jpg,object,0,stimuli/objects/089a.jpg,stimuli/scenes/072a.jpg,stimuli/objects/089a.jpg,stimuli/scenes/072b.jpg,stimuli/objects/089b.jpg,dist1,target,dist2,lure,0,0,0,0,0,73,73,34,,,,,,,480.84666887298226,481.87019308656454,481.87019308656454,481.87019308656454,481.87019308656454,484.88623137399554,484.88623137399554,484.88623137399554,484.88623137399554,None,,,,,,,,,,student1,2022-10-25_10h37.17.201,Hippopolis_Updating,2022.2.2,59.95219243166023,
Hippopolis,stimuli/subj_files/student1_cityA.csv,./stimuli/frankfurt.jpg,./stimuli/street_plate1.png,PAPAGÁJ UTCA,stimuli/objects/093a.jpg,object,2,stimuli/scenes/097a.jpg,stimuli/scenes/097a.jpg,stimuli/scenes/109b.jpg,stimuli/scenes/109a.jpg,stimuli/scenes/097b.jpg,target,dist2,dist1,lure,0,0,0,0,0,74,74,55,,,,,,,486.8606532756239,487.8820694871247,487.8820694871247,487.8820694871247,487.8820694871247,490.88593156449497,490.88593156449497,490.88593156449497,490.88593156449497,None,,,,,,,,,,student1,2022-10-25_10h37.17.201,Hippopolis_Updating,2022.2.2,59.95219243166023,
Hippopolis,stimuli/subj_files/student1_cityA.csv,./stimuli/frankfurt.jpg,./stimuli/street_plate1.png,BAGOLY UTCA,stimuli/scenes/029a.jpg,scene,2,stimuli/objects/028a.jpg,stimuli/objects/028b.jpg,stimuli/objects/028a.jpg,stimuli/scenes/028a.jpg,stimuli/scenes/028b.jpg,lure,target,dist1,dist2,0,0,0,0,0,75,75,21,,,,,,,492.8650956917554,493.89447086676955,493.89447086676955,493.89447086676955,493.89447086676955,496.89613537304103,496.89613537304103,496.89613537304103,496.89613537304103,None,,,,,,,,,,student1,2022-10-25_10h37.17.201,Hippopolis_Updating,2022.2.2,59.95219243166023,
Hippopolis,stimuli/subj_files/student1_cityA.csv,./stimuli/frankfurt.jpg,./stimuli/street_plate1.png,CSILLAG UTCA,stimuli/scenes/083a.jpg,scene,1,stimuli/scenes/117a.jpg,stimuli/scenes/117a.jpg,stimuli/scenes/117b.jpg,stimuli/objects/041a.jpg,stimuli/objects/041b.jpg,target,lure,dist1,dist2,0,0,0,0,0,76,76,15,,,,,,,498.8700689934194,499.90430986508727,499.90430986508727,499.90430986508727,499.90430986508727,502.9105800651014,502.9105800651014,502.9105800651014,502.9105800651014,None,,,,,,,,,,student1,2022-10-25_10h37.17.201,Hippopolis_Updating,2022.2.2,59.95219243166023,
Hippopolis,stimuli/subj_files/student1_cityA.csv,./stimuli/frankfurt.jpg,./stimuli/street_plate1.png,AKÁC UTCA,stimuli/scenes/081a.jpg,scene,2,stimuli/objects/055a.jpg,stimuli/objects/055b.jpg,stimuli/objects/107b.jpg,stimuli/objects/107a.jpg,stimuli/objects/055a.jpg,lure,dist2,dist1,target,0,0,0,0,0,77,77,74,,,,,,,504.87751293182373,505.898875027895,505.898875027895,505.898875027895,505.898875027895,508.8957886006683,508.8957886006683,508.8957886006683,508.8957886006683,None,,,,,,,,,,student1,2022-10-25_10h37.17.201,Hippopolis_Updating,2022.2.2,59.95219243166023,
Hippopolis,stimuli/subj_files/student1_cityA.csv,./stimuli/frankfurt.jpg,./stimuli/street_plate1.png,VASALÓ UTCA,stimuli/objects/025a.jpg,object,2,stimuli/scenes/056a.jpg,stimuli/scenes/044a.jpg,stimuli/scenes/056b.jpg,stimuli/scenes/056a.jpg,stimuli/scenes/044b.jpg,dist1,lure,target,dist2,0,0,0,0,0,78,78,70,,,,,,,510.8938867971301,511.9142020456493,511.9142020456493,511.9142020456493,511.9142020456493,514.9337861184031,514.9337861184031,514.9337861184031,514.9337861184031,None,,,,,,,,,,student1,2022-10-25_10h37.17.201,Hippopolis_Updating,2022.2.2,59.95219243166023,
Hippopolis,stimuli/subj_files/student1_cityA.csv,./stimuli/frankfurt.jpg,./stimuli/street_plate1.png,ÁRNYÉK UTCA,stimuli/objects/020a.jpg,object,1,stimuli/objects/027a.jpg,stimuli/scenes/004a.jpg,stimuli/objects/027b.jpg,stimuli/objects/027a.jpg,stimuli/scenes/004b.jpg,dist1,lure,target,dist2,0,0,0,0,0,79,79,52,,,,,,,516.9050845820457,517.9377446062863,517.9377446062863,517.9377446062863,517.9377446062863,520.949828138575,520.949828138575,520.949828138575,520.949828138575,None,,,,,,,,,,student1,2022-10-25_10h37.17.201,Hippopolis_Updating,2022.2.2,59.95219243166023,
Camponello,stimuli/subj_files/student1_cityB.csv,./stimuli/leipzig.jpg,./stimuli/street_plate2.png,SZŐNYEG UTCA,stimuli/objects/040a.jpg,object,0,stimuli/objects/040a.jpg,stimuli/objects/040a.jpg,stimuli/objects/040b.jpg,stimuli/objects/019b.jpg,stimuli/objects/019a.jpg,target,lure,dist2,dist1,0,1,1,1,0,0,0,29,,,,,547.4902910031378,547.4902910031378,550.4924360141158,551.4892640598118,551.4892640598118,551.4892640598118,551.4892640598118,554.4791551083326,554.4791551083326,554.4791551083326,554.4791551083326,None,,,,,522.9104584623128,522.9104584623128,space,24.51145115867257,,student1,2022-10-25_10h37.17.201,Hippopolis_Updating,2022.2.2,59.95219243166023,
Camponello,stimuli/subj_files/student1_cityB.csv,./stimuli/leipzig.jpg,./stimuli/street_plate2.png,KUTYA UTCA,stimuli/scenes/030a.jpg,scene,0,stimuli/scenes/030a.jpg,stimuli/scenes/030b.jpg,stimuli/scenes/052b.jpg,stimuli/scenes/052a.jpg,stimuli/scenes/030a.jpg,lure,dist2,dist1,target,0,1,1,1,0,1,1,35,,,,,,,556.4636424202472,557.494907271117,557.494907271117,557.494907271117,557.494907271117,560.4855360258371,560.4855360258371,560.4855360258371,560.4855360258371,None,,,,,,,,,,student1,2022-10-25_10h37.17.201,Hippopolis_Updating,2022.2.2,59.95219243166023,
Camponello,stimuli/subj_files/student1_cityB.csv,./stimuli/leipzig.jpg,./stimuli/street_plate2.png,ORVOS UTCA,stimuli/objects/016a.jpg,object,0,stimuli/objects/016a.jpg,stimuli/scenes/089a.jpg,stimuli/scenes/089b.jpg,stimuli/objects/016a.jpg,stimuli/objects/016b.jpg,dist1,dist2,target,lure,0,1,1,1,0,2,2,4,,,,,,,562.4745640326291,563.4970090519637,563.4970090519637,563.4970090519637,563.4970090519637,566.4924353919923,566.4924353919923,566.4924353919923,566.4924353919923,None,,,,,,,,,,student1,2022-10-25_10h37.17.201,Hippopolis_Updating,2022.2.2,59.95219243166023,
Camponello,stimuli/subj_files/student1_cityB.csv,./stimuli/leipzig.jpg,./stimuli/street_plate2.png,TULIPÁN UTCA,stimuli/objects/058a.jpg,object,0,stimuli/objects/058a.jpg,stimuli/objects/117a.jpg,stimuli/objects/117b.jpg,stimuli/objects/058b.jpg,stimuli/objects/058a.jpg,dist1,dist2,lure,target,0,1,1,1,0,3,3,1,,,,,,,568.4798172414303,569.4995104763657,569.4995104763657,569.4995104763657,569.4995104763657,572.5061143860221,572.5061143860221,572.5061143860221,572.5061143860221,None,,,,,,,,,,student1,2022-10-25_10h37.17.201,Hippopolis_Updating,2022.2.2,59.95219243166023,
Camponello,stimuli/subj_files/student1_cityB.csv,./stimuli/leipzig.jpg,./stimuli/street_plate2.png,SAJTÓ UTCA,stimuli/scenes/112a.jpg,scene,0,stimuli/scenes/112a.jpg,stimuli/objects/018a.jpg,stimuli/scenes/112b.jpg,stimuli/scenes/112a.jpg,stimuli/objects/018b.jpg,dist1,lure,target,dist2,0,1,1,1,0,4,4,15,,,,,,,574.4855913855135,575.5121699925512,575.5121699925512,575.5121699925512,575.5121699925512,578.5178977958858,578.5178977958858,578.5178977958858,578.5178977958858,None,,,,,,,,,,student1,2022-10-25_10h37.17.201,Hippopolis_Updating,2022.2.2,59.95219243166023,
Camponello,stimuli/subj_files/student1_cityB.csv,./stimuli/leipzig.jpg,./stimuli/street_plate2.png,KOCSI UTCA,stimuli/scenes/114a.jpg,scene,0,stimuli/scenes/114a.jpg,stimuli/objects/082b.jpg,stimuli/scenes/114b.jpg,stimuli/scenes/114a.jpg,stimuli/objects/082a.jpg,dist2,lure,target,dist1,0,1,1,1,0,5,5,69,,,,,,,580.4913387838751,581.513907585293,581.513907585293,581.513907585293,581.513907585293,584.5207176916301,584.5207176916301,584.5207176916301,584.5207176916301,None,,,,,,,,,,student1,2022-10-25_10h37.17.201,Hippopolis_Updating,2022.2.2,59.95219243166023,
Camponello,stimuli/subj_files/student1_cityB.csv,./stimuli/leipzig.jpg,./stimuli/street_plate2.png,BETON UTCA,stimuli/objects/104a.jpg,object,2,stimuli/scenes/063a.jpg,stimuli/scenes/063b.jpg,stimuli/scenes/063a.jpg,stimuli/objects/054a.jpg,stimuli/objects/054b.jpg,lure,target,dist1,dist2,0,1,1,1,0,6,6,52,,,,,,,586.5016107019037,587.5301847252995,587.5301847252995,587.5301847252995,587.5301847252995,590.5510246418417,590.5510246418417,590.5510246418417,590.5510246418417,None,,,,,,,,,,student1,2022-10-25_10h37.17.201,Hippopolis_Updating,2022.2.2,59.95219243166023,
Camponello,stimuli/subj_files/student1_cityB.csv,./stimuli/leipzig.jpg,./stimuli/street_plate2.png,LEMEZ UTCA,stimuli/scenes/022a.jpg,scene,0,stimuli/scenes/022a.jpg,stimuli/scenes/077b.jpg,stimuli/scenes/022a.jpg,stimuli/scenes/022b.jpg,stimuli/scenes/077a.jpg,dist2,target,lure,dist1,0,1,1,1,0,7,7,13,,,,,,,592.5177786815912,593.5453179869801,593.5453179869801,593.5453179869801,593.5453179869801,596.5406970530748,596.5406970530748,596.5406970530748,596.5406970530748,None,,,,,,,,,,student1,2022-10-25_10h37.17.201,Hippopolis_Updating,2022.2.2,59.95219243166023,
Camponello,stimuli/subj_files/student1_cityB.csv,./stimuli/leipzig.jpg,./stimuli/street_plate2.png,POLIP UTCA,stimuli/scenes/077a.jpg,scene,0,stimuli/scenes/077a.jpg,stimuli/scenes/077b.jpg,stimuli/scenes/077a.jpg,stimuli/scenes/091b.jpg,stimuli/scenes/091a.jpg,lure,target,dist2,dist1,0,1,1,1,0,8,8,49,,,,,,,598.528483832255,599.549666788429,599.549666788429,599.549666788429,599.549666788429,602.5656602922827,602.5656602922827,602.5656602922827,602.5656602922827,None,,,,,,,,,,student1,2022-10-25_10h37.17.201,Hippopolis_Updating,2022.2.2,59.95219243166023,
Camponello,stimuli/subj_files/student1_cityB.csv,./stimuli/leipzig.jpg,./stimuli/street_plate2.png,BÚJÓCSKA UTCA,stimuli/scenes/015a.jpg,scene,1,stimuli/scenes/086a.jpg,stimuli/scenes/105b.jpg,stimuli/scenes/086a.jpg,stimuli/scenes/105a.jpg,stimuli/scenes/086b.jpg,dist2,target,dist1,lure,0,1,1,1,0,9,9,48,,,,,,,604.5351458992809,605.5654233060777,605.5654233060777,605.5654233060777,605.5654233060777,608.5562728755176,608.5562728755176,608.5562728755176,608.5562728755176,None,,,,,,,,,,student1,2022-10-25_10h37.17.201,Hippopolis_Updating,2022.2.2,59.95219243166023,
Camponello,stimuli/subj_files/student1_cityB.csv,./stimuli/leipzig.jpg,./stimuli/street_plate2.png,SZŐLŐ UTCA,stimuli/scenes/099a.jpg,scene,0,stimuli/scenes/099a.jpg,stimuli/objects/105a.jpg,stimuli/scenes/099a.jpg,stimuli/scenes/099b.jpg,stimuli/objects/105b.jpg,dist1,target,lure,dist2,0,1,1,1,0,10,10,55,,,,,,,610.5430140513927,611.5652497634292,611.5652497634292,611.5652497634292,611.5652497634292,614.5733897332102,614.5733897332102,614.5733897332102,614.5733897332102,None,,,,,,,,,,student1,2022-10-25_10h37.17.201,Hippopolis_Updating,2022.2.2,59.95219243166023,
Camponello,stimuli/subj_files/student1_cityB.csv,./stimuli/leipzig.jpg,./stimuli/street_plate2.png,VITORLA UTCA,stimuli/scenes/110a.jpg,scene,1,stimuli/scenes/062a.jpg,stimuli/scenes/107a.jpg,stimuli/scenes/107b.jpg,stimuli/scenes/062b.jpg,stimuli/scenes/062a.jpg,dist1,dist2,lure,target,0,1,1,1,0,11,11,45,,,,,,,616.5593229141086,617.5834489241242,617.5834489241242,617.5834489241242,617.5834489241242,620.6018912922591,620.6018912922591,620.6018912922591,620.6018912922591,None,,,,,,,,,,student1,2022-10-25_10h37.17.201,Hippopolis_Updating,2022.2.2,59.95219243166023,
Camponello,stimuli/subj_files/student1_cityB.csv,./stimuli/leipzig.jpg,./stimuli/street_plate2.png,SZÖCSKE UTCA,stimuli/scenes/026a.jpg,scene,2,stimuli/objects/061a.jpg,stimuli/scenes/063a.jpg,stimuli/objects/061a.jpg,stimuli/scenes/063b.jpg,stimuli/objects/061b.jpg,dist1,target,dist2,lure,0,1,1,1,0,12,12,71,,,,,,,622.5674041043967,623.595978749916,623.595978749916,623.595978749916,623.595978749916,626.6159976087511,626.6159976087511,626.6159976087511,626.6159976087511,None,,,,,,,,,,student1,2022-10-25_10h37.17.201,Hippopolis_Updating,2022.2.2,59.95219243166023,
Camponello,stimuli/subj_files/student1_cityB.csv,./stimuli/leipzig.jpg,./stimuli/street_plate2.png,PÁRNA UTCA,stimuli/objects/112a.jpg,object,0,stimuli/objects/112a.jpg,stimuli/objects/112b.jpg,stimuli/scenes/032b.jpg,stimuli/scenes/032a.jpg,stimuli/objects/112a.jpg,lure,dist2,dist1,target,0,1,1,1,0,13,13,77,,,,,,,628.5760301779956,629.598041344434,629.598041344434,629.598041344434,629.598041344434,632.6012017913163,632.6012017913163,632.6012017913163,632.6012017913163,None,,,,,,,,,,student1,2022-10-25_10h37.17.201,Hippopolis_Updating,2022.2.2,59.95219243166023,
Camponello,stimuli/subj_files/student1_cityB.csv,./stimuli/leipzig.jpg,./stimuli/street_plate2.png,FEJSZE UTCA,stimuli/objects/065a.jpg,object,0,stimuli/objects/065a.jpg,stimuli/scenes/075b.jpg,stimuli/objects/065b.jpg,stimuli/objects/065a.jpg,stimuli/scenes/075a.jpg,dist2,lure,target,dist1,0,1,1,1,0,14,14,9,,,,,,,634.592336865142,635.6139987707138,635.6139987707138,635.6139987707138,635.6139987707138,638.6163338068873,638.6163338068873,638.6163338068873,638.6163338068873,None,,,,,,,,,,student1,2022-10-25_10h37.17.201,Hippopolis_Updating,2022.2.2,59.95219243166023,
Camponello,stimuli/subj_files/student1_cityB.csv,./stimuli/leipzig.jpg,./stimuli/street_plate2.png,TÉRKÉP UTCA,stimuli/scenes/013a.jpg,scene,0,stimuli/scenes/013a.jpg,stimuli/scenes/006b.jpg,stimuli/scenes/006a.jpg,stimuli/scenes/013a.jpg,stimuli/scenes/013b.jpg,dist2,dist1,target,lure,0,1,1,1,0,15,15,63,,,,,,,640.5999126695096,641.625281771645,641.625281771645,641.625281771645,641.625281771645,644.6244317926466,644.6244317926466,644.6244317926466,644.6244317926466,None,,,,,,,,,,student1,2022-10-25_10h37.17.201,Hippopolis_Updating,2022.2.2,59.95219243166023,
Camponello,stimuli/subj_files/student1_cityB.csv,./stimuli/leipzig.jpg,./stimuli/street_plate2.png,GYŰRŰ UTCA,stimuli/objects/056a.jpg,object,1,stimuli/objects/013a.jpg,stimuli/objects/013b.jpg,stimuli/objects/087b.jpg,stimuli/objects/013a.jpg,stimuli/objects/087a.jpg,lure,dist2,target,dist1,0,1,1,1,0,16,16,22,,,,,,,646.6109446883202,647.633673036471,647.633673036471,647.633673036471,647.633673036471,650.6675391439348,650.6675391439348,650.6675391439348,650.6675391439348,None,,,,,,,,,,student1,2022-10-25_10h37.17.201,Hippopolis_Updating,2022.2.2,59.95219243166023,
Camponello,stimuli/subj_files/student1_cityB.csv,./stimuli/leipzig.jpg,./stimuli/street_plate2.png,SZOBOR UTCA,stimuli/objects/031a.jpg,object,1,stimuli/objects/010a.jpg,stimuli/objects/010a.jpg,stimuli/objects/044b.jpg,stimuli/objects/044a.jpg,stimuli/objects/010b.jpg,target,dist2,dist1,lure,0,1,1,1,0,17,17,79,,,,,,,652.6171268746257,653.6448524724692,653.6448524724692,653.6448524724692,653.6448524724692,656.657650385052,656.657650385052,656.657650385052,656.657650385052,None,,,,,,,,,,student1,2022-10-25_10h37.17.201,Hippopolis_Updating,2022.2.2,59.95219243166023,
Camponello,stimuli/subj_files/student1_cityB.csv,./stimuli/leipzig.jpg,./stimuli/street_plate2.png,TISZTÁS UTCA,stimuli/objects/116a.jpg,object,0,stimuli/objects/116a.jpg,stimuli/objects/058a.jpg,stimuli/objects/116a.jpg,stimuli/objects/116b.jpg,stimuli/objects/058b.jpg,dist1,target,lure,dist2,0,1,1,1,0,18,18,18,,,,,,,658.6258894782513,659.6507849190384,659.6507849190384,659.6507849190384,659.6507849190384,662.6594825237989,662.6594825237989,662.6594825237989,662.6594825237989,None,,,,,,,,,,student1,2022-10-25_10h37.17.201,Hippopolis_Updating,2022.2.2,59.95219243166023,
Camponello,stimuli/subj_files/student1_cityB.csv,./stimuli/leipzig.jpg,./stimuli/street_plate2.png,BANÁN UTCA,stimuli/scenes/045a.jpg,scene,0,stimuli/scenes/045a.jpg,stimuli/scenes/045b.jpg,stimuli/scenes/045a.jpg,stimuli/scenes/112b.jpg,stimuli/scenes/112a.jpg,lure,target,dist2,dist1,0,1,1,1,0,19,19,57,,,,,,,664.6338857635856,665.6601511873305,665.6601511873305,665.6601511873305,665.6601511873305,668.6665999051183,668.6665999051183,668.6665999051183,668.6665999051183,None,,,,,,,,,,student1,2022-10-25_10h37.17.201,Hippopolis_Updating,2022.2.2,59.95219243166023,
Camponello,stimuli/subj_files/student1_cityB.csv,./stimuli/leipzig.jpg,./stimuli/street_plate2.png,LOVAGLÁS UTCA,stimuli/objects/019a.jpg,object,0,stimuli/objects/019a.jpg,stimuli/objects/019b.jpg,stimuli/objects/019a.jpg,stimuli/scenes/017b.jpg,stimuli/scenes/017a.jpg,lure,target,dist2,dist1,0,1,1,1,0,20,20,53,,,,,,,670.6349027547985,671.6663644723594,671.6663644723594,671.6663644723594,671.6663644723594,674.6609056890011,674.6609056890011,674.6609056890011,674.6609056890011,None,,,,,,,,,,student1,2022-10-25_10h37.17.201,Hippopolis_Updating,2022.2.2,59.95219243166023,
Camponello,stimuli/subj_files/student1_cityB.csv,./stimuli/leipzig.jpg,./stimuli/street_plate2.png,HENTES UTCA,stimuli/scenes/092a.jpg,scene,0,stimuli/scenes/092a.jpg,stimuli/scenes/114b.jpg,stimuli/scenes/114a.jpg,stimuli/scenes/092a.jpg,stimuli/scenes/092b.jpg,dist2,dist1,target,lure,0,1,1,1,0,21,21,46,,,,,,,676.643346266821,677.6639815419912,677.6639815419912,677.6639815419912,677.6639815419912,680.6698710694909,680.6698710694909,680.6698710694909,680.6698710694909,None,,,,,,,,,,student1,2022-10-25_10h37.17.201,Hippopolis_Updating,2022.2.2,59.95219243166023,
Camponello,stimuli/subj_files/student1_cityB.csv,./stimuli/leipzig.jpg,./stimuli/street_plate2.png,TERÍTŐ UTCA,stimuli/objects/098a.jpg,object,1,stimuli/objects/096a.jpg,stimuli/objects/096b.jpg,stimuli/objects/096a.jpg,stimuli/objects/013b.jpg,stimuli/objects/013a.jpg,lure,target,dist2,dist1,0,1,1,1,0,22,22,39,,,,,,,682.6579234488308,683.6833827421069,683.6833827421069,683.6833827421069,683.6833827421069,686.6932065021247,686.6932065021247,686.6932065021247,686.6932065021247,None,,,,,,,,,,student1,2022-10-25_10h37.17.201,Hippopolis_Updating,2022.2.2,59.95219243166023,
Camponello,stimuli/subj_files/student1_cityB.csv,./stimuli/leipzig.jpg,./stimuli/street_plate2.png,LÉPCSŐ UTCA,stimuli/objects/049a.jpg,object,0,stimuli/objects/049a.jpg,stimuli/scenes/076b.jpg,stimuli/scenes/076a.jpg,stimuli/objects/049b.jpg,stimuli/objects/049a.jpg,dist2,dist1,lure,target,0,1,1,1,0,23,23,43,,,,,,,688.6596283856779,689.6836495865136,689.6836495865136,689.6836495865136,689.6836495865136,692.6909131407738,692.6909131407738,692.6909131407738,692.6909131407738,None,,,,,,,,,,student1,2022-10-25_10h37.17.201,Hippopolis_Updating,2022.2.2,59.95219243166023,
Camponello,stimuli/subj_files/student1_cityB.csv,./stimuli/leipzig.jpg,./stimuli/street_plate2.png,KANÁL UTCA,stimuli/scenes/057a.jpg,scene,1,stimuli/scenes/020a.jpg,stimuli/scenes/020b.jpg,stimuli/scenes/020a.jpg,stimuli/scenes/062a.jpg,stimuli/scenes/062b.jpg,lure,target,dist1,dist2,0,1,1,1,0,24,24,14,,,,,,,694.6749448273331,695.6963880974799,695.6963880974799,695.6963880974799,695.6963880974799,698.7251425031573,698.7251425031573,698.7251425031573,698.7251425031573,None,,,,,,,,,,student1,2022-10-25_10h37.17.201,Hippopolis_Updating,2022.2.2,59.95219243166023,
Camponello,stimuli/subj_files/student1_cityB.csv,./stimuli/leipzig.jpg,./stimuli/street_plate2.png,KÍGYÓ UTCA,stimuli/scenes/032a.jpg,scene,0,stimuli/scenes/032a.jpg,stimuli/scenes/032a.jpg,stimuli/objects/088a.jpg,stimuli/scenes/032b.jpg,stimuli/objects/088b.jpg,target,dist1,lure,dist2,0,1,1,1,0,25,25,76,,,,,,,700.6879417859018,701.7165736556053,701.7165736556053,701.7165736556053,701.7165736556053,704.7150534559041,704.7150534559041,704.7150534559041,704.7150534559041,None,,,,,,,,,,student1,2022-10-25_10h37.17.201,Hippopolis_Updating,2022.2.2,59.95219243166023,
Camponello,stimuli/subj_files/student1_cityB.csv,./stimuli/leipzig.jpg,./stimuli/street_plate2.png,MOSODA UTCA,stimuli/objects/052a.jpg,object,0,stimuli/objects/052a.jpg,stimuli/objects/052b.jpg,stimuli/scenes/035a.jpg,stimuli/objects/052a.jpg,stimuli/scenes/035b.jpg,lure,dist1,target,dist2,0,1,1,1,0,26,26,51,,,,,,,706.6919413283467,707.711999995634,707.711999995634,707.711999995634,707.711999995634,710.7381568774581,710.7381568774581,710.7381568774581,710.7381568774581,None,,,,,,,,,,student1,2022-10-25_10h37.17.201,Hippopolis_Updating,2022.2.2,59.95219243166023,
Camponello,stimuli/subj_files/student1_cityB.csv,./stimuli/leipzig.jpg,./stimuli/street_plate2.png,KALAPÁCS UTCA,stimuli/scenes/049a.jpg,scene,0,stimuli/scenes/049a.jpg,stimuli/objects/112b.jpg,stimuli/scenes/049a.jpg,stimuli/objects/112a.jpg,stimuli/scenes/049b.jpg,dist2,target,dist1,lure,0,1,1,1,0,27,27,3,,,,,,,712.6941976789385,713.7176043316722,713.7176043316722,713.7176043316722,713.7176043316722,716.7160122897476,716.7160122897476,716.7160122897476,716.7160122897476,None,,,,,,,,,,student1,2022-10-25_10h37.17.201,Hippopolis_Updating,2022.2.2,59.95219243166023,
Camponello,stimuli/subj_files/student1_cityB.csv,./stimuli/leipzig.jpg,./stimuli/street_plate2.png,SÜTEMÉNY UTCA,stimuli/objects/074a.jpg,object,2,stimuli/scenes/102a.jpg,stimuli/objects/061b.jpg,stimuli/objects/061a.jpg,stimuli/scenes/102a.jpg,stimuli/scenes/102b.jpg,dist2,dist1,target,lure,0,1,1,1,0,28,28,32,,,,,,,718.7119035832584,719.7437612116337,719.7437612116337,719.7437612116337,719.7437612116337,722.7405009325594,722.7405009325594,722.7405009325594,722.7405009325594,None,,,,,,,,,,student1,2022-10-25_10h37.17.201,Hippopolis_Updating,2022.2.2,59.95219243166023,
Camponello,stimuli/subj_files/student1_cityB.csv,./stimuli/leipzig.jpg,./stimuli/street_plate2.png,TÁSKA UTCA,stimuli/objects/110a.jpg,object,2,stimuli/scenes/079a.jpg,stimuli/scenes/079a.jpg,stimuli/objects/037b.jpg,stimuli/objects/037a.jpg,stimuli/scenes/079b.jpg,target,dist2,dist1,lure,0,1,1,1,0,29,29,33,,,,,,,724.7248980533332,725.7473520915955,725.7473520915955,725.7473520915955,725.7473520915955,728.7670798487961,728.7670798487961,728.7670798487961,728.7670798487961,None,,,,,,,,,,student1,2022-10-25_10h37.17.201,Hippopolis_Updating,2022.2.2,59.95219243166023,
Camponello,stimuli/subj_files/student1_cityB.csv,./stimuli/leipzig.jpg,./stimuli/street_plate2.png,ECSET UTCA,stimuli/scenes/003a.jpg,scene,2,stimuli/objects/005a.jpg,stimuli/objects/035b.jpg,stimuli/objects/005b.jpg,stimuli/objects/035a.jpg,stimuli/objects/005a.jpg,dist2,lure,dist1,target,0,1,1,1,0,30,30,11,,,,,,,730.7332423534244,731.7615750357509,731.7615750357509,731.7615750357509,731.7615750357509,734.7772942334414,734.7772942334414,734.7772942334414,734.7772942334414,None,,,,,,,,,,student1,2022-10-25_10h37.17.201,Hippopolis_Updating,2022.2.2,59.95219243166023,
Camponello,stimuli/subj_files/student1_cityB.csv,./stimuli/leipzig.jpg,./stimuli/street_plate2.png,SZAPPAN UTCA,stimuli/objects/023a.jpg,object,1,stimuli/objects/087a.jpg,stimuli/scenes/012b.jpg,stimuli/objects/087b.jpg,stimuli/objects/087a.jpg,stimuli/scenes/012a.jpg,dist2,lure,target,dist1,0,1,1,1,0,31,31,7,,,,,,,736.7445611208677,737.7677143029869,737.7677143029869,737.7677143029869,737.7677143029869,740.7856858074665,740.7856858074665,740.7856858074665,740.7856858074665,None,,,,,,,,,,student1,2022-10-25_10h37.17.201,Hippopolis_Updating,2022.2.2,59.95219243166023,
Camponello,stimuli/subj_files/student1_cityB.csv,./stimuli/leipzig.jpg,./stimuli/street_plate2.png,MANDARIN UTCA,stimuli/scenes/075a.jpg,scene,0,stimuli/scenes/075a.jpg,stimuli/objects/072a.jpg,stimuli/objects/072b.jpg,stimuli/scenes/075b.jpg,stimuli/scenes/075a.jpg,dist1,dist2,lure,target,0,1,1,1,0,32,32,37,,,,,,,742.7525580283254,743.7852818090469,743.7852818090469,743.7852818090469,743.7852818090469,746.7767667658627,746.7767667658627,746.7767667658627,746.7767667658627,None,,,,,,,,,,student1,2022-10-25_10h37.17.201,Hippopolis_Updating,2022.2.2,59.95219243166023,
Camponello,stimuli/subj_files/student1_cityB.csv,./stimuli/leipzig.jpg,./stimuli/street_plate2.png,FÜGE UTCA,stimuli/scenes/115a.jpg,scene,0,stimuli/scenes/115a.jpg,stimuli/scenes/115b.jpg,stimuli/scenes/115a.jpg,stimuli/objects/084b.jpg,stimuli/objects/084a.jpg,lure,target,dist2,dist1,0,1,1,1,0,33,33,47,,,,,,,748.7597870603204,749.7799306344241,749.7799306344241,749.7799306344241,749.7799306344241,752.7892832178622,752.7892832178622,752.7892832178622,752.7892832178622,None,,,,,,,,,,student1,2022-10-25_10h37.17.201,Hippopolis_Updating,2022.2.2,59.95219243166023,
Camponello,stimuli/subj_files/student1_cityB.csv,./stimuli/leipzig.jpg,./stimuli/street_plate2.png,MAJOM UTCA,stimuli/objects/018a.jpg,object,0,stimuli/objects/018a.jpg,stimuli/objects/018a.jpg,stimuli/scenes/092b.jpg,stimuli/objects/018b.jpg,stimuli/scenes/092a.jpg,target,dist2,lure,dist1,0,1,1,1,0,34,34,78,,,,,,,754.7741748392582,755.8007630854845,755.8007630854845,755.8007630854845,755.8007630854845,758.7922735437751,758.7922735437751,758.7922735437751,758.7922735437751,None,,,,,,,,,,student1,2022-10-25_10h37.17.201,Hippopolis_Updating,2022.2.2,59.95219243166023,
Camponello,stimuli/subj_files/student1_cityB.csv,./stimuli/leipzig.jpg,./stimuli/street_plate2.png,TENISZ UTCA,stimuli/objects/102a.jpg,object,0,stimuli/objects/102a.jpg,stimuli/objects/102b.jpg,stimuli/objects/102a.jpg,stimuli/scenes/038a.jpg,stimuli/scenes/038b.jpg,lure,target,dist1,dist2,0,1,1,1,0,35,35,75,,,,,,,760.7820827979594,761.8111056033522,761.8111056033522,761.8111056033522,761.8111056033522,764.813282025978,764.813282025978,764.813282025978,764.813282025978,None,,,,,,,,,,student1,2022-10-25_10h37.17.201,Hippopolis_Updating,2022.2.2,59.95219243166023,
Camponello,stimuli/subj_files/student1_cityB.csv,./stimuli/leipzig.jpg,./stimuli/street_plate2.png,PALACK UTCA,stimuli/scenes/033a.jpg,scene,1,stimuli/scenes/107a.jpg,stimuli/objects/119b.jpg,stimuli/scenes/107b.jpg,stimuli/objects/119a.jpg,stimuli/scenes/107a.jpg,dist2,lure,dist1,target,0,1,1,1,0,36,36,44,,,,,,,766.7991200387478,767.8165136929601,767.8165136929601,767.8165136929601,767.8165136929601,770.8160453177989,770.8160453177989,770.8160453177989,770.8160453177989,None,767.8165136929601,,,,,,,,,student1,2022-10-25_10h37.17.201,Hippopolis_Updating,2022.2.2,59.95219243166023,
Camponello,stimuli/subj_files/student1_cityB.csv,./stimuli/leipzig.jpg,./stimuli/street_plate2.png,MÁRVÁNY UTCA,stimuli/scenes/023a.jpg,scene,0,stimuli/scenes/023a.jpg,stimuli/objects/030a.jpg,stimuli/scenes/023b.jpg,stimuli/objects/030b.jpg,stimuli/scenes/023a.jpg,dist1,lure,dist2,target,0,1,1,1,0,37,37,58,,,,,,,772.8157116081566,773.8456061650068,773.8456061650068,773.8456061650068,773.8456061650068,776.8490832168609,776.8490832168609,776.8490832168609,776.8490832168609,None,,,,,,,,,,student1,2022-10-25_10h37.17.201,Hippopolis_Updating,2022.2.2,59.95219243166023,
Camponello,stimuli/subj_files/student1_cityB.csv,./stimuli/leipzig.jpg,./stimuli/street_plate2.png,KAKAÓ UTCA,stimuli/objects/099a.jpg,object,1,stimuli/objects/119a.jpg,stimuli/scenes/086a.jpg,stimuli/objects/119a.jpg,stimuli/scenes/086b.jpg,stimuli/objects/119b.jpg,dist1,target,dist2,lure,0,1,1,1,0,38,38,0,,,,,,,778.8325833939016,779.8431678749621,779.8431678749621,779.8431678749621,779.8431678749621,782.8748476076871,782.8748476076871,782.8748476076871,782.8748476076871,None,,,,,,,,,,student1,2022-10-25_10h37.17.201,Hippopolis_Updating,2022.2.2,59.95219243166023,
Camponello,stimuli/subj_files/student1_cityB.csv,./stimuli/leipzig.jpg,./stimuli/street_plate2.png,FÜZET UTCA,stimuli/scenes/047a.jpg,scene,1,stimuli/scenes/012a.jpg,stimuli/scenes/012b.jpg,stimuli/objects/010b.jpg,stimuli/scenes/012a.jpg,stimuli/objects/010a.jpg,lure,dist2,target,dist1,0,1,1,1,0,39,39,56,,,,,,,784.8412965498865,785.8685257807374,785.8685257807374,785.8685257807374,785.8685257807374,788.8675383348018,788.8675383348018,788.8675383348018,788.8675383348018,None,,,,,,,,,,student1,2022-10-25_10h37.17.201,Hippopolis_Updating,2022.2.2,59.95219243166023,
Camponello,stimuli/subj_files/student1_cityB.csv,./stimuli/leipzig.jpg,./stimuli/street_plate2.png,TÁNYÉR UTCA,stimuli/objects/118a.jpg,object,0,stimuli/objects/118a.jpg,stimuli/objects/102b.jpg,stimuli/objects/102a.jpg,stimuli/objects/118b.jpg,stimuli/objects/118a.jpg,dist2,dist1,lure,target,0,1,1,1,0,40,40,28,,,,,,,790.8563700951636,791.8777147755027,791.8777147755027,791.8777147755027,791.8777147755027,794.8742675799876,794.8742675799876,794.8742675799876,794.8742675799876,None,,,,,,,,,,student1,2022-10-25_10h37.17.201,Hippopolis_Updating,2022.2.2,59.95219243166023,
Camponello,stimuli/subj_files/student1_cityB.csv,./stimuli/leipzig.jpg,./stimuli/street_plate2.png,KATONA UTCA,stimuli/objects/077a.jpg,object,0,stimuli/objects/077a.jpg,stimuli/objects/077a.jpg,stimuli/scenes/115a.jpg,stimuli/scenes/115b.jpg,stimuli/objects/077b.jpg,target,dist1,dist2,lure,0,1,1,1,0,41,41,74,,,,,,,796.860797893256,797.8816213272512,797.8816213272512,797.8816213272512,797.8816213272512,800.8895774930716,800.8895774930716,800.8895774930716,800.8895774930716,None,,,,,,,,,,student1,2022-10-25_10h37.17.201,Hippopolis_Updating,2022.2.2,59.95219243166023,
Camponello,stimuli/subj_files/student1_cityB.csv,./stimuli/leipzig.jpg,./stimuli/street_plate2.png,LEGELŐ UTCA,stimuli/objects/030a.jpg,object,0,stimuli/objects/030a.jpg,stimuli/objects/039a.jpg,stimuli/objects/030a.jpg,stimuli/objects/030b.jpg,stimuli/objects/039b.jpg,dist1,target,lure,dist2,0,1,1,1,0,42,42,70,,,,,,,802.870162608102,803.8962771911174,803.8962771911174,803.8962771911174,803.8962771911174,806.8988224677742,806.8988224677742,806.8988224677742,806.8988224677742,None,,,,,,,,,,student1,2022-10-25_10h37.17.201,Hippopolis_Updating,2022.2.2,59.95219243166023,
Camponello,stimuli/subj_files/student1_cityB.csv,./stimuli/leipzig.jpg,./stimuli/street_plate2.png,VÁSÁR UTCA,stimuli/scenes/089a.jpg,scene,0,stimuli/scenes/089a.jpg,stimuli/scenes/089a.jpg,stimuli/scenes/089b.jpg,stimuli/scenes/082b.jpg,stimuli/scenes/082a.jpg,target,lure,dist2,dist1,0,1,1,1,0,43,43,41,,,,,,,808.8854936677963,809.9105256386101,809.9105256386101,809.9105256386101,809.9105256386101,812.9276851061732,812.9276851061732,812.9276851061732,812.9276851061732,None,,,,,,,,,,student1,2022-10-25_10h37.17.201,Hippopolis_Updating,2022.2.2,59.95219243166023,
Camponello,stimuli/subj_files/student1_cityB.csv,./stimuli/leipzig.jpg,./stimuli/street_plate2.png,HORGONY UTCA,stimuli/objects/039a.jpg,object,0,stimuli/objects/039a.jpg,stimuli/objects/039b.jpg,stimuli/objects/039a.jpg,stimuli/objects/092b.jpg,stimuli/objects/092a.jpg,lure,target,dist2,dist1,0,1,1,1,0,44,44,26,,,,,,,814.9005566406995,815.9290006626397,815.9290006626397,815.9290006626397,815.9290006626397,818.9345375094563,818.9345375094563,818.9345375094563,818.9345375094563,space,,820.9169560074806,820.9169560074806,6.693007361143827,,,,,,student1,2022-10-25_10h37.17.201,Hippopolis_Updating,2022.2.2,59.95219243166023,
Camponello,stimuli/subj_files/student1_cityB.csv,./stimuli/leipzig.jpg,./stimuli/street_plate2.png,BOHÓC UTCA,stimuli/objects/064a.jpg,object,0,stimuli/objects/064a.jpg,stimuli/objects/040b.jpg,stimuli/objects/040a.jpg,stimuli/objects/064a.jpg,stimuli/objects/064b.jpg,dist2,dist1,target,lure,0,1,1,1,0,45,45,17,,,,,,,827.6341398563236,828.659124866128,828.659124866128,828.659124866128,828.659124866128,831.6585616338998,831.6585616338998,831.6585616338998,831.6585616338998,None,,,,,,,,,,student1,2022-10-25_10h37.17.201,Hippopolis_Updating,2022.2.2,59.95219243166023,
Camponello,stimuli/subj_files/student1_cityB.csv,./stimuli/leipzig.jpg,./stimuli/street_plate2.png,MENTA UTCA,stimuli/objects/092a.jpg,object,0,stimuli/objects/092a.jpg,stimuli/scenes/069a.jpg,stimuli/scenes/069b.jpg,stimuli/objects/092a.jpg,stimuli/objects/092b.jpg,dist1,dist2,target,lure,0,1,1,1,0,46,46,67,,,,,,,833.6485829930753,834.677601756528,834.677601756528,834.677601756528,834.677601756528,837.693418296054,837.693418296054,837.693418296054,837.693418296054,None,,,,,,,,,,student1,2022-10-25_10h37.17.201,Hippopolis_Updating,2022.2.2,59.95219243166023,
Camponello,stimuli/subj_files/student1_cityB.csv,./stimuli/leipzig.jpg,./stimuli/street_plate2.png,ZONGORA UTCA,stimuli/objects/034a.jpg,object,0,stimuli/objects/034a.jpg,stimuli/objects/034a.jpg,stimuli/objects/034b.jpg,stimuli/objects/016b.jpg,stimuli/objects/016a.jpg,target,lure,dist2,dist1,0,1,1,1,0,47,47,31,,,,,,,839.6515020988882,840.6794463340193,840.6794463340193,840.6794463340193,840.6794463340193,843.689784809947,843.689784809947,843.689784809947,843.689784809947,None,,,,,,,,,,student1,2022-10-25_10h37.17.201,Hippopolis_Updating,2022.2.2,59.95219243166023,
Camponello,stimuli/subj_files/student1_cityB.csv,./stimuli/leipzig.jpg,./stimuli/street_plate2.png,TELEFON UTCA,stimuli/scenes/017a.jpg,scene,0,stimuli/scenes/017a.jpg,stimuli/objects/094b.jpg,stimuli/scenes/017b.jpg,stimuli/scenes/017a.jpg,stimuli/objects/094a.jpg,dist2,lure,target,dist1,0,1,1,1,0,48,48,27,,,,,,,845.6648551579565,846.6946868915111,846.6946868915111,846.6946868915111,846.6946868915111,849.6907492391765,849.6907492391765,849.6907492391765,849.6907492391765,None,,,,,,,,,,student1,2022-10-25_10h37.17.201,Hippopolis_Updating,2022.2.2,59.95219243166023,
Camponello,stimuli/subj_files/student1_cityB.csv,./stimuli/leipzig.jpg,./stimuli/street_plate2.png,TOLMÁCS UTCA,stimuli/scenes/082a.jpg,scene,0,stimuli/scenes/082a.jpg,stimuli/scenes/082b.jpg,stimuli/objects/081b.jpg,stimuli/objects/081a.jpg,stimuli/scenes/082a.jpg,lure,dist2,dist1,target,0,1,1,1,0,49,49,2,,,,,,,851.6659940648824,852.693349564448,852.693349564448,852.693349564448,852.693349564448,855.6830449905246,855.6830449905246,855.6830449905246,855.6830449905246,None,,,,,,,,,,student1,2022-10-25_10h37.17.201,Hippopolis_Updating,2022.2.2,59.95219243166023,
Camponello,stimuli/subj_files/student1_cityB.csv,./stimuli/leipzig.jpg,./stimuli/street_plate2.png,PAPRIKA UTCA,stimuli/objects/033a.jpg,object,0,stimuli/objects/033a.jpg,stimuli/scenes/023a.jpg,stimuli/objects/033b.jpg,stimuli/scenes/023b.jpg,stimuli/objects/033a.jpg,dist1,lure,dist2,target,0,1,1,1,0,50,50,30,,,,,,,857.6823072824627,858.7090140227228,858.7090140227228,858.7090140227228,858.7090140227228,861.7025457117707,861.7025457117707,861.7025457117707,861.7025457117707,None,,,,,,,,,,student1,2022-10-25_10h37.17.201,Hippopolis_Updating,2022.2.2,59.95219243166023,
Camponello,stimuli/subj_files/student1_cityB.csv,./stimuli/leipzig.jpg,./stimuli/street_plate2.png,ÁLLOMÁS UTCA,stimuli/scenes/069a.jpg,scene,0,stimuli/scenes/069a.jpg,stimuli/scenes/106a.jpg,stimuli/scenes/106b.jpg,stimuli/scenes/069b.jpg,stimuli/scenes/069a.jpg,dist1,dist2,lure,target,0,1,1,1,0,51,51,42,,,,,,,863.6915603447706,864.7163506634533,864.7163506634533,864.7163506634533,864.7163506634533,867.7277779728174,867.7277779728174,867.7277779728174,867.7277779728174,None,,,,,,,,,,student1,2022-10-25_10h37.17.201,Hippopolis_Updating,2022.2.2,59.95219243166023,
Camponello,stimuli/subj_files/student1_cityB.csv,./stimuli/leipzig.jpg,./stimuli/street_plate2.png,FOLYÓ UTCA,stimuli/scenes/035a.jpg,scene,0,stimuli/scenes/035a.jpg,stimuli/objects/034a.jpg,stimuli/scenes/035a.jpg,stimuli/objects/034b.jpg,stimuli/scenes/035b.jpg,dist1,target,dist2,lure,0,1,1,1,0,52,52,61,,,,,,,869.692981954664,870.7163553293794,870.7163553293794,870.7163553293794,870.7163553293794,873.7152257543057,873.7152257543057,873.7152257543057,873.7152257543057,None,,,,,,,,,,student1,2022-10-25_10h37.17.201,Hippopolis_Updating,2022.2.2,59.95219243166023,
Camponello,stimuli/subj_files/student1_cityB.csv,./stimuli/leipzig.jpg,./stimuli/street_plate2.png,LABDA UTCA,stimuli/objects/082a.jpg,object,0,stimuli/objects/082a.jpg,stimuli/scenes/049a.jpg,stimuli/scenes/049b.jpg,stimuli/objects/082b.jpg,stimuli/objects/082a.jpg,dist1,dist2,lure,target,0,1,1,1,0,53,53,72,,,,,,,875.7036622259766,876.7261849977076,876.7261849977076,876.7261849977076,876.7261849977076,879.7262437772006,879.7262437772006,879.7262437772006,879.7262437772006,None,,,,,,,,,,student1,2022-10-25_10h37.17.201,Hippopolis_Updating,2022.2.2,59.95219243166023,
Camponello,stimuli/subj_files/student1_cityB.csv,./stimuli/leipzig.jpg,./stimuli/street_plate2.png,KESZTYŰ UTCA,stimuli/scenes/040a.jpg,scene,1,stimuli/scenes/105a.jpg,stimuli/objects/096b.jpg,stimuli/scenes/105a.jpg,stimuli/scenes/105b.jpg,stimuli/objects/096a.jpg,dist2,target,lure,dist1,0,1,1,1,0,54,54,16,,,,,,,881.714710727334,882.7441353537142,882.7441353537142,882.7441353537142,882.7441353537142,885.7341564018279,885.7341564018279,885.7341564018279,885.7341564018279,None,,,,,,,,,,student1,2022-10-25_10h37.17.201,Hippopolis_Updating,2022.2.2,59.95219243166023,
Camponello,stimuli/subj_files/student1_cityB.csv,./stimuli/leipzig.jpg,./stimuli/street_plate2.png,ZEBRA UTCA,stimuli/scenes/106a.jpg,scene,0,stimuli/scenes/106a.jpg,stimuli/scenes/030a.jpg,stimuli/scenes/106a.jpg,stimuli/scenes/106b.jpg,stimuli/scenes/030b.jpg,dist1,target,lure,dist2,0,1,1,1,0,55,55,12,,,,,,,887.7185193113983,888.7467711325735,888.7467711325735,888.7467711325735,888.7467711325735,891.7411901224405,891.7411901224405,891.7411901224405,891.7411901224405,None,,,,,,,,,,student1,2022-10-25_10h37.17.201,Hippopolis_Updating,2022.2.2,59.95219243166023,
Camponello,stimuli/subj_files/student1_cityB.csv,./stimuli/leipzig.jpg,./stimuli/street_plate2.png,FÉSŰ UTCA,stimuli/objects/084a.jpg,object,0,stimuli/objects/084a.jpg,stimuli/objects/118b.jpg,stimuli/objects/118a.jpg,stimuli/objects/084a.jpg,stimuli/objects/084b.jpg,dist2,dist1,target,lure,0,1,1,1,0,56,56,23,,,,,,,893.7310976535082,894.7466566823423,894.7466566823423,894.7466566823423,894.7466566823423,897.7448789700866,897.7448789700866,897.7448789700866,897.7448789700866,None,894.7466566823423,,,,,,,,,student1,2022-10-25_10h37.17.201,Hippopolis_Updating,2022.2.2,59.95219243166023,
Camponello,stimuli/subj_files/student1_cityB.csv,./stimuli/leipzig.jpg,./stimuli/street_plate2.png,ASZTAL UTCA,stimuli/scenes/120a.jpg,scene,2,stimuli/objects/035a.jpg,stimuli/scenes/079b.jpg,stimuli/scenes/079a.jpg,stimuli/objects/035b.jpg,stimuli/objects/035a.jpg,dist2,dist1,lure,target,0,1,1,1,0,57,57,24,,,,,,,899.7366111762822,900.7593472972512,900.7593472972512,900.7593472972512,900.7593472972512,903.7809274084866,903.7809274084866,903.7809274084866,903.7809274084866,None,,,,,,,,,,student1,2022-10-25_10h37.17.201,Hippopolis_Updating,2022.2.2,59.95219243166023,
Camponello,stimuli/subj_files/student1_cityB.csv,./stimuli/leipzig.jpg,./stimuli/street_plate2.png,TIGRIS UTCA,stimuli/scenes/021a.jpg,scene,0,stimuli/scenes/021a.jpg,stimuli/scenes/022b.jpg,stimuli/scenes/021a.jpg,stimuli/scenes/021b.jpg,stimuli/scenes/022a.jpg,dist2,target,lure,dist1,0,1,1,1,0,58,58,68,,,,,,,905.7413002196699,906.7668251357973,906.7668251357973,906.7668251357973,906.7668251357973,909.773325169459,909.773325169459,909.773325169459,909.773325169459,None,,,,,,,,,,student1,2022-10-25_10h37.17.201,Hippopolis_Updating,2022.2.2,59.95219243166023,
Camponello,stimuli/subj_files/student1_cityB.csv,./stimuli/leipzig.jpg,./stimuli/street_plate2.png,SÜTŐ UTCA,stimuli/scenes/038a.jpg,scene,0,stimuli/scenes/038a.jpg,stimuli/scenes/038b.jpg,stimuli/objects/033b.jpg,stimuli/objects/033a.jpg,stimuli/scenes/038a.jpg,lure,dist2,dist1,target,0,1,1,1,0,59,59,5,,,,,,,911.7501125857234,912.7762277908623,912.7762277908623,912.7762277908623,912.7762277908623,915.7729780860245,915.7729780860245,915.7729780860245,915.7729780860245,None,,,,,,,,,,student1,2022-10-25_10h37.17.201,Hippopolis_Updating,2022.2.2,59.95219243166023,
Camponello,stimuli/subj_files/student1_cityB.csv,./stimuli/leipzig.jpg,./stimuli/street_plate2.png,RIBIZLI UTCA,stimuli/objects/088a.jpg,object,0,stimuli/objects/088a.jpg,stimuli/objects/088b.jpg,stimuli/objects/065a.jpg,stimuli/objects/088a.jpg,stimuli/objects/065b.jpg,lure,dist1,target,dist2,0,1,1,1,0,60,60,34,,,,,,,917.7590807657689,918.7799390312284,918.7799390312284,918.7799390312284,918.7799390312284,921.8016864638776,921.8016864638776,921.8016864638776,921.8016864638776,None,,,,,,,,,,student1,2022-10-25_10h37.17.201,Hippopolis_Updating,2022.2.2,59.95219243166023,
Camponello,stimuli/subj_files/student1_cityB.csv,./stimuli/leipzig.jpg,./stimuli/street_plate2.png,LEVÉL UTCA,stimuli/scenes/019a.jpg,scene,0,stimuli/scenes/019a.jpg,stimuli/objects/052a.jpg,stimuli/scenes/019a.jpg,stimuli/scenes/019b.jpg,stimuli/objects/052b.jpg,dist1,target,lure,dist2,0,1,1,1,0,61,61,8,,,,,,,923.7724801655859,924.7977752480656,924.7977752480656,924.7977752480656,924.7977752480656,927.8126040324569,927.8126040324569,927.8126040324569,927.8126040324569,None,,,,,,,,,,student1,2022-10-25_10h37.17.201,Hippopolis_Updating,2022.2.2,59.95219243166023,
Camponello,stimuli/subj_files/student1_cityB.csv,./stimuli/leipzig.jpg,./stimuli/street_plate2.png,VIHAR UTCA,stimuli/objects/048a.jpg,object,2,stimuli/scenes/054a.jpg,stimuli/scenes/054b.jpg,stimuli/scenes/100b.jpg,stimuli/scenes/054a.jpg,stimuli/scenes/100a.jpg,lure,dist2,target,dist1,0,1,1,1,0,62,62,65,,,,,,,929.780705973506,930.8087951373309,930.8087951373309,930.8087951373309,930.8087951373309,933.8255319464952,933.8255319464952,933.8255319464952,933.8255319464952,None,,,,,,,,,,student1,2022-10-25_10h37.17.201,Hippopolis_Updating,2022.2.2,59.95219243166023,
Camponello,stimuli/subj_files/student1_cityB.csv,./stimuli/leipzig.jpg,./stimuli/street_plate2.png,SZAXOFON UTCA,stimuli/objects/117a.jpg,object,0,stimuli/objects/117a.jpg,stimuli/scenes/021a.jpg,stimuli/objects/117a.jpg,stimuli/objects/117b.jpg,stimuli/scenes/021b.jpg,dist1,target,lure,dist2,0,1,1,1,0,63,63,20,,,,,,,935.7935760393739,936.8275040369481,936.8275040369481,936.8275040369481,936.8275040369481,939.8219693675637,939.8219693675637,939.8219693675637,939.8219693675637,None,,,,,,,,,,student1,2022-10-25_10h37.17.201,Hippopolis_Updating,2022.2.2,59.95219243166023,
Camponello,stimuli/subj_files/student1_cityB.csv,./stimuli/leipzig.jpg,./stimuli/street_plate2.png,SZILVA UTCA,stimuli/objects/105a.jpg,object,0,stimuli/objects/105a.jpg,stimuli/objects/049b.jpg,stimuli/objects/105b.jpg,stimuli/objects/049a.jpg,stimuli/objects/105a.jpg,dist2,lure,dist1,target,0,1,1,1,0,64,64,36,,,,,,,941.809986602515,942.8319290373474,942.8319290373474,942.8319290373474,942.8319290373474,945.8287272248417,945.8287272248417,945.8287272248417,945.8287272248417,None,942.8319290373474,,,,,,,,,student1,2022-10-25_10h37.17.201,Hippopolis_Updating,2022.2.2,59.95219243166023,
Camponello,stimuli/subj_files/student1_cityB.csv,./stimuli/leipzig.jpg,./stimuli/street_plate2.png,TORONY UTCA,stimuli/scenes/094a.jpg,scene,2,stimuli/objects/054a.jpg,stimuli/scenes/001a.jpg,stimuli/scenes/001b.jpg,stimuli/objects/054b.jpg,stimuli/objects/054a.jpg,dist1,dist2,lure,target,0,1,1,1,0,65,65,62,,,,,,,947.8222125750035,948.8453956134617,948.8453956134617,948.8453956134617,948.8453956134617,951.8761441931129,951.8761441931129,951.8761441931129,951.8761441931129,None,,,,,,,,,,student1,2022-10-25_10h37.17.201,Hippopolis_Updating,2022.2.2,59.95219243166023,
Camponello,stimuli/subj_files/student1_cityB.csv,./stimuli/leipzig.jpg,./stimuli/street_plate2.png,FÉSZEK UTCA,stimuli/objects/042a.jpg,object,1,stimuli/objects/044a.jpg,stimuli/scenes/020b.jpg,stimuli/objects/044a.jpg,stimuli/scenes/020a.jpg,stimuli/objects/044b.jpg,dist2,target,dist1,lure,0,1,1,1,0,66,66,10,,,,,,,953.8316317144781,954.8582890052348,954.8582890052348,954.8582890052348,954.8582890052348,957.8551599700004,957.8551599700004,957.8551599700004,957.8551599700004,None,,,,,,,,,,student1,2022-10-25_10h37.17.201,Hippopolis_Updating,2022.2.2,59.95219243166023,
Camponello,stimuli/subj_files/student1_cityB.csv,./stimuli/leipzig.jpg,./stimuli/street_plate2.png,TÜKÖR UTCA,stimuli/scenes/006a.jpg,scene,0,stimuli/scenes/006a.jpg,stimuli/objects/116b.jpg,stimuli/objects/116a.jpg,stimuli/scenes/006a.jpg,stimuli/scenes/006b.jpg,dist2,dist1,target,lure,0,1,1,1,0,67,67,25,,,,,,,959.842937419191,960.8711425885558,960.8711425885558,960.8711425885558,960.8711425885558,963.8700658846647,963.8700658846647,963.8700658846647,963.8700658846647,None,,,,,,,,,,student1,2022-10-25_10h37.17.201,Hippopolis_Updating,2022.2.2,59.95219243166023,
Camponello,stimuli/subj_files/student1_cityB.csv,./stimuli/leipzig.jpg,./stimuli/street_plate2.png,ZÁSZLÓ UTCA,stimuli/scenes/103a.jpg,scene,2,stimuli/objects/037a.jpg,stimuli/scenes/102b.jpg,stimuli/objects/037b.jpg,stimuli/scenes/102a.jpg,stimuli/objects/037a.jpg,dist2,lure,dist1,target,0,1,1,1,0,68,68,60,,,,,,,965.843529574573,966.873299729079,966.873299729079,966.873299729079,966.873299729079,969.8785591572523,969.8785591572523,969.8785591572523,969.8785591572523,None,,,,,,,,,,student1,2022-10-25_10h37.17.201,Hippopolis_Updating,2022.2.2,59.95219243166023,
Camponello,stimuli/subj_files/student1_cityB.csv,./stimuli/leipzig.jpg,./stimuli/street_plate2.png,KESELYŰ UTCA,stimuli/objects/003a.jpg,object,2,stimuli/scenes/100a.jpg,stimuli/objects/029a.jpg,stimuli/scenes/100b.jpg,stimuli/objects/029b.jpg,stimuli/scenes/100a.jpg,dist1,lure,dist2,target,0,1,1,1,0,69,69,6,,,,,,,971.8463286329061,972.876123977825,972.876123977825,972.876123977825,972.876123977825,975.8643607832491,975.8643607832491,975.8643607832491,975.8643607832491,None,,,,,,,,,,student1,2022-10-25_10h37.17.201,Hippopolis_Updating,2022.2.2,59.95219243166023,
Camponello,stimuli/subj_files/student1_cityB.csv,./stimuli/leipzig.jpg,./stimuli/street_plate2.png,SALÁTA UTCA,stimuli/objects/008a.jpg,object,0,stimuli/objects/008a.jpg,stimuli/scenes/099b.jpg,stimuli/objects/008b.jpg,stimuli/objects/008a.jpg,stimuli/scenes/099a.jpg,dist2,lure,target,dist1,0,1,1,1,0,70,70,73,,,,,,,977.8633182886988,978.8915007561445,978.8915007561445,978.8915007561445,978.8915007561445,981.8976114094257,981.8976114094257,981.8976114094257,981.8976114094257,None,,,,,,,,,,student1,2022-10-25_10h37.17.201,Hippopolis_Updating,2022.2.2,59.95219243166023,
Camponello,stimuli/subj_files/student1_cityB.csv,./stimuli/leipzig.jpg,./stimuli/street_plate2.png,KÓKUSZ UTCA,stimuli/scenes/052a.jpg,scene,0,stimuli/scenes/052a.jpg,stimuli/scenes/052a.jpg,stimuli/objects/077b.jpg,stimuli/objects/077a.jpg,stimuli/scenes/052b.jpg,target,dist2,dist1,lure,0,1,1,1,0,71,71,19,,,,,,,983.8717135954648,984.8926349952817,984.8926349952817,984.8926349952817,984.8926349952817,987.9021604992449,987.9021604992449,987.9021604992449,987.9021604992449,None,,,,,,,,,,student1,2022-10-25_10h37.17.201,Hippopolis_Updating,2022.2.2,59.95219243166023,
Camponello,stimuli/subj_files/student1_cityB.csv,./stimuli/leipzig.jpg,./stimuli/street_plate2.png,SUGÁR UTCA,stimuli/objects/094a.jpg,object,0,stimuli/objects/094a.jpg,stimuli/objects/094b.jpg,stimuli/objects/064b.jpg,stimuli/objects/064a.jpg,stimuli/objects/094a.jpg,lure,dist2,dist1,target,0,1,1,1,0,72,72,40,,,,,,,989.8847656007856,990.9085345752537,990.9085345752537,990.9085345752537,990.9085345752537,993.9191949423403,993.9191949423403,993.9191949423403,993.9191949423403,None,,,,,,,,,,student1,2022-10-25_10h37.17.201,Hippopolis_Updating,2022.2.2,59.95219243166023,
Camponello,stimuli/subj_files/student1_cityB.csv,./stimuli/leipzig.jpg,./stimuli/street_plate2.png,SZALVÉTA UTCA,stimuli/objects/072a.jpg,object,0,stimuli/objects/072a.jpg,stimuli/scenes/045b.jpg,stimuli/scenes/045a.jpg,stimuli/objects/072b.jpg,stimuli/objects/072a.jpg,dist2,dist1,lure,target,0,1,1,1,0,73,73,54,,,,,,,995.888709474355,996.909268239513,996.909268239513,996.909268239513,996.909268239513,999.913110723719,999.913110723719,999.913110723719,999.913110723719,None,,,,,,,,,,student1,2022-10-25_10h37.17.201,Hippopolis_Updating,2022.2.2,59.95219243166023,
Camponello,stimuli/subj_files/student1_cityB.csv,./stimuli/leipzig.jpg,./stimuli/street_plate2.png,REPÜLŐ UTCA,stimuli/scenes/098a.jpg,scene,0,stimuli/scenes/098a.jpg,stimuli/scenes/013a.jpg,stimuli/scenes/013b.jpg,stimuli/scenes/098a.jpg,stimuli/scenes/098b.jpg,dist1,dist2,target,lure,0,1,1,1,0,74,74,66,,,,,,,1001.8967701364309,1002.9288871455938,1002.9288871455938,1002.9288871455938,1002.9288871455938,1005.9157981295139,1005.9157981295139,1005.9157981295139,1005.9157981295139,None,,,,,,,,,,student1,2022-10-25_10h37.17.201,Hippopolis_Updating,2022.2.2,59.95219243166023,
Camponello,stimuli/subj_files/student1_cityB.csv,./stimuli/leipzig.jpg,./stimuli/street_plate2.png,KOSÁR UTCA,stimuli/objects/057a.jpg,object,2,stimuli/scenes/001a.jpg,stimuli/scenes/001a.jpg,stimuli/scenes/001b.jpg,stimuli/objects/005b.jpg,stimuli/objects/005a.jpg,target,lure,dist2,dist1,0,1,1,1,0,75,75,38,,,,,,,1007.9043869953603,1008.9247062858194,1008.9247062858194,1008.9247062858194,1008.9247062858194,1011.9361597187817,1011.9361597187817,1011.9361597187817,1011.9361597187817,None,,,,,,,,,,student1,2022-10-25_10h37.17.201,Hippopolis_Updating,2022.2.2,59.95219243166023,
Camponello,stimuli/subj_files/student1_cityB.csv,./stimuli/leipzig.jpg,./stimuli/street_plate2.png,HARCSA UTCA,stimuli/scenes/080a.jpg,scene,2,stimuli/objects/029a.jpg,stimuli/scenes/054b.jpg,stimuli/scenes/054a.jpg,stimuli/objects/029b.jpg,stimuli/objects/029a.jpg,dist2,dist1,lure,target,0,1,1,1,0,76,76,59,,,,,,,1013.9060039166361,1014.9276278801262,1014.9276278801262,1014.9276278801262,1014.9276278801262,1017.9426970724016,1017.9426970724016,1017.9426970724016,1017.9426970724016,None,,,,,,,,,,student1,2022-10-25_10h37.17.201,Hippopolis_Updating,2022.2.2,59.95219243166023,
Camponello,stimuli/subj_files/student1_cityB.csv,./stimuli/leipzig.jpg,./stimuli/street_plate2.png,KÁRTYA UTCA,stimuli/scenes/076a.jpg,scene,0,stimuli/scenes/076a.jpg,stimuli/objects/008a.jpg,stimuli/scenes/076b.jpg,stimuli/scenes/076a.jpg,stimuli/objects/008b.jpg,dist1,lure,target,dist2,0,1,1,1,0,77,77,64,,,,,,,1019.9221100043505,1020.944787658751,1020.944787658751,1020.944787658751,1020.944787658751,1023.9505820181221,1023.9505820181221,1023.9505820181221,1023.9505820181221,None,,,,,,,,,,student1,2022-10-25_10h37.17.201,Hippopolis_Updating,2022.2.2,59.95219243166023,
Camponello,stimuli/subj_files/student1_cityB.csv,./stimuli/leipzig.jpg,./stimuli/street_plate2.png,SIRÁLY UTCA,stimuli/objects/081a.jpg,object,0,stimuli/objects/081a.jpg,stimuli/objects/081a.jpg,stimuli/objects/081b.jpg,stimuli/scenes/019a.jpg,stimuli/scenes/019b.jpg,target,lure,dist1,dist2,0,1,1,1,0,78,78,50,,,,,,,1025.9321542680264,1026.958138851449,1026.958138851449,1026.958138851449,1026.958138851449,1029.9558286964893,1029.9558286964893,1029.9558286964893,1029.9558286964893,None,,,,,,,,,,student1,2022-10-25_10h37.17.201,Hippopolis_Updating,2022.2.2,59.95219243166023,
Camponello,stimuli/subj_files/student1_cityB.csv,./stimuli/leipzig.jpg,./stimuli/street_plate2.png,KRÉTA UTCA,stimuli/scenes/091a.jpg,scene,0,stimuli/scenes/091a.jpg,stimuli/scenes/098b.jpg,stimuli/scenes/091b.jpg,stimuli/scenes/098a.jpg,stimuli/scenes/091a.jpg,dist2,lure,dist1,target,0,1,1,1,0,79,79,21,,,,,,,1031.94668604061,1032.9659684374928,1032.9659684374928,1032.9659684374928,1032.9659684374928,1035.963960269466,1035.963960269466,1035.963960269466,1035.963960269466,None,1032.9659684374928,,,,,,,,,student1,2022-10-25_10h37.17.201,Hippopolis_Updating,2022.2.2,59.95219243166023,
,,,,,,,,,,,,,,,,,,,,,,,,,,,,,,,,,,,,,,,,,,,,,,,None,,1037.953400047496,,,,,,
