CityName,StimuliFile,CityImage,StreetSign,Cue,Image,Category,Novelty,UpdateImage,TestImage1,TestImage2,TestImage3,TestImage4,TestImage1Type,TestImage2Type,TestImage3Type,TestImage4Type,CityBlock.thisRepN,CityBlock.thisTrialN,CityBlock.thisN,CityBlock.thisIndex,LearningTrials.thisRepN,LearningTrials.thisTrialN,LearningTrials.thisN,LearningTrials.thisIndex,learning_instructions_text.started,intro_key.started,intro_key.keys,intro_key.rt,cityname_text.started,city_image.started,fx_cross.started,plate_updating.started,city_text_updating.started,street_text_updating.started,test_image1.started,test_image2.started,test_image3.started,test_image4.started,button_d.started,button_f.started,button_j.started,button_k.started,key_resp.started,key_resp.keys,key_resp.rt,test_resp,short_break_key.keys,clock0.started,fx_cross.stopped,short_break_text.started,short_break_key.started,short_break_key.rt,n_targets,n_lures,n_dist1s,n_dist2s,break_text.started,break_key_resp.started,break_key_resp.keys,break_key_resp.rt,end_text.started,participant,date,expName,psychopyVersion,frameRate,
,,,,,,,,,,,,,,,,,,,,,,,,,37.78008893504739,37.78008893504739,space,51.70469451136887,,,,,,,,,,,,,,,,,,,,,,,,,,,,,,,,,,student1,2022-10-25_16h15.10.114,Hippopolis_4AFCT,2022.2.2,60.009145267768794,
Camponello,stimuli/subj_files/student1_cityB.csv,./stimuli/leipzig.jpg,./stimuli/street_plate2.png,TELEFON UTCA,stimuli/scenes/017a.jpg,scene,0,stimuli/scenes/017a.jpg,stimuli/objects/094b.jpg,stimuli/scenes/017b.jpg,stimuli/scenes/017a.jpg,stimuli/objects/094a.jpg,dist2,lure,target,dist1,0,0,0,1,0,0,0,27,,,,,89.56054579094052,89.56054579094052,92.55010095238686,93.59607578255236,93.59607578255236,93.59607578255236,93.59607578255236,93.59607578255236,93.59607578255236,93.59607578255236,93.59607578255236,93.59607578255236,93.59607578255236,93.59607578255236,93.59607578255236,j,2.2405050322413445,target,None,,,,,,,,,,,,,,,student1,2022-10-25_16h15.10.114,Hippopolis_4AFCT,2022.2.2,60.009145267768794,
Camponello,stimuli/subj_files/student1_cityB.csv,./stimuli/leipzig.jpg,./stimuli/street_plate2.png,ZEBRA UTCA,stimuli/scenes/106a.jpg,scene,0,stimuli/scenes/106a.jpg,stimuli/scenes/030a.jpg,stimuli/scenes/106a.jpg,stimuli/scenes/106b.jpg,stimuli/scenes/030b.jpg,dist1,target,lure,dist2,0,0,0,1,0,1,1,12,,,,,,,95.85529712215066,96.91359402611852,96.91359402611852,96.91359402611852,96.91359402611852,96.91359402611852,96.91359402611852,96.91359402611852,96.91359402611852,96.91359402611852,96.91359402611852,96.91359402611852,96.91359402611852,j,3.2433090656995773,lure,None,,,,,,,,,,,,,,,student1,2022-10-25_16h15.10.114,Hippopolis_4AFCT,2022.2.2,60.009145267768794,
Camponello,stimuli/subj_files/student1_cityB.csv,./stimuli/leipzig.jpg,./stimuli/street_plate2.png,SUGÁR UTCA,stimuli/objects/094a.jpg,object,0,stimuli/objects/094a.jpg,stimuli/objects/094b.jpg,stimuli/objects/064b.jpg,stimuli/objects/064a.jpg,stimuli/objects/094a.jpg,lure,dist2,dist1,target,0,0,0,1,0,2,2,40,,,,,,,100.1864122543484,101.26810616999865,101.26810616999865,101.26810616999865,101.26810616999865,101.26810616999865,101.26810616999865,101.26810616999865,101.26810616999865,101.26810616999865,101.26810616999865,101.26810616999865,101.26810616999865,k,2.1843394562602043,target,None,,,,,,,,,,,,,,,student1,2022-10-25_16h15.10.114,Hippopolis_4AFCT,2022.2.2,60.009145267768794,
Camponello,stimuli/subj_files/student1_cityB.csv,./stimuli/leipzig.jpg,./stimuli/street_plate2.png,LÉPCSŐ UTCA,stimuli/objects/049a.jpg,object,0,stimuli/objects/049a.jpg,stimuli/scenes/076b.jpg,stimuli/scenes/076a.jpg,stimuli/objects/049b.jpg,stimuli/objects/049a.jpg,dist2,dist1,lure,target,0,0,0,1,0,3,3,43,,,,,,,103.47524015791714,104.5618927590549,104.5618927590549,104.5618927590549,104.5618927590549,104.5618927590549,104.5618927590549,104.5618927590549,104.5618927590549,104.5618927590549,104.5618927590549,104.5618927590549,104.5618927590549,j,3.003046987578273,lure,None,,,,,,,,,,,,,,,student1,2022-10-25_16h15.10.114,Hippopolis_4AFCT,2022.2.2,60.009145267768794,
Camponello,stimuli/subj_files/student1_cityB.csv,./stimuli/leipzig.jpg,./stimuli/street_plate2.png,GYŰRŰ UTCA,stimuli/objects/056a.jpg,object,1,stimuli/objects/013a.jpg,stimuli/objects/013b.jpg,stimuli/objects/087b.jpg,stimuli/objects/013a.jpg,stimuli/objects/087a.jpg,lure,dist2,target,dist1,0,0,0,1,0,4,4,22,,,,,,,107.59190176613629,108.6697211638093,108.6697211638093,108.6697211638093,108.6697211638093,108.6697211638093,108.6697211638093,108.6697211638093,108.6697211638093,108.6697211638093,108.6697211638093,108.6697211638093,108.6697211638093,k,2.270629422739148,dist1,None,,,,,,,,,,,,,,,student1,2022-10-25_16h15.10.114,Hippopolis_4AFCT,2022.2.2,60.009145267768794,
Camponello,stimuli/subj_files/student1_cityB.csv,./stimuli/leipzig.jpg,./stimuli/street_plate2.png,PALACK UTCA,stimuli/scenes/033a.jpg,scene,1,stimuli/scenes/107a.jpg,stimuli/objects/119b.jpg,stimuli/scenes/107b.jpg,stimuli/objects/119a.jpg,stimuli/scenes/107a.jpg,dist2,lure,dist1,target,0,0,0,1,0,5,5,44,,,,,,,110.95968113094568,112.02938512712717,112.02938512712717,112.02938512712717,112.02938512712717,112.02938512712717,112.02938512712717,112.02938512712717,112.02938512712717,112.02938512712717,112.02938512712717,112.02938512712717,112.02938512712717,k,2.527318859472871,target,None,,,,,,,,,,,,,,,student1,2022-10-25_16h15.10.114,Hippopolis_4AFCT,2022.2.2,60.009145267768794,
Camponello,stimuli/subj_files/student1_cityB.csv,./stimuli/leipzig.jpg,./stimuli/street_plate2.png,KATONA UTCA,stimuli/objects/077a.jpg,object,0,stimuli/objects/077a.jpg,stimuli/objects/077a.jpg,stimuli/scenes/115a.jpg,stimuli/scenes/115b.jpg,stimuli/objects/077b.jpg,target,dist1,dist2,lure,0,0,0,1,0,6,6,74,,,,,,,114.57871478423476,115.63124811835587,115.63124811835587,115.63124811835587,115.63124811835587,115.63124811835587,115.63124811835587,115.63124811835587,115.63124811835587,115.63124811835587,115.63124811835587,115.63124811835587,115.63124811835587,d,2.1407876759767532,target,None,,,,,,,,,,,,,,,student1,2022-10-25_16h15.10.114,Hippopolis_4AFCT,2022.2.2,60.009145267768794,
Camponello,stimuli/subj_files/student1_cityB.csv,./stimuli/leipzig.jpg,./stimuli/street_plate2.png,KANÁL UTCA,stimuli/scenes/057a.jpg,scene,1,stimuli/scenes/020a.jpg,stimuli/scenes/020b.jpg,stimuli/scenes/020a.jpg,stimuli/scenes/062a.jpg,stimuli/scenes/062b.jpg,lure,target,dist1,dist2,0,0,0,1,0,7,7,14,,,,,,,117.81620641797781,118.88129881210625,118.88129881210625,118.88129881210625,118.88129881210625,118.88129881210625,118.88129881210625,118.88129881210625,118.88129881210625,118.88129881210625,118.88129881210625,118.88129881210625,118.88129881210625,k,2.2512384857982397,dist2,None,,,,,,,,,,,,,,,student1,2022-10-25_16h15.10.114,Hippopolis_4AFCT,2022.2.2,60.009145267768794,
Camponello,stimuli/subj_files/student1_cityB.csv,./stimuli/leipzig.jpg,./stimuli/street_plate2.png,HARCSA UTCA,stimuli/scenes/080a.jpg,scene,2,stimuli/objects/029a.jpg,stimuli/scenes/054b.jpg,stimuli/scenes/054a.jpg,stimuli/objects/029b.jpg,stimuli/objects/029a.jpg,dist2,dist1,lure,target,0,0,0,1,0,8,8,59,,,,,,,121.1525215767324,122.22909570485353,122.22909570485353,122.22909570485353,122.22909570485353,122.22909570485353,122.22909570485353,122.22909570485353,122.22909570485353,122.22909570485353,122.22909570485353,122.22909570485353,122.22909570485353,f,2.9830057360231876,dist1,None,,,,,,,,,,,,,,,student1,2022-10-25_16h15.10.114,Hippopolis_4AFCT,2022.2.2,60.009145267768794,
Camponello,stimuli/subj_files/student1_cityB.csv,./stimuli/leipzig.jpg,./stimuli/street_plate2.png,TISZTÁS UTCA,stimuli/objects/116a.jpg,object,0,stimuli/objects/116a.jpg,stimuli/objects/058a.jpg,stimuli/objects/116a.jpg,stimuli/objects/116b.jpg,stimuli/objects/058b.jpg,dist1,target,lure,dist2,0,0,0,1,0,9,9,18,,,,,,,125.24272400513291,126.31292809918523,126.31292809918523,126.31292809918523,126.31292809918523,126.31292809918523,126.31292809918523,126.31292809918523,126.31292809918523,126.31292809918523,126.31292809918523,126.31292809918523,126.31292809918523,j,2.5950006917119026,lure,None,,,,,,,,,,,,,,,student1,2022-10-25_16h15.10.114,Hippopolis_4AFCT,2022.2.2,60.009145267768794,
Camponello,stimuli/subj_files/student1_cityB.csv,./stimuli/leipzig.jpg,./stimuli/street_plate2.png,SZAPPAN UTCA,stimuli/objects/023a.jpg,object,1,stimuli/objects/087a.jpg,stimuli/scenes/012b.jpg,stimuli/objects/087b.jpg,stimuli/objects/087a.jpg,stimuli/scenes/012a.jpg,dist2,lure,target,dist1,0,0,0,1,0,10,10,7,,,,,,,128.93732536956668,129.9958225619048,129.9958225619048,129.9958225619048,129.9958225619048,129.9958225619048,129.9958225619048,129.9958225619048,129.9958225619048,129.9958225619048,129.9958225619048,129.9958225619048,129.9958225619048,k,2.04869588278234,dist1,None,,,,,,,,,,,,,,,student1,2022-10-25_16h15.10.114,Hippopolis_4AFCT,2022.2.2,60.009145267768794,
Camponello,stimuli/subj_files/student1_cityB.csv,./stimuli/leipzig.jpg,./stimuli/street_plate2.png,KAKAÓ UTCA,stimuli/objects/099a.jpg,object,1,stimuli/objects/119a.jpg,stimuli/scenes/086a.jpg,stimuli/objects/119a.jpg,stimuli/scenes/086b.jpg,stimuli/objects/119b.jpg,dist1,target,dist2,lure,0,0,0,1,0,11,11,0,,,,,,,132.08392351865768,133.16610695794225,133.16610695794225,133.16610695794225,133.16610695794225,133.16610695794225,133.16610695794225,133.16610695794225,133.16610695794225,133.16610695794225,133.16610695794225,133.16610695794225,133.16610695794225,f,2.541861206293106,target,None,,,,,,,,,,,,,,,student1,2022-10-25_16h15.10.114,Hippopolis_4AFCT,2022.2.2,60.009145267768794,
Camponello,stimuli/subj_files/student1_cityB.csv,./stimuli/leipzig.jpg,./stimuli/street_plate2.png,SZŐNYEG UTCA,stimuli/objects/040a.jpg,object,0,stimuli/objects/040a.jpg,stimuli/objects/040a.jpg,stimuli/objects/040b.jpg,stimuli/objects/019b.jpg,stimuli/objects/019a.jpg,target,lure,dist2,dist1,0,0,0,1,0,12,12,29,,,,,,,135.72634765133262,136.81353580579162,136.81353580579162,136.81353580579162,136.81353580579162,136.81353580579162,136.81353580579162,136.81353580579162,136.81353580579162,136.81353580579162,136.81353580579162,136.81353580579162,136.81353580579162,d,2.2385049518197775,target,None,,,,,,,,,,,,,,,student1,2022-10-25_16h15.10.114,Hippopolis_4AFCT,2022.2.2,60.009145267768794,
Camponello,stimuli/subj_files/student1_cityB.csv,./stimuli/leipzig.jpg,./stimuli/street_plate2.png,TÉRKÉP UTCA,stimuli/scenes/013a.jpg,scene,0,stimuli/scenes/013a.jpg,stimuli/scenes/006b.jpg,stimuli/scenes/006a.jpg,stimuli/scenes/013a.jpg,stimuli/scenes/013b.jpg,dist2,dist1,target,lure,0,0,0,1,0,13,13,63,,,,,,,139.08577742800117,140.16156999766827,140.16156999766827,140.16156999766827,140.16156999766827,140.16156999766827,140.16156999766827,140.16156999766827,140.16156999766827,140.16156999766827,140.16156999766827,140.16156999766827,140.16156999766827,j,2.8903065472841263,target,None,,,,,,,,,,,,,,,student1,2022-10-25_16h15.10.114,Hippopolis_4AFCT,2022.2.2,60.009145267768794,
Camponello,stimuli/subj_files/student1_cityB.csv,./stimuli/leipzig.jpg,./stimuli/street_plate2.png,TÜKÖR UTCA,stimuli/scenes/006a.jpg,scene,0,stimuli/scenes/006a.jpg,stimuli/objects/116b.jpg,stimuli/objects/116a.jpg,stimuli/scenes/006a.jpg,stimuli/scenes/006b.jpg,dist2,dist1,target,lure,0,0,0,1,0,14,14,25,,,,,,,143.06974100507796,144.12909968569875,144.12909968569875,144.12909968569875,144.12909968569875,144.12909968569875,144.12909968569875,144.12909968569875,144.12909968569875,144.12909968569875,144.12909968569875,144.12909968569875,144.12909968569875,j,2.13942950963974,target,None,,,,,,,,,,,,,,,student1,2022-10-25_16h15.10.114,Hippopolis_4AFCT,2022.2.2,60.009145267768794,
Camponello,stimuli/subj_files/student1_cityB.csv,./stimuli/leipzig.jpg,./stimuli/street_plate2.png,TORONY UTCA,stimuli/scenes/094a.jpg,scene,2,stimuli/objects/054a.jpg,stimuli/scenes/001a.jpg,stimuli/scenes/001b.jpg,stimuli/objects/054b.jpg,stimuli/objects/054a.jpg,dist1,dist2,lure,target,0,0,0,1,0,15,15,62,,,,,,,146.29347776062787,147.36573574133217,147.36573574133217,147.36573574133217,147.36573574133217,147.36573574133217,147.36573574133217,147.36573574133217,147.36573574133217,147.36573574133217,147.36573574133217,147.36573574133217,147.36573574133217,d,2.7258556969463825,dist1,None,,,,,,,,,,,,,,,student1,2022-10-25_16h15.10.114,Hippopolis_4AFCT,2022.2.2,60.009145267768794,
Camponello,stimuli/subj_files/student1_cityB.csv,./stimuli/leipzig.jpg,./stimuli/street_plate2.png,ZONGORA UTCA,stimuli/objects/034a.jpg,object,0,stimuli/objects/034a.jpg,stimuli/objects/034a.jpg,stimuli/objects/034b.jpg,stimuli/objects/016b.jpg,stimuli/objects/016a.jpg,target,lure,dist2,dist1,0,0,0,1,0,16,16,31,,,,,,,150.12813867628574,151.20237559080124,151.20237559080124,151.20237559080124,151.20237559080124,151.20237559080124,151.20237559080124,151.20237559080124,151.20237559080124,151.20237559080124,151.20237559080124,151.20237559080124,151.20237559080124,d,2.0894993003457785,target,None,,,,,,,,,,,,,,,student1,2022-10-25_16h15.10.114,Hippopolis_4AFCT,2022.2.2,60.009145267768794,
Camponello,stimuli/subj_files/student1_cityB.csv,./stimuli/leipzig.jpg,./stimuli/street_plate2.png,KESZTYŰ UTCA,stimuli/scenes/040a.jpg,scene,1,stimuli/scenes/105a.jpg,stimuli/objects/096b.jpg,stimuli/scenes/105a.jpg,stimuli/scenes/105b.jpg,stimuli/objects/096a.jpg,dist2,target,lure,dist1,0,0,0,1,0,17,17,16,,,,,,,153.31151892989874,154.3968398012221,154.3968398012221,154.3968398012221,154.3968398012221,154.3968398012221,154.3968398012221,154.3968398012221,154.3968398012221,154.3968398012221,154.3968398012221,154.3968398012221,154.3968398012221,k,3.6473732348531485,dist1,None,157.81225694715977,,,,,,,,,,,,,,student1,2022-10-25_16h15.10.114,Hippopolis_4AFCT,2022.2.2,60.009145267768794,
Camponello,stimuli/subj_files/student1_cityB.csv,./stimuli/leipzig.jpg,./stimuli/street_plate2.png,SALÁTA UTCA,stimuli/objects/008a.jpg,object,0,stimuli/objects/008a.jpg,stimuli/scenes/099b.jpg,stimuli/objects/008b.jpg,stimuli/objects/008a.jpg,stimuli/scenes/099a.jpg,dist2,lure,target,dist1,0,0,0,1,0,18,18,73,,,,,,,158.07580936327577,159.1428324840963,159.1428324840963,159.1428324840963,159.1428324840963,159.1428324840963,159.1428324840963,159.1428324840963,159.1428324840963,159.1428324840963,159.1428324840963,159.1428324840963,159.1428324840963,j,1.8445907849818468,target,None,,159.1428324840963,,,,,,,,,,,,,student1,2022-10-25_16h15.10.114,Hippopolis_4AFCT,2022.2.2,60.009145267768794,
Camponello,stimuli/subj_files/student1_cityB.csv,./stimuli/leipzig.jpg,./stimuli/street_plate2.png,SZOBOR UTCA,stimuli/objects/031a.jpg,object,1,stimuli/objects/010a.jpg,stimuli/objects/010a.jpg,stimuli/objects/044b.jpg,stimuli/objects/044a.jpg,stimuli/objects/010b.jpg,target,dist2,dist1,lure,0,0,0,1,0,19,19,79,,,,,,,161.03046898543835,162.09546310082078,162.09546310082078,162.09546310082078,162.09546310082078,162.09546310082078,162.09546310082078,162.09546310082078,162.09546310082078,162.09546310082078,162.09546310082078,162.09546310082078,162.09546310082078,d,2.6368077266961336,target,None,,,,,,,,,,,,,,,student1,2022-10-25_16h15.10.114,Hippopolis_4AFCT,2022.2.2,60.009145267768794,
Camponello,stimuli/subj_files/student1_cityB.csv,./stimuli/leipzig.jpg,./stimuli/street_plate2.png,LOVAGLÁS UTCA,stimuli/objects/019a.jpg,object,0,stimuli/objects/019a.jpg,stimuli/objects/019b.jpg,stimuli/objects/019a.jpg,stimuli/scenes/017b.jpg,stimuli/scenes/017a.jpg,lure,target,dist2,dist1,0,0,0,1,0,20,20,53,,,,,,,164.7571036964655,165.8122700098902,165.8122700098902,165.8122700098902,165.8122700098902,165.8122700098902,165.8122700098902,165.8122700098902,165.8122700098902,165.8122700098902,165.8122700098902,165.8122700098902,165.8122700098902,k,2.775808922946453,dist1,None,,,,,,,,,,,,,,,student1,2022-10-25_16h15.10.114,Hippopolis_4AFCT,2022.2.2,60.009145267768794,
Camponello,stimuli/subj_files/student1_cityB.csv,./stimuli/leipzig.jpg,./stimuli/street_plate2.png,KÍGYÓ UTCA,stimuli/scenes/032a.jpg,scene,0,stimuli/scenes/032a.jpg,stimuli/scenes/032a.jpg,stimuli/objects/088a.jpg,stimuli/scenes/032b.jpg,stimuli/objects/088b.jpg,target,dist1,lure,dist2,0,0,0,1,0,21,21,76,,,,,,,168.61987368017435,169.6996449548751,169.6996449548751,169.6996449548751,169.6996449548751,169.6996449548751,169.6996449548751,169.6996449548751,169.6996449548751,169.6996449548751,169.6996449548751,169.6996449548751,169.6996449548751,d,2.343862097710371,target,None,,,,,,,,,,,,,,,student1,2022-10-25_16h15.10.114,Hippopolis_4AFCT,2022.2.2,60.009145267768794,
Camponello,stimuli/subj_files/student1_cityB.csv,./stimuli/leipzig.jpg,./stimuli/street_plate2.png,KOSÁR UTCA,stimuli/objects/057a.jpg,object,2,stimuli/scenes/001a.jpg,stimuli/scenes/001a.jpg,stimuli/scenes/001b.jpg,stimuli/objects/005b.jpg,stimuli/objects/005a.jpg,target,lure,dist2,dist1,0,0,0,1,0,22,22,38,,,,,,,172.06366674043238,173.12890934944153,173.12890934944153,173.12890934944153,173.12890934944153,173.12890934944153,173.12890934944153,173.12890934944153,173.12890934944153,173.12890934944153,173.12890934944153,173.12890934944153,173.12890934944153,j,2.675012683495879,dist2,None,,,,,,,,,,,,,,,student1,2022-10-25_16h15.10.114,Hippopolis_4AFCT,2022.2.2,60.009145267768794,
Camponello,stimuli/subj_files/student1_cityB.csv,./stimuli/leipzig.jpg,./stimuli/street_plate2.png,POLIP UTCA,stimuli/scenes/077a.jpg,scene,0,stimuli/scenes/077a.jpg,stimuli/scenes/077b.jpg,stimuli/scenes/077a.jpg,stimuli/scenes/091b.jpg,stimuli/scenes/091a.jpg,lure,target,dist2,dist1,0,0,0,1,0,23,23,49,,,,,,,175.8320571705699,176.88676941394806,176.88676941394806,176.88676941394806,176.88676941394806,176.88676941394806,176.88676941394806,176.88676941394806,176.88676941394806,176.88676941394806,176.88676941394806,176.88676941394806,176.88676941394806,f,2.5809105467051268,target,None,,,,,,,,,,,,,,,student1,2022-10-25_16h15.10.114,Hippopolis_4AFCT,2022.2.2,60.009145267768794,
Camponello,stimuli/subj_files/student1_cityB.csv,./stimuli/leipzig.jpg,./stimuli/street_plate2.png,ASZTAL UTCA,stimuli/scenes/120a.jpg,scene,2,stimuli/objects/035a.jpg,stimuli/scenes/079b.jpg,stimuli/scenes/079a.jpg,stimuli/objects/035b.jpg,stimuli/objects/035a.jpg,dist2,dist1,lure,target,0,0,0,1,0,24,24,24,,,,,,,179.49370958469808,180.54087556898594,180.54087556898594,180.54087556898594,180.54087556898594,180.54087556898594,180.54087556898594,180.54087556898594,180.54087556898594,180.54087556898594,180.54087556898594,180.54087556898594,180.54087556898594,k,2.2065673917531967,target,None,,,,,,,,,,,,,,,student1,2022-10-25_16h15.10.114,Hippopolis_4AFCT,2022.2.2,60.009145267768794,
Camponello,stimuli/subj_files/student1_cityB.csv,./stimuli/leipzig.jpg,./stimuli/street_plate2.png,TENISZ UTCA,stimuli/objects/102a.jpg,object,0,stimuli/objects/102a.jpg,stimuli/objects/102b.jpg,stimuli/objects/102a.jpg,stimuli/scenes/038a.jpg,stimuli/scenes/038b.jpg,lure,target,dist1,dist2,0,0,0,1,0,25,25,75,,,,,,,182.77379198744893,183.830313667655,183.830313667655,183.830313667655,183.830313667655,183.830313667655,183.830313667655,183.830313667655,183.830313667655,183.830313667655,183.830313667655,183.830313667655,183.830313667655,f,2.6772444657981396,target,None,,,,,,,,,,,,,,,student1,2022-10-25_16h15.10.114,Hippopolis_4AFCT,2022.2.2,60.009145267768794,
Camponello,stimuli/subj_files/student1_cityB.csv,./stimuli/leipzig.jpg,./stimuli/street_plate2.png,VIHAR UTCA,stimuli/objects/048a.jpg,object,2,stimuli/scenes/054a.jpg,stimuli/scenes/054b.jpg,stimuli/scenes/100b.jpg,stimuli/scenes/054a.jpg,stimuli/scenes/100a.jpg,lure,dist2,target,dist1,0,0,0,1,0,26,26,65,,,,,,,186.54244677349925,187.57859473489225,187.57859473489225,187.57859473489225,187.57859473489225,187.57859473489225,187.57859473489225,187.57859473489225,187.57859473489225,187.57859473489225,187.57859473489225,187.57859473489225,187.57859473489225,j,3.889201231300831,target,None,191.03823699057102,,,,,,,,,,,,,,student1,2022-10-25_16h15.10.114,Hippopolis_4AFCT,2022.2.2,60.009145267768794,
Camponello,stimuli/subj_files/student1_cityB.csv,./stimuli/leipzig.jpg,./stimuli/street_plate2.png,MOSODA UTCA,stimuli/objects/052a.jpg,object,0,stimuli/objects/052a.jpg,stimuli/objects/052b.jpg,stimuli/scenes/035a.jpg,stimuli/objects/052a.jpg,stimuli/scenes/035b.jpg,lure,dist1,target,dist2,0,0,0,1,0,27,27,51,,,,,,,191.49535387568176,192.54867156594992,192.54867156594992,192.54867156594992,192.54867156594992,192.54867156594992,192.54867156594992,192.54867156594992,192.54867156594992,192.54867156594992,192.54867156594992,192.54867156594992,192.54867156594992,j,2.5830931905657053,target,None,,,,,,,,,,,,,,,student1,2022-10-25_16h15.10.114,Hippopolis_4AFCT,2022.2.2,60.009145267768794,
Camponello,stimuli/subj_files/student1_cityB.csv,./stimuli/leipzig.jpg,./stimuli/street_plate2.png,RIBIZLI UTCA,stimuli/objects/088a.jpg,object,0,stimuli/objects/088a.jpg,stimuli/objects/088b.jpg,stimuli/objects/065a.jpg,stimuli/objects/088a.jpg,stimuli/objects/065b.jpg,lure,dist1,target,dist2,0,0,0,1,0,28,28,34,,,,,,,195.1503190305084,196.22809364274144,196.22809364274144,196.22809364274144,196.22809364274144,196.22809364274144,196.22809364274144,196.22809364274144,196.22809364274144,196.22809364274144,196.22809364274144,196.22809364274144,196.22809364274144,j,1.847127042710781,target,None,,,,,,,,,,,,,,,student1,2022-10-25_16h15.10.114,Hippopolis_4AFCT,2022.2.2,60.009145267768794,
Camponello,stimuli/subj_files/student1_cityB.csv,./stimuli/leipzig.jpg,./stimuli/street_plate2.png,FÉSZEK UTCA,stimuli/objects/042a.jpg,object,1,stimuli/objects/044a.jpg,stimuli/scenes/020b.jpg,stimuli/objects/044a.jpg,stimuli/scenes/020a.jpg,stimuli/objects/044b.jpg,dist2,target,dist1,lure,0,0,0,1,0,29,29,10,,,,,,,198.09491883963346,199.15832122415304,199.15832122415304,199.15832122415304,199.15832122415304,199.15832122415304,199.15832122415304,199.15832122415304,199.15832122415304,199.15832122415304,199.15832122415304,199.15832122415304,199.15832122415304,f,2.725047392770648,target,None,,,,,,,,,,,,,,,student1,2022-10-25_16h15.10.114,Hippopolis_4AFCT,2022.2.2,60.009145267768794,
Camponello,stimuli/subj_files/student1_cityB.csv,./stimuli/leipzig.jpg,./stimuli/street_plate2.png,SAJTÓ UTCA,stimuli/scenes/112a.jpg,scene,0,stimuli/scenes/112a.jpg,stimuli/objects/018a.jpg,stimuli/scenes/112b.jpg,stimuli/scenes/112a.jpg,stimuli/objects/018b.jpg,dist1,lure,target,dist2,0,0,0,1,0,30,30,15,,,,,,,201.91284792125225,203.01398222520947,203.01398222520947,203.01398222520947,203.01398222520947,203.01398222520947,203.01398222520947,203.01398222520947,203.01398222520947,203.01398222520947,203.01398222520947,203.01398222520947,203.01398222520947,j,2.085563203319907,target,None,,203.01398222520947,,,,,,,,,,,,,student1,2022-10-25_16h15.10.114,Hippopolis_4AFCT,2022.2.2,60.009145267768794,
Camponello,stimuli/subj_files/student1_cityB.csv,./stimuli/leipzig.jpg,./stimuli/street_plate2.png,MANDARIN UTCA,stimuli/scenes/075a.jpg,scene,0,stimuli/scenes/075a.jpg,stimuli/objects/072a.jpg,stimuli/objects/072b.jpg,stimuli/scenes/075b.jpg,stimuli/scenes/075a.jpg,dist1,dist2,lure,target,0,0,0,1,0,31,31,37,,,,,,,205.1259392388165,206.18687347695231,206.18687347695231,206.18687347695231,206.18687347695231,206.18687347695231,206.18687347695231,206.18687347695231,206.18687347695231,206.18687347695231,206.18687347695231,206.18687347695231,206.18687347695231,k,2.2726239059120417,target,None,,,,,,,,,,,,,,,student1,2022-10-25_16h15.10.114,Hippopolis_4AFCT,2022.2.2,60.009145267768794,
Camponello,stimuli/subj_files/student1_cityB.csv,./stimuli/leipzig.jpg,./stimuli/street_plate2.png,SÜTŐ UTCA,stimuli/scenes/038a.jpg,scene,0,stimuli/scenes/038a.jpg,stimuli/scenes/038b.jpg,stimuli/objects/033b.jpg,stimuli/objects/033a.jpg,stimuli/scenes/038a.jpg,lure,dist2,dist1,target,0,0,0,1,0,32,32,5,,,,,,,208.47527685761452,209.53207813203335,209.53207813203335,209.53207813203335,209.53207813203335,209.53207813203335,209.53207813203335,209.53207813203335,209.53207813203335,209.53207813203335,209.53207813203335,209.53207813203335,209.53207813203335,k,1.85516313649714,target,None,,,,,,,,,,,,,,,student1,2022-10-25_16h15.10.114,Hippopolis_4AFCT,2022.2.2,60.009145267768794,
Camponello,stimuli/subj_files/student1_cityB.csv,./stimuli/leipzig.jpg,./stimuli/street_plate2.png,FÉSŰ UTCA,stimuli/objects/084a.jpg,object,0,stimuli/objects/084a.jpg,stimuli/objects/118b.jpg,stimuli/objects/118a.jpg,stimuli/objects/084a.jpg,stimuli/objects/084b.jpg,dist2,dist1,target,lure,0,0,0,1,0,33,33,23,,,,,,,211.42055652663112,212.49342905543745,212.49342905543745,212.49342905543745,212.49342905543745,212.49342905543745,212.49342905543745,212.49342905543745,212.49342905543745,212.49342905543745,212.49342905543745,212.49342905543745,212.49342905543745,j,2.8303121719509363,target,None,,,,,,,,,,,,,,,student1,2022-10-25_16h15.10.114,Hippopolis_4AFCT,2022.2.2,60.009145267768794,
Camponello,stimuli/subj_files/student1_cityB.csv,./stimuli/leipzig.jpg,./stimuli/street_plate2.png,LEGELŐ UTCA,stimuli/objects/030a.jpg,object,0,stimuli/objects/030a.jpg,stimuli/objects/039a.jpg,stimuli/objects/030a.jpg,stimuli/objects/030b.jpg,stimuli/objects/039b.jpg,dist1,target,lure,dist2,0,0,0,1,0,34,34,70,,,,,,,215.35839319042861,216.42837242782116,216.42837242782116,216.42837242782116,216.42837242782116,216.42837242782116,216.42837242782116,216.42837242782116,216.42837242782116,216.42837242782116,216.42837242782116,216.42837242782116,216.42837242782116,f,2.830730786547065,target,None,,,,,,,,,,,,,,,student1,2022-10-25_16h15.10.114,Hippopolis_4AFCT,2022.2.2,60.009145267768794,
Camponello,stimuli/subj_files/student1_cityB.csv,./stimuli/leipzig.jpg,./stimuli/street_plate2.png,BOHÓC UTCA,stimuli/objects/064a.jpg,object,0,stimuli/objects/064a.jpg,stimuli/objects/040b.jpg,stimuli/objects/040a.jpg,stimuli/objects/064a.jpg,stimuli/objects/064b.jpg,dist2,dist1,target,lure,0,0,0,1,0,35,35,17,,,,,,,219.2864673640579,220.34408192150295,220.34408192150295,220.34408192150295,220.34408192150295,220.34408192150295,220.34408192150295,220.34408192150295,220.34408192150295,220.34408192150295,220.34408192150295,220.34408192150295,220.34408192150295,j,2.0356659591197968,target,None,,,,,,,,,,,,,,,student1,2022-10-25_16h15.10.114,Hippopolis_4AFCT,2022.2.2,60.009145267768794,
Camponello,stimuli/subj_files/student1_cityB.csv,./stimuli/leipzig.jpg,./stimuli/street_plate2.png,TÁSKA UTCA,stimuli/objects/110a.jpg,object,2,stimuli/scenes/079a.jpg,stimuli/scenes/079a.jpg,stimuli/objects/037b.jpg,stimuli/objects/037a.jpg,stimuli/scenes/079b.jpg,target,dist2,dist1,lure,0,0,0,1,0,36,36,33,,,,,,,222.4118321761489,223.4518571421504,223.4518571421504,223.4518571421504,223.4518571421504,223.4518571421504,223.4518571421504,223.4518571421504,223.4518571421504,223.4518571421504,223.4518571421504,223.4518571421504,223.4518571421504,j,2.670810677111149,dist1,None,,223.4518571421504,,,,,,,,,,,,,student1,2022-10-25_16h15.10.114,Hippopolis_4AFCT,2022.2.2,60.009145267768794,
Camponello,stimuli/subj_files/student1_cityB.csv,./stimuli/leipzig.jpg,./stimuli/street_plate2.png,BETON UTCA,stimuli/objects/104a.jpg,object,2,stimuli/scenes/063a.jpg,stimuli/scenes/063b.jpg,stimuli/scenes/063a.jpg,stimuli/objects/054a.jpg,stimuli/objects/054b.jpg,lure,target,dist1,dist2,0,0,0,1,0,37,37,52,,,,,,,226.14164506085217,227.22171894460917,227.22171894460917,227.22171894460917,227.22171894460917,227.22171894460917,227.22171894460917,227.22171894460917,227.22171894460917,227.22171894460917,227.22171894460917,227.22171894460917,227.22171894460917,k,2.9649004992097616,dist2,None,,,,,,,,,,,,,,,student1,2022-10-25_16h15.10.114,Hippopolis_4AFCT,2022.2.2,60.009145267768794,
Camponello,stimuli/subj_files/student1_cityB.csv,./stimuli/leipzig.jpg,./stimuli/street_plate2.png,LABDA UTCA,stimuli/objects/082a.jpg,object,0,stimuli/objects/082a.jpg,stimuli/scenes/049a.jpg,stimuli/scenes/049b.jpg,stimuli/objects/082b.jpg,stimuli/objects/082a.jpg,dist1,dist2,lure,target,0,0,0,1,0,38,38,72,,,,,,,230.20787356235087,231.261512523517,231.261512523517,231.261512523517,231.261512523517,231.261512523517,231.261512523517,231.261512523517,231.261512523517,231.261512523517,231.261512523517,231.261512523517,231.261512523517,k,2.701999021694064,target,None,,,,,,,,,,,,,,,student1,2022-10-25_16h15.10.114,Hippopolis_4AFCT,2022.2.2,60.009145267768794,
Camponello,stimuli/subj_files/student1_cityB.csv,./stimuli/leipzig.jpg,./stimuli/street_plate2.png,VÁSÁR UTCA,stimuli/scenes/089a.jpg,scene,0,stimuli/scenes/089a.jpg,stimuli/scenes/089a.jpg,stimuli/scenes/089b.jpg,stimuli/scenes/082b.jpg,stimuli/scenes/082a.jpg,target,lure,dist2,dist1,0,0,0,1,0,39,39,41,,,,,,,233.98361276090145,235.02840048074722,235.02840048074722,235.02840048074722,235.02840048074722,235.02840048074722,235.02840048074722,235.02840048074722,235.02840048074722,235.02840048074722,235.02840048074722,235.02840048074722,235.02840048074722,d,2.40643160790205,target,None,,,,,,,,,,,,,,,student1,2022-10-25_16h15.10.114,Hippopolis_4AFCT,2022.2.2,60.009145267768794,
Camponello,stimuli/subj_files/student1_cityB.csv,./stimuli/leipzig.jpg,./stimuli/street_plate2.png,ÁLLOMÁS UTCA,stimuli/scenes/069a.jpg,scene,0,stimuli/scenes/069a.jpg,stimuli/scenes/106a.jpg,stimuli/scenes/106b.jpg,stimuli/scenes/069b.jpg,stimuli/scenes/069a.jpg,dist1,dist2,lure,target,0,0,0,1,0,40,40,42,,,,,,,237.45858358964324,238.51600749790668,238.51600749790668,238.51600749790668,238.51600749790668,238.51600749790668,238.51600749790668,238.51600749790668,238.51600749790668,238.51600749790668,238.51600749790668,238.51600749790668,238.51600749790668,k,2.615012088790536,target,None,,238.51600749790668,,,,,,,,,,,,,student1,2022-10-25_16h15.10.114,Hippopolis_4AFCT,2022.2.2,60.009145267768794,
Camponello,stimuli/subj_files/student1_cityB.csv,./stimuli/leipzig.jpg,./stimuli/street_plate2.png,FOLYÓ UTCA,stimuli/scenes/035a.jpg,scene,0,stimuli/scenes/035a.jpg,stimuli/objects/034a.jpg,stimuli/scenes/035a.jpg,stimuli/objects/034b.jpg,stimuli/scenes/035b.jpg,dist1,target,dist2,lure,0,0,0,1,0,41,41,61,,,,,,,241.16523738391697,242.22750957123935,242.22750957123935,242.22750957123935,242.22750957123935,242.22750957123935,242.22750957123935,242.22750957123935,242.22750957123935,242.22750957123935,242.22750957123935,242.22750957123935,242.22750957123935,f,2.695967985317111,target,None,,,,,,,,,,,,,,,student1,2022-10-25_16h15.10.114,Hippopolis_4AFCT,2022.2.2,60.009145267768794,
Camponello,stimuli/subj_files/student1_cityB.csv,./stimuli/leipzig.jpg,./stimuli/street_plate2.png,FEJSZE UTCA,stimuli/objects/065a.jpg,object,0,stimuli/objects/065a.jpg,stimuli/scenes/075b.jpg,stimuli/objects/065b.jpg,stimuli/objects/065a.jpg,stimuli/scenes/075a.jpg,dist2,lure,target,dist1,0,0,0,1,0,42,42,9,,,,,,,244.9562230501324,245.99902281723917,245.99902281723917,245.99902281723917,245.99902281723917,245.99902281723917,245.99902281723917,245.99902281723917,245.99902281723917,245.99902281723917,245.99902281723917,245.99902281723917,245.99902281723917,j,1.9316800385713577,target,None,,,,,,,,,,,,,,,student1,2022-10-25_16h15.10.114,Hippopolis_4AFCT,2022.2.2,60.009145267768794,
Camponello,stimuli/subj_files/student1_cityB.csv,./stimuli/leipzig.jpg,./stimuli/street_plate2.png,TERÍTŐ UTCA,stimuli/objects/098a.jpg,object,1,stimuli/objects/096a.jpg,stimuli/objects/096b.jpg,stimuli/objects/096a.jpg,stimuli/objects/013b.jpg,stimuli/objects/013a.jpg,lure,target,dist2,dist1,0,0,0,1,0,43,43,39,,,,,,,247.95727394148707,249.0168944876641,249.0168944876641,249.0168944876641,249.0168944876641,249.0168944876641,249.0168944876641,249.0168944876641,249.0168944876641,249.0168944876641,249.0168944876641,249.0168944876641,249.0168944876641,f,3.217746827751398,target,None,,,,,,,,,,,,,,,student1,2022-10-25_16h15.10.114,Hippopolis_4AFCT,2022.2.2,60.009145267768794,
Camponello,stimuli/subj_files/student1_cityB.csv,./stimuli/leipzig.jpg,./stimuli/street_plate2.png,TOLMÁCS UTCA,stimuli/scenes/082a.jpg,scene,0,stimuli/scenes/082a.jpg,stimuli/scenes/082b.jpg,stimuli/objects/081b.jpg,stimuli/objects/081a.jpg,stimuli/scenes/082a.jpg,lure,dist2,dist1,target,0,0,0,1,0,44,44,2,,,,,,,252.27359170094132,253.34709557332098,253.34709557332098,253.34709557332098,253.34709557332098,253.34709557332098,253.34709557332098,253.34709557332098,253.34709557332098,253.34709557332098,253.34709557332098,253.34709557332098,253.34709557332098,k,2.3916460536420345,target,space,,,255.761818241328,255.761818241328,1.9447074756026268,,,,,,,,,,student1,2022-10-25_16h15.10.114,Hippopolis_4AFCT,2022.2.2,60.009145267768794,
Camponello,stimuli/subj_files/student1_cityB.csv,./stimuli/leipzig.jpg,./stimuli/street_plate2.png,SÜTEMÉNY UTCA,stimuli/objects/074a.jpg,object,2,stimuli/scenes/102a.jpg,stimuli/objects/061b.jpg,stimuli/objects/061a.jpg,stimuli/scenes/102a.jpg,stimuli/scenes/102b.jpg,dist2,dist1,target,lure,0,0,0,1,0,45,45,32,,,,,,,257.7346680071205,258.8294664863497,258.8294664863497,258.8294664863497,258.8294664863497,258.8294664863497,258.8294664863497,258.8294664863497,258.8294664863497,258.8294664863497,258.8294664863497,258.8294664863497,258.8294664863497,j,2.6535911858081818,target,None,,,,,,,,,,,,,,,student1,2022-10-25_16h15.10.114,Hippopolis_4AFCT,2022.2.2,60.009145267768794,
Camponello,stimuli/subj_files/student1_cityB.csv,./stimuli/leipzig.jpg,./stimuli/street_plate2.png,FÜZET UTCA,stimuli/scenes/047a.jpg,scene,1,stimuli/scenes/012a.jpg,stimuli/scenes/012b.jpg,stimuli/objects/010b.jpg,stimuli/scenes/012a.jpg,stimuli/objects/010a.jpg,lure,dist2,target,dist1,0,0,0,1,0,46,46,56,,,,,,,261.5025347005576,262.54308371432126,262.54308371432126,262.54308371432126,262.54308371432126,262.54308371432126,262.54308371432126,262.54308371432126,262.54308371432126,262.54308371432126,262.54308371432126,262.54308371432126,262.54308371432126,j,2.667042523622513,target,None,,,,,,,,,,,,,,,student1,2022-10-25_16h15.10.114,Hippopolis_4AFCT,2022.2.2,60.009145267768794,
Camponello,stimuli/subj_files/student1_cityB.csv,./stimuli/leipzig.jpg,./stimuli/street_plate2.png,ZÁSZLÓ UTCA,stimuli/scenes/103a.jpg,scene,2,stimuli/objects/037a.jpg,stimuli/scenes/102b.jpg,stimuli/objects/037b.jpg,stimuli/scenes/102a.jpg,stimuli/objects/037a.jpg,dist2,lure,dist1,target,0,0,0,1,0,47,47,60,,,,,,,265.24117270484567,266.29376948438585,266.29376948438585,266.29376948438585,266.29376948438585,266.29376948438585,266.29376948438585,266.29376948438585,266.29376948438585,266.29376948438585,266.29376948438585,266.29376948438585,266.29376948438585,k,2.596977137029171,target,None,,,,,,,,,,,,,,,student1,2022-10-25_16h15.10.114,Hippopolis_4AFCT,2022.2.2,60.009145267768794,
Camponello,stimuli/subj_files/student1_cityB.csv,./stimuli/leipzig.jpg,./stimuli/street_plate2.png,TULIPÁN UTCA,stimuli/objects/058a.jpg,object,0,stimuli/objects/058a.jpg,stimuli/objects/117a.jpg,stimuli/objects/117b.jpg,stimuli/objects/058b.jpg,stimuli/objects/058a.jpg,dist1,dist2,lure,target,0,0,0,1,0,48,48,1,,,,,,,268.94158895500004,269.9827291928232,269.9827291928232,269.9827291928232,269.9827291928232,269.9827291928232,269.9827291928232,269.9827291928232,269.9827291928232,269.9827291928232,269.9827291928232,269.9827291928232,269.9827291928232,k,2.0757061671465635,target,None,,269.9827291928232,,,,,,,,,,,,,student1,2022-10-25_16h15.10.114,Hippopolis_4AFCT,2022.2.2,60.009145267768794,
Camponello,stimuli/subj_files/student1_cityB.csv,./stimuli/leipzig.jpg,./stimuli/street_plate2.png,TIGRIS UTCA,stimuli/scenes/021a.jpg,scene,0,stimuli/scenes/021a.jpg,stimuli/scenes/022b.jpg,stimuli/scenes/021a.jpg,stimuli/scenes/021b.jpg,stimuli/scenes/022a.jpg,dist2,target,lure,dist1,0,0,0,1,0,49,49,68,,,,,,,272.0947959907353,273.1583874691278,273.1583874691278,273.1583874691278,273.1583874691278,273.1583874691278,273.1583874691278,273.1583874691278,273.1583874691278,273.1583874691278,273.1583874691278,273.1583874691278,273.1583874691278,f,4.0200839173048735,target,None,276.5842765122652,,,,,,,,,,,,,,student1,2022-10-25_16h15.10.114,Hippopolis_4AFCT,2022.2.2,60.009145267768794,
Camponello,stimuli/subj_files/student1_cityB.csv,./stimuli/leipzig.jpg,./stimuli/street_plate2.png,LEMEZ UTCA,stimuli/scenes/022a.jpg,scene,0,stimuli/scenes/022a.jpg,stimuli/scenes/077b.jpg,stimuli/scenes/022a.jpg,stimuli/scenes/022b.jpg,stimuli/scenes/077a.jpg,dist2,target,lure,dist1,0,0,0,1,0,50,50,13,,,,,,,277.2002623025328,278.24743450805545,278.24743450805545,278.24743450805545,278.24743450805545,278.24743450805545,278.24743450805545,278.24743450805545,278.24743450805545,278.24743450805545,278.24743450805545,278.24743450805545,278.24743450805545,f,2.499299982562661,target,None,,,,,,,,,,,,,,,student1,2022-10-25_16h15.10.114,Hippopolis_4AFCT,2022.2.2,60.009145267768794,
Camponello,stimuli/subj_files/student1_cityB.csv,./stimuli/leipzig.jpg,./stimuli/street_plate2.png,LEVÉL UTCA,stimuli/scenes/019a.jpg,scene,0,stimuli/scenes/019a.jpg,stimuli/objects/052a.jpg,stimuli/scenes/019a.jpg,stimuli/scenes/019b.jpg,stimuli/objects/052b.jpg,dist1,target,lure,dist2,0,0,0,1,0,51,51,8,,,,,,,280.77481551095843,281.8385668452829,281.8385668452829,281.8385668452829,281.8385668452829,281.8385668452829,281.8385668452829,281.8385668452829,281.8385668452829,281.8385668452829,281.8385668452829,281.8385668452829,281.8385668452829,f,2.299920316785574,target,None,,,,,,,,,,,,,,,student1,2022-10-25_16h15.10.114,Hippopolis_4AFCT,2022.2.2,60.009145267768794,
Camponello,stimuli/subj_files/student1_cityB.csv,./stimuli/leipzig.jpg,./stimuli/street_plate2.png,BÚJÓCSKA UTCA,stimuli/scenes/015a.jpg,scene,1,stimuli/scenes/086a.jpg,stimuli/scenes/105b.jpg,stimuli/scenes/086a.jpg,stimuli/scenes/105a.jpg,stimuli/scenes/086b.jpg,dist2,target,dist1,lure,0,0,0,1,0,52,52,48,,,,,,,284.1578444521874,285.1943351421505,285.1943351421505,285.1943351421505,285.1943351421505,285.1943351421505,285.1943351421505,285.1943351421505,285.1943351421505,285.1943351421505,285.1943351421505,285.1943351421505,285.1943351421505,j,3.583923887461424,dist1,None,288.658041941002,,,,,,,,,,,,,,student1,2022-10-25_16h15.10.114,Hippopolis_4AFCT,2022.2.2,60.009145267768794,
Camponello,stimuli/subj_files/student1_cityB.csv,./stimuli/leipzig.jpg,./stimuli/street_plate2.png,SZŐLŐ UTCA,stimuli/scenes/099a.jpg,scene,0,stimuli/scenes/099a.jpg,stimuli/objects/105a.jpg,stimuli/scenes/099a.jpg,stimuli/scenes/099b.jpg,stimuli/objects/105b.jpg,dist1,target,lure,dist2,0,0,0,1,0,53,53,55,,,,,,,288.8146367687732,289.87740127928555,289.87740127928555,289.87740127928555,289.87740127928555,289.87740127928555,289.87740127928555,289.87740127928555,289.87740127928555,289.87740127928555,289.87740127928555,289.87740127928555,289.87740127928555,f,1.8452678453177214,target,None,,,,,,,,,,,,,,,student1,2022-10-25_16h15.10.114,Hippopolis_4AFCT,2022.2.2,60.009145267768794,
Camponello,stimuli/subj_files/student1_cityB.csv,./stimuli/leipzig.jpg,./stimuli/street_plate2.png,KALAPÁCS UTCA,stimuli/scenes/049a.jpg,scene,0,stimuli/scenes/049a.jpg,stimuli/objects/112b.jpg,stimuli/scenes/049a.jpg,stimuli/objects/112a.jpg,stimuli/scenes/049b.jpg,dist2,target,dist1,lure,0,0,0,1,0,54,54,3,,,,,,,291.7532254457474,292.83001821115613,292.83001821115613,292.83001821115613,292.83001821115613,292.83001821115613,292.83001821115613,292.83001821115613,292.83001821115613,292.83001821115613,292.83001821115613,292.83001821115613,292.83001821115613,f,2.300565032288432,target,None,,,,,,,,,,,,,,,student1,2022-10-25_16h15.10.114,Hippopolis_4AFCT,2022.2.2,60.009145267768794,
Camponello,stimuli/subj_files/student1_cityB.csv,./stimuli/leipzig.jpg,./stimuli/street_plate2.png,SZAXOFON UTCA,stimuli/objects/117a.jpg,object,0,stimuli/objects/117a.jpg,stimuli/scenes/021a.jpg,stimuli/objects/117a.jpg,stimuli/objects/117b.jpg,stimuli/scenes/021b.jpg,dist1,target,lure,dist2,0,0,0,1,0,55,55,20,,,,,,,295.1589967291802,296.2151532880962,296.2151532880962,296.2151532880962,296.2151532880962,296.2151532880962,296.2151532880962,296.2151532880962,296.2151532880962,296.2151532880962,296.2151532880962,296.2151532880962,296.2151532880962,f,2.643508981913328,target,None,,,,,,,,,,,,,,,student1,2022-10-25_16h15.10.114,Hippopolis_4AFCT,2022.2.2,60.009145267768794,
Camponello,stimuli/subj_files/student1_cityB.csv,./stimuli/leipzig.jpg,./stimuli/street_plate2.png,KÓKUSZ UTCA,stimuli/scenes/052a.jpg,scene,0,stimuli/scenes/052a.jpg,stimuli/scenes/052a.jpg,stimuli/objects/077b.jpg,stimuli/objects/077a.jpg,stimuli/scenes/052b.jpg,target,dist2,dist1,lure,0,0,0,1,0,56,56,19,,,,,,,298.8907335009426,299.9469982907176,299.9469982907176,299.9469982907176,299.9469982907176,299.9469982907176,299.9469982907176,299.9469982907176,299.9469982907176,299.9469982907176,299.9469982907176,299.9469982907176,299.9469982907176,d,2.9592610206454992,target,None,,,,,,,,,,,,,,,student1,2022-10-25_16h15.10.114,Hippopolis_4AFCT,2022.2.2,60.009145267768794,
Camponello,stimuli/subj_files/student1_cityB.csv,./stimuli/leipzig.jpg,./stimuli/street_plate2.png,HENTES UTCA,stimuli/scenes/092a.jpg,scene,0,stimuli/scenes/092a.jpg,stimuli/scenes/114b.jpg,stimuli/scenes/114a.jpg,stimuli/scenes/092a.jpg,stimuli/scenes/092b.jpg,dist2,dist1,target,lure,0,0,0,1,0,57,57,46,,,,,,,302.93704328686,304.0333778280765,304.0333778280765,304.0333778280765,304.0333778280765,304.0333778280765,304.0333778280765,304.0333778280765,304.0333778280765,304.0333778280765,304.0333778280765,304.0333778280765,304.0333778280765,j,2.5051130037754774,target,None,,,,,,,,,,,,,,,student1,2022-10-25_16h15.10.114,Hippopolis_4AFCT,2022.2.2,60.009145267768794,
Camponello,stimuli/subj_files/student1_cityB.csv,./stimuli/leipzig.jpg,./stimuli/street_plate2.png,FÜGE UTCA,stimuli/scenes/115a.jpg,scene,0,stimuli/scenes/115a.jpg,stimuli/scenes/115b.jpg,stimuli/scenes/115a.jpg,stimuli/objects/084b.jpg,stimuli/objects/084a.jpg,lure,target,dist2,dist1,0,0,0,1,0,58,58,47,,,,,,,306.57136539183557,307.6149364542216,307.6149364542216,307.6149364542216,307.6149364542216,307.6149364542216,307.6149364542216,307.6149364542216,307.6149364542216,307.6149364542216,307.6149364542216,307.6149364542216,307.6149364542216,f,2.939541347324848,target,None,,,,,,,,,,,,,,,student1,2022-10-25_16h15.10.114,Hippopolis_4AFCT,2022.2.2,60.009145267768794,
Camponello,stimuli/subj_files/student1_cityB.csv,./stimuli/leipzig.jpg,./stimuli/street_plate2.png,PÁRNA UTCA,stimuli/objects/112a.jpg,object,0,stimuli/objects/112a.jpg,stimuli/objects/112b.jpg,stimuli/scenes/032b.jpg,stimuli/scenes/032a.jpg,stimuli/objects/112a.jpg,lure,dist2,dist1,target,0,0,0,1,0,59,59,77,,,,,,,310.5761925224215,311.62476207874715,311.62476207874715,311.62476207874715,311.62476207874715,311.62476207874715,311.62476207874715,311.62476207874715,311.62476207874715,311.62476207874715,311.62476207874715,311.62476207874715,311.62476207874715,k,1.3138568233698606,target,None,,,,,,,,,,,,,,,student1,2022-10-25_16h15.10.114,Hippopolis_4AFCT,2022.2.2,60.009145267768794,
Camponello,stimuli/subj_files/student1_cityB.csv,./stimuli/leipzig.jpg,./stimuli/street_plate2.png,MAJOM UTCA,stimuli/objects/018a.jpg,object,0,stimuli/objects/018a.jpg,stimuli/objects/018a.jpg,stimuli/scenes/092b.jpg,stimuli/objects/018b.jpg,stimuli/scenes/092a.jpg,target,dist2,lure,dist1,0,0,0,1,0,60,60,78,,,,,,,312.9661805424839,314.0315183196217,314.0315183196217,314.0315183196217,314.0315183196217,314.0315183196217,314.0315183196217,314.0315183196217,314.0315183196217,314.0315183196217,314.0315183196217,314.0315183196217,314.0315183196217,d,1.8029209040105343,target,None,,,,,,,,,,,,,,,student1,2022-10-25_16h15.10.114,Hippopolis_4AFCT,2022.2.2,60.009145267768794,
Camponello,stimuli/subj_files/student1_cityB.csv,./stimuli/leipzig.jpg,./stimuli/street_plate2.png,ORVOS UTCA,stimuli/objects/016a.jpg,object,0,stimuli/objects/016a.jpg,stimuli/scenes/089a.jpg,stimuli/scenes/089b.jpg,stimuli/objects/016a.jpg,stimuli/objects/016b.jpg,dist1,dist2,target,lure,0,0,0,1,0,61,61,4,,,,,,,315.8573335930705,316.8995023276657,316.8995023276657,316.8995023276657,316.8995023276657,316.8995023276657,316.8995023276657,316.8995023276657,316.8995023276657,316.8995023276657,316.8995023276657,316.8995023276657,316.8995023276657,j,2.1668717805296183,target,None,,,,,,,,,,,,,,,student1,2022-10-25_16h15.10.114,Hippopolis_4AFCT,2022.2.2,60.009145267768794,
Camponello,stimuli/subj_files/student1_cityB.csv,./stimuli/leipzig.jpg,./stimuli/street_plate2.png,ECSET UTCA,stimuli/scenes/003a.jpg,scene,2,stimuli/objects/005a.jpg,stimuli/objects/035b.jpg,stimuli/objects/005b.jpg,stimuli/objects/035a.jpg,stimuli/objects/005a.jpg,dist2,lure,dist1,target,0,0,0,1,0,62,62,11,,,,,,,319.09059771709144,320.14909832924604,320.14909832924604,320.14909832924604,320.14909832924604,320.14909832924604,320.14909832924604,320.14909832924604,320.14909832924604,320.14909832924604,320.14909832924604,320.14909832924604,320.14909832924604,j,3.5564831737428904,dist1,None,323.5894923992455,,,,,,,,,,,,,,student1,2022-10-25_16h15.10.114,Hippopolis_4AFCT,2022.2.2,60.009145267768794,
Camponello,stimuli/subj_files/student1_cityB.csv,./stimuli/leipzig.jpg,./stimuli/street_plate2.png,BANÁN UTCA,stimuli/scenes/045a.jpg,scene,0,stimuli/scenes/045a.jpg,stimuli/scenes/045b.jpg,stimuli/scenes/045a.jpg,stimuli/scenes/112b.jpg,stimuli/scenes/112a.jpg,lure,target,dist2,dist1,0,0,0,1,0,63,63,57,,,,,,,323.7231368217617,324.77428866550326,324.77428866550326,324.77428866550326,324.77428866550326,324.77428866550326,324.77428866550326,324.77428866550326,324.77428866550326,324.77428866550326,324.77428866550326,324.77428866550326,324.77428866550326,f,2.0837640315294266,target,None,,,,,,,,,,,,,,,student1,2022-10-25_16h15.10.114,Hippopolis_4AFCT,2022.2.2,60.009145267768794,
Camponello,stimuli/subj_files/student1_cityB.csv,./stimuli/leipzig.jpg,./stimuli/street_plate2.png,KUTYA UTCA,stimuli/scenes/030a.jpg,scene,0,stimuli/scenes/030a.jpg,stimuli/scenes/030b.jpg,stimuli/scenes/052b.jpg,stimuli/scenes/052a.jpg,stimuli/scenes/030a.jpg,lure,dist2,dist1,target,0,0,0,1,0,64,64,35,,,,,,,326.89035904966295,327.9294873867184,327.9294873867184,327.9294873867184,327.9294873867184,327.9294873867184,327.9294873867184,327.9294873867184,327.9294873867184,327.9294873867184,327.9294873867184,327.9294873867184,327.9294873867184,k,1.9684895109385252,target,None,,327.9294873867184,,,,,,,,,,,,,student1,2022-10-25_16h15.10.114,Hippopolis_4AFCT,2022.2.2,60.009145267768794,
Camponello,stimuli/subj_files/student1_cityB.csv,./stimuli/leipzig.jpg,./stimuli/street_plate2.png,KESELYŰ UTCA,stimuli/objects/003a.jpg,object,2,stimuli/scenes/100a.jpg,stimuli/objects/029a.jpg,stimuli/scenes/100b.jpg,stimuli/objects/029b.jpg,stimuli/scenes/100a.jpg,dist1,lure,dist2,target,0,0,0,1,0,65,65,6,,,,,,,329.92609088495374,330.978262828663,330.978262828663,330.978262828663,330.978262828663,330.978262828663,330.978262828663,330.978262828663,330.978262828663,330.978262828663,330.978262828663,330.978262828663,330.978262828663,k,3.0796910915523767,target,None,,,,,,,,,,,,,,,student1,2022-10-25_16h15.10.114,Hippopolis_4AFCT,2022.2.2,60.009145267768794,
Camponello,stimuli/subj_files/student1_cityB.csv,./stimuli/leipzig.jpg,./stimuli/street_plate2.png,KOCSI UTCA,stimuli/scenes/114a.jpg,scene,0,stimuli/scenes/114a.jpg,stimuli/objects/082b.jpg,stimuli/scenes/114b.jpg,stimuli/scenes/114a.jpg,stimuli/objects/082a.jpg,dist2,lure,target,dist1,0,0,0,1,0,66,66,69,,,,,,,334.08112757094204,335.1497785001993,335.1497785001993,335.1497785001993,335.1497785001993,335.1497785001993,335.1497785001993,335.1497785001993,335.1497785001993,335.1497785001993,335.1497785001993,335.1497785001993,335.1497785001993,j,1.659895908087492,target,None,,,,,,,,,,,,,,,student1,2022-10-25_16h15.10.114,Hippopolis_4AFCT,2022.2.2,60.009145267768794,
Camponello,stimuli/subj_files/student1_cityB.csv,./stimuli/leipzig.jpg,./stimuli/street_plate2.png,TÁNYÉR UTCA,stimuli/objects/118a.jpg,object,0,stimuli/objects/118a.jpg,stimuli/objects/102b.jpg,stimuli/objects/102a.jpg,stimuli/objects/118b.jpg,stimuli/objects/118a.jpg,dist2,dist1,lure,target,0,0,0,1,0,67,67,28,,,,,,,336.82810676656663,337.89157321862876,337.89157321862876,337.89157321862876,337.89157321862876,337.89157321862876,337.89157321862876,337.89157321862876,337.89157321862876,337.89157321862876,337.89157321862876,337.89157321862876,337.89157321862876,k,2.117867436259985,target,None,,,,,,,,,,,,,,,student1,2022-10-25_16h15.10.114,Hippopolis_4AFCT,2022.2.2,60.009145267768794,
Camponello,stimuli/subj_files/student1_cityB.csv,./stimuli/leipzig.jpg,./stimuli/street_plate2.png,PAPRIKA UTCA,stimuli/objects/033a.jpg,object,0,stimuli/objects/033a.jpg,stimuli/scenes/023a.jpg,stimuli/objects/033b.jpg,stimuli/scenes/023b.jpg,stimuli/objects/033a.jpg,dist1,lure,dist2,target,0,0,0,1,0,68,68,30,,,,,,,340.0482545066625,341.1102035585791,341.1102035585791,341.1102035585791,341.1102035585791,341.1102035585791,341.1102035585791,341.1102035585791,341.1102035585791,341.1102035585791,341.1102035585791,341.1102035585791,341.1102035585791,k,3.347469149157405,target,None,,,,,,,,,,,,,,,student1,2022-10-25_16h15.10.114,Hippopolis_4AFCT,2022.2.2,60.009145267768794,
Camponello,stimuli/subj_files/student1_cityB.csv,./stimuli/leipzig.jpg,./stimuli/street_plate2.png,HORGONY UTCA,stimuli/objects/039a.jpg,object,0,stimuli/objects/039a.jpg,stimuli/objects/039b.jpg,stimuli/objects/039a.jpg,stimuli/objects/092b.jpg,stimuli/objects/092a.jpg,lure,target,dist2,dist1,0,0,0,1,0,69,69,26,,,,,,,344.48214387893677,345.5380214639008,345.5380214639008,345.5380214639008,345.5380214639008,345.5380214639008,345.5380214639008,345.5380214639008,345.5380214639008,345.5380214639008,345.5380214639008,345.5380214639008,345.5380214639008,f,2.8393892031162977,target,None,,,,,,,,,,,,,,,student1,2022-10-25_16h15.10.114,Hippopolis_4AFCT,2022.2.2,60.009145267768794,
Camponello,stimuli/subj_files/student1_cityB.csv,./stimuli/leipzig.jpg,./stimuli/street_plate2.png,MÁRVÁNY UTCA,stimuli/scenes/023a.jpg,scene,0,stimuli/scenes/023a.jpg,stimuli/objects/030a.jpg,stimuli/scenes/023b.jpg,stimuli/objects/030b.jpg,stimuli/scenes/023a.jpg,dist1,lure,dist2,target,0,0,0,1,0,70,70,58,,,,,,,348.3943489510566,349.4338237475604,349.4338237475604,349.4338237475604,349.4338237475604,349.4338237475604,349.4338237475604,349.4338237475604,349.4338237475604,349.4338237475604,349.4338237475604,349.4338237475604,349.4338237475604,k,3.2635807748883963,target,None,,,,,,,,,,,,,,,student1,2022-10-25_16h15.10.114,Hippopolis_4AFCT,2022.2.2,60.009145267768794,
Camponello,stimuli/subj_files/student1_cityB.csv,./stimuli/leipzig.jpg,./stimuli/street_plate2.png,MENTA UTCA,stimuli/objects/092a.jpg,object,0,stimuli/objects/092a.jpg,stimuli/scenes/069a.jpg,stimuli/scenes/069b.jpg,stimuli/objects/092a.jpg,stimuli/objects/092b.jpg,dist1,dist2,target,lure,0,0,0,1,0,71,71,67,,,,,,,352.72362603619695,353.7602585442364,353.7602585442364,353.7602585442364,353.7602585442364,353.7602585442364,353.7602585442364,353.7602585442364,353.7602585442364,353.7602585442364,353.7602585442364,353.7602585442364,353.7602585442364,j,2.569759411737323,target,None,,,,,,,,,,,,,,,student1,2022-10-25_16h15.10.114,Hippopolis_4AFCT,2022.2.2,60.009145267768794,
Camponello,stimuli/subj_files/student1_cityB.csv,./stimuli/leipzig.jpg,./stimuli/street_plate2.png,SZILVA UTCA,stimuli/objects/105a.jpg,object,0,stimuli/objects/105a.jpg,stimuli/objects/049b.jpg,stimuli/objects/105b.jpg,stimuli/objects/049a.jpg,stimuli/objects/105a.jpg,dist2,lure,dist1,target,0,0,0,1,0,72,72,36,,,,,,,356.3494959194213,357.4269993342459,357.4269993342459,357.4269993342459,357.4269993342459,357.4269993342459,357.4269993342459,357.4269993342459,357.4269993342459,357.4269993342459,357.4269993342459,357.4269993342459,357.4269993342459,f,2.758683044463396,lure,None,,,,,,,,,,,,,,,student1,2022-10-25_16h15.10.114,Hippopolis_4AFCT,2022.2.2,60.009145267768794,
Camponello,stimuli/subj_files/student1_cityB.csv,./stimuli/leipzig.jpg,./stimuli/street_plate2.png,SZALVÉTA UTCA,stimuli/objects/072a.jpg,object,0,stimuli/objects/072a.jpg,stimuli/scenes/045b.jpg,stimuli/scenes/045a.jpg,stimuli/objects/072b.jpg,stimuli/objects/072a.jpg,dist2,dist1,lure,target,0,0,0,1,0,73,73,54,,,,,,,360.21412976644933,361.2589386347681,361.2589386347681,361.2589386347681,361.2589386347681,361.2589386347681,361.2589386347681,361.2589386347681,361.2589386347681,361.2589386347681,361.2589386347681,361.2589386347681,361.2589386347681,k,2.254216995090246,target,None,,,,,,,,,,,,,,,student1,2022-10-25_16h15.10.114,Hippopolis_4AFCT,2022.2.2,60.009145267768794,
Camponello,stimuli/subj_files/student1_cityB.csv,./stimuli/leipzig.jpg,./stimuli/street_plate2.png,SZÖCSKE UTCA,stimuli/scenes/026a.jpg,scene,2,stimuli/objects/061a.jpg,stimuli/scenes/063a.jpg,stimuli/objects/061a.jpg,stimuli/scenes/063b.jpg,stimuli/objects/061b.jpg,dist1,target,dist2,lure,0,0,0,1,0,74,74,71,,,,,,,363.5443383138627,364.58231717161834,364.58231717161834,364.58231717161834,364.58231717161834,364.58231717161834,364.58231717161834,364.58231717161834,364.58231717161834,364.58231717161834,364.58231717161834,364.58231717161834,364.58231717161834,d,2.0528817176818848,dist1,None,,,,,,,,,,,,,,,student1,2022-10-25_16h15.10.114,Hippopolis_4AFCT,2022.2.2,60.009145267768794,
Camponello,stimuli/subj_files/student1_cityB.csv,./stimuli/leipzig.jpg,./stimuli/street_plate2.png,VITORLA UTCA,stimuli/scenes/110a.jpg,scene,1,stimuli/scenes/062a.jpg,stimuli/scenes/107a.jpg,stimuli/scenes/107b.jpg,stimuli/scenes/062b.jpg,stimuli/scenes/062a.jpg,dist1,dist2,lure,target,0,0,0,1,0,75,75,45,,,,,,,366.66157715022564,367.6955126132816,367.6955126132816,367.6955126132816,367.6955126132816,367.6955126132816,367.6955126132816,367.6955126132816,367.6955126132816,367.6955126132816,367.6955126132816,367.6955126132816,367.6955126132816,k,3.433555096387863,target,None,371.1575605031103,,,,,,,,,,,,,,student1,2022-10-25_16h15.10.114,Hippopolis_4AFCT,2022.2.2,60.009145267768794,
Camponello,stimuli/subj_files/student1_cityB.csv,./stimuli/leipzig.jpg,./stimuli/street_plate2.png,KÁRTYA UTCA,stimuli/scenes/076a.jpg,scene,0,stimuli/scenes/076a.jpg,stimuli/objects/008a.jpg,stimuli/scenes/076b.jpg,stimuli/scenes/076a.jpg,stimuli/objects/008b.jpg,dist1,lure,target,dist2,0,0,0,1,0,76,76,64,,,,,,,371.1575605031103,372.19794748164713,372.19794748164713,372.19794748164713,372.19794748164713,372.19794748164713,372.19794748164713,372.19794748164713,372.19794748164713,372.19794748164713,372.19794748164713,372.19794748164713,372.19794748164713,j,2.531360385939479,target,None,,,,,,,,,,,,,,,student1,2022-10-25_16h15.10.114,Hippopolis_4AFCT,2022.2.2,60.009145267768794,
Camponello,stimuli/subj_files/student1_cityB.csv,./stimuli/leipzig.jpg,./stimuli/street_plate2.png,SIRÁLY UTCA,stimuli/objects/081a.jpg,object,0,stimuli/objects/081a.jpg,stimuli/objects/081a.jpg,stimuli/objects/081b.jpg,stimuli/scenes/019a.jpg,stimuli/scenes/019b.jpg,target,lure,dist1,dist2,0,0,0,1,0,77,77,50,,,,,,,374.756546061486,375.81033088453114,375.81033088453114,375.81033088453114,375.81033088453114,375.81033088453114,375.81033088453114,375.81033088453114,375.81033088453114,375.81033088453114,375.81033088453114,375.81033088453114,375.81033088453114,d,2.3266413640230894,target,None,,,,,,,,,,,,,,,student1,2022-10-25_16h15.10.114,Hippopolis_4AFCT,2022.2.2,60.009145267768794,
Camponello,stimuli/subj_files/student1_cityB.csv,./stimuli/leipzig.jpg,./stimuli/street_plate2.png,REPÜLŐ UTCA,stimuli/scenes/098a.jpg,scene,0,stimuli/scenes/098a.jpg,stimuli/scenes/013a.jpg,stimuli/scenes/013b.jpg,stimuli/scenes/098a.jpg,stimuli/scenes/098b.jpg,dist1,dist2,target,lure,0,0,0,1,0,78,78,66,,,,,,,378.15650090388954,379.203024039045,379.203024039045,379.203024039045,379.203024039045,379.203024039045,379.203024039045,379.203024039045,379.203024039045,379.203024039045,379.203024039045,379.203024039045,379.203024039045,j,2.5825507938861847,target,None,,,,,,,,,,,,,,,student1,2022-10-25_16h15.10.114,Hippopolis_4AFCT,2022.2.2,60.009145267768794,
Camponello,stimuli/subj_files/student1_cityB.csv,./stimuli/leipzig.jpg,./stimuli/street_plate2.png,KRÉTA UTCA,stimuli/scenes/091a.jpg,scene,0,stimuli/scenes/091a.jpg,stimuli/scenes/098b.jpg,stimuli/scenes/091b.jpg,stimuli/scenes/098a.jpg,stimuli/scenes/091a.jpg,dist2,lure,dist1,target,0,0,0,1,0,79,79,21,,,,,,,381.8140362147242,382.8602197319269,382.8602197319269,382.8602197319269,382.8602197319269,382.8602197319269,382.8602197319269,382.8602197319269,382.8602197319269,382.8602197319269,382.8602197319269,382.8602197319269,382.8602197319269,k,1.9493638630956411,target,None,,,,,,,,,,,,,,,student1,2022-10-25_16h15.10.114,Hippopolis_4AFCT,2022.2.2,60.009145267768794,
Hippopolis,stimuli/subj_files/student1_cityA.csv,./stimuli/frankfurt.jpg,./stimuli/street_plate1.png,KOKTÉL UTCA,stimuli/scenes/008a.jpg,scene,2,stimuli/objects/012a.jpg,stimuli/objects/036b.jpg,stimuli/objects/012b.jpg,stimuli/objects/036a.jpg,stimuli/objects/012a.jpg,dist2,lure,dist1,target,0,1,1,0,0,0,0,46,,,,,389.2026962377131,389.2026962377131,392.19434976018965,393.24228113144636,393.24228113144636,393.24228113144636,393.24228113144636,393.24228113144636,393.24228113144636,393.24228113144636,393.24228113144636,393.24228113144636,393.24228113144636,393.24228113144636,393.24228113144636,k,4.1584674548357725,target,None,396.6410227380693,,,,,63,4,10,3,384.8398083820939,384.8398083820939,space,4.289149232208729,,student1,2022-10-25_16h15.10.114,Hippopolis_4AFCT,2022.2.2,60.009145267768794,
Hippopolis,stimuli/subj_files/student1_cityA.csv,./stimuli/frankfurt.jpg,./stimuli/street_plate1.png,SIVATAG UTCA,stimuli/scenes/016a.jpg,scene,2,stimuli/objects/046a.jpg,stimuli/objects/046b.jpg,stimuli/objects/006a.jpg,stimuli/objects/006b.jpg,stimuli/objects/046a.jpg,lure,dist1,dist2,target,0,1,1,0,0,1,1,23,,,,,,,397.4420215655118,398.51324762776494,398.51324762776494,398.51324762776494,398.51324762776494,398.51324762776494,398.51324762776494,398.51324762776494,398.51324762776494,398.51324762776494,398.51324762776494,398.51324762776494,398.51324762776494,f,2.439917666837573,dist1,None,,,,,,,,,,,,,,,student1,2022-10-25_16h15.10.114,Hippopolis_4AFCT,2022.2.2,60.009145267768794,
Hippopolis,stimuli/subj_files/student1_cityA.csv,./stimuli/frankfurt.jpg,./stimuli/street_plate1.png,KÖNYVTÁR UTCA,stimuli/objects/113a.jpg,object,1,stimuli/objects/109a.jpg,stimuli/objects/109a.jpg,stimuli/objects/109b.jpg,stimuli/scenes/067a.jpg,stimuli/scenes/067b.jpg,target,lure,dist1,dist2,0,1,1,0,0,2,2,42,,,,,,,400.97293871082366,402.04625069350004,402.04625069350004,402.04625069350004,402.04625069350004,402.04625069350004,402.04625069350004,402.04625069350004,402.04625069350004,402.04625069350004,402.04625069350004,402.04625069350004,402.04625069350004,d,1.5631194282323122,target,None,,,,,,,,,,,,,,,student1,2022-10-25_16h15.10.114,Hippopolis_4AFCT,2022.2.2,60.009145267768794,
Hippopolis,stimuli/subj_files/student1_cityA.csv,./stimuli/frankfurt.jpg,./stimuli/street_plate1.png,KÖTÉL UTCA,stimuli/objects/051a.jpg,object,0,stimuli/objects/051a.jpg,stimuli/scenes/024b.jpg,stimuli/objects/051b.jpg,stimuli/scenes/024a.jpg,stimuli/objects/051a.jpg,dist2,lure,dist1,target,0,1,1,0,0,3,3,7,,,,,,,403.64152687974274,404.6962633822113,404.6962633822113,404.6962633822113,404.6962633822113,404.6962633822113,404.6962633822113,404.6962633822113,404.6962633822113,404.6962633822113,404.6962633822113,404.6962633822113,404.6962633822113,k,2.3693027310073376,target,None,,,,,,,,,,,,,,,student1,2022-10-25_16h15.10.114,Hippopolis_4AFCT,2022.2.2,60.009145267768794,
Hippopolis,stimuli/subj_files/student1_cityA.csv,./stimuli/frankfurt.jpg,./stimuli/street_plate1.png,ZSEMLE UTCA,stimuli/objects/115a.jpg,object,1,stimuli/objects/053a.jpg,stimuli/objects/007a.jpg,stimuli/objects/053a.jpg,stimuli/objects/007b.jpg,stimuli/objects/053b.jpg,dist1,target,dist2,lure,0,1,1,0,0,4,4,47,,,,,,,407.099417546764,408.1833224054426,408.1833224054426,408.1833224054426,408.1833224054426,408.1833224054426,408.1833224054426,408.1833224054426,408.1833224054426,408.1833224054426,408.1833224054426,408.1833224054426,408.1833224054426,f,2.9458084385842085,target,None,,,,,,,,,,,,,,,student1,2022-10-25_16h15.10.114,Hippopolis_4AFCT,2022.2.2,60.009145267768794,
Hippopolis,stimuli/subj_files/student1_cityA.csv,./stimuli/frankfurt.jpg,./stimuli/street_plate1.png,ÁLOM UTCA,stimuli/objects/070a.jpg,object,0,stimuli/objects/070a.jpg,stimuli/objects/070b.jpg,stimuli/objects/114b.jpg,stimuli/objects/114a.jpg,stimuli/objects/070a.jpg,lure,dist2,dist1,target,0,1,1,0,0,5,5,50,,,,,,,411.1579203363508,412.2138899806887,412.2138899806887,412.2138899806887,412.2138899806887,412.2138899806887,412.2138899806887,412.2138899806887,412.2138899806887,412.2138899806887,412.2138899806887,412.2138899806887,412.2138899806887,k,1.987481739372015,target,None,,,,,,,,,,,,,,,student1,2022-10-25_16h15.10.114,Hippopolis_4AFCT,2022.2.2,60.009145267768794,
Hippopolis,stimuli/subj_files/student1_cityA.csv,./stimuli/frankfurt.jpg,./stimuli/street_plate1.png,FÓKA UTCA,stimuli/scenes/058a.jpg,scene,0,stimuli/scenes/058a.jpg,stimuli/scenes/058a.jpg,stimuli/scenes/058b.jpg,stimuli/objects/111b.jpg,stimuli/objects/111a.jpg,target,lure,dist2,dist1,0,1,1,0,0,6,6,51,,,,,,,414.2229035682976,415.3089027442038,415.3089027442038,415.3089027442038,415.3089027442038,415.3089027442038,415.3089027442038,415.3089027442038,415.3089027442038,415.3089027442038,415.3089027442038,415.3089027442038,415.3089027442038,d,2.7000387459993362,target,None,,,,,,,,,,,,,,,student1,2022-10-25_16h15.10.114,Hippopolis_4AFCT,2022.2.2,60.009145267768794,
Hippopolis,stimuli/subj_files/student1_cityA.csv,./stimuli/frankfurt.jpg,./stimuli/street_plate1.png,MÁLNA UTCA,stimuli/objects/069a.jpg,object,2,stimuli/scenes/053a.jpg,stimuli/objects/073a.jpg,stimuli/objects/073b.jpg,stimuli/scenes/053b.jpg,stimuli/scenes/053a.jpg,dist1,dist2,lure,target,0,1,1,0,0,7,7,14,,,,,,,418.0392685998231,419.0924248788506,419.0924248788506,419.0924248788506,419.0924248788506,419.0924248788506,419.0924248788506,419.0924248788506,419.0924248788506,419.0924248788506,419.0924248788506,419.0924248788506,419.0924248788506,d,2.244398210197687,dist1,None,,,,,,,,,,,,,,,student1,2022-10-25_16h15.10.114,Hippopolis_4AFCT,2022.2.2,60.009145267768794,
Hippopolis,stimuli/subj_files/student1_cityA.csv,./stimuli/frankfurt.jpg,./stimuli/street_plate1.png,DOMINÓ UTCA,stimuli/scenes/042a.jpg,scene,0,stimuli/scenes/042a.jpg,stimuli/scenes/042a.jpg,stimuli/scenes/042b.jpg,stimuli/objects/070a.jpg,stimuli/objects/070b.jpg,target,lure,dist1,dist2,0,1,1,0,0,8,8,63,,,,,,,421.35604913532734,422.4328145328909,422.4328145328909,422.4328145328909,422.4328145328909,422.4328145328909,422.4328145328909,422.4328145328909,422.4328145328909,422.4328145328909,422.4328145328909,422.4328145328909,422.4328145328909,d,2.1199757494032383,target,None,,,,,,,,,,,,,,,student1,2022-10-25_16h15.10.114,Hippopolis_4AFCT,2022.2.2,60.009145267768794,
Hippopolis,stimuli/subj_files/student1_cityA.csv,./stimuli/frankfurt.jpg,./stimuli/street_plate1.png,PAPAGÁJ UTCA,stimuli/objects/093a.jpg,object,2,stimuli/scenes/097a.jpg,stimuli/scenes/097a.jpg,stimuli/scenes/109b.jpg,stimuli/scenes/109a.jpg,stimuli/scenes/097b.jpg,target,dist2,dist1,lure,0,1,1,0,0,9,9,55,,,,,,,424.58031397871673,425.63077974133193,425.63077974133193,425.63077974133193,425.63077974133193,425.63077974133193,425.63077974133193,425.63077974133193,425.63077974133193,425.63077974133193,425.63077974133193,425.63077974133193,425.63077974133193,j,2.3776202872395515,dist1,None,,425.63077974133193,,,,,,,,,,,,,student1,2022-10-25_16h15.10.114,Hippopolis_4AFCT,2022.2.2,60.009145267768794,
Hippopolis,stimuli/subj_files/student1_cityA.csv,./stimuli/frankfurt.jpg,./stimuli/street_plate1.png,MOTOR UTCA,stimuli/objects/097a.jpg,object,1,stimuli/objects/071a.jpg,stimuli/objects/015b.jpg,stimuli/objects/071b.jpg,stimuli/objects/071a.jpg,stimuli/objects/015a.jpg,dist2,lure,target,dist1,0,1,1,0,0,10,10,36,,,,,,,428.0407331287861,429.1198547091335,429.1198547091335,429.1198547091335,429.1198547091335,429.1198547091335,429.1198547091335,429.1198547091335,429.1198547091335,429.1198547091335,429.1198547091335,429.1198547091335,429.1198547091335,j,2.6329201459884644,target,None,,,,,,,,,,,,,,,student1,2022-10-25_16h15.10.114,Hippopolis_4AFCT,2022.2.2,60.009145267768794,
Hippopolis,stimuli/subj_files/student1_cityA.csv,./stimuli/frankfurt.jpg,./stimuli/street_plate1.png,HARMONIKA UTCA,stimuli/scenes/024a.jpg,scene,0,stimuli/scenes/024a.jpg,stimuli/scenes/101b.jpg,stimuli/scenes/024b.jpg,stimuli/scenes/101a.jpg,stimuli/scenes/024a.jpg,dist2,lure,dist1,target,0,1,1,0,0,11,11,25,,,,,,,431.78995654545724,432.8268319517374,432.8268319517374,432.8268319517374,432.8268319517374,432.8268319517374,432.8268319517374,432.8268319517374,432.8268319517374,432.8268319517374,432.8268319517374,432.8268319517374,432.8268319517374,k,2.493512462824583,target,None,,,,,,,,,,,,,,,student1,2022-10-25_16h15.10.114,Hippopolis_4AFCT,2022.2.2,60.009145267768794,
Hippopolis,stimuli/subj_files/student1_cityA.csv,./stimuli/frankfurt.jpg,./stimuli/street_plate1.png,PULÓVER UTCA,stimuli/objects/114a.jpg,object,0,stimuli/objects/114a.jpg,stimuli/scenes/050b.jpg,stimuli/scenes/050a.jpg,stimuli/objects/114b.jpg,stimuli/objects/114a.jpg,dist2,dist1,lure,target,0,1,1,0,0,12,12,43,,,,,,,435.3393739052117,436.4093892201781,436.4093892201781,436.4093892201781,436.4093892201781,436.4093892201781,436.4093892201781,436.4093892201781,436.4093892201781,436.4093892201781,436.4093892201781,436.4093892201781,436.4093892201781,k,1.7914332617074251,target,None,,,,,,,,,,,,,,,student1,2022-10-25_16h15.10.114,Hippopolis_4AFCT,2022.2.2,60.009145267768794,
Hippopolis,stimuli/subj_files/student1_cityA.csv,./stimuli/frankfurt.jpg,./stimuli/street_plate1.png,KORONA UTCA,stimuli/scenes/108a.jpg,scene,1,stimuli/scenes/011a.jpg,stimuli/objects/076a.jpg,stimuli/scenes/011b.jpg,stimuli/objects/076b.jpg,stimuli/scenes/011a.jpg,dist1,lure,dist2,target,0,1,1,0,0,13,13,9,,,,,,,438.2291806098074,439.2831486146897,439.2831486146897,439.2831486146897,439.2831486146897,439.2831486146897,439.2831486146897,439.2831486146897,439.2831486146897,439.2831486146897,439.2831486146897,439.2831486146897,439.2831486146897,d,2.341775555163622,dist1,None,,,,,,,,,,,,,,,student1,2022-10-25_16h15.10.114,Hippopolis_4AFCT,2022.2.2,60.009145267768794,
Hippopolis,stimuli/subj_files/student1_cityA.csv,./stimuli/frankfurt.jpg,./stimuli/street_plate1.png,LIGET UTCA,stimuli/objects/038a.jpg,object,2,stimuli/scenes/109a.jpg,stimuli/scenes/109a.jpg,stimuli/objects/055a.jpg,stimuli/scenes/109b.jpg,stimuli/objects/055b.jpg,target,dist1,lure,dist2,0,1,1,0,0,14,14,62,,,,,,,441.66128231585026,442.7216847334057,442.7216847334057,442.7216847334057,442.7216847334057,442.7216847334057,442.7216847334057,442.7216847334057,442.7216847334057,442.7216847334057,442.7216847334057,442.7216847334057,442.7216847334057,k,2.8866914100944996,dist2,None,,,,,,,,,,,,,,,student1,2022-10-25_16h15.10.114,Hippopolis_4AFCT,2022.2.2,60.009145267768794,
Hippopolis,stimuli/subj_files/student1_cityA.csv,./stimuli/frankfurt.jpg,./stimuli/street_plate1.png,PAPUCS UTCA,stimuli/scenes/051a.jpg,scene,0,stimuli/scenes/051a.jpg,stimuli/scenes/051b.jpg,stimuli/scenes/051a.jpg,stimuli/scenes/090a.jpg,stimuli/scenes/090b.jpg,lure,target,dist1,dist2,0,1,1,0,0,15,15,68,,,,,,,445.6412469726056,446.71052084863186,446.71052084863186,446.71052084863186,446.71052084863186,446.71052084863186,446.71052084863186,446.71052084863186,446.71052084863186,446.71052084863186,446.71052084863186,446.71052084863186,446.71052084863186,f,2.082343976944685,target,None,,,,,,,,,,,,,,,student1,2022-10-25_16h15.10.114,Hippopolis_4AFCT,2022.2.2,60.009145267768794,
Hippopolis,stimuli/subj_files/student1_cityA.csv,./stimuli/frankfurt.jpg,./stimuli/street_plate1.png,HAJÓ UTCA,stimuli/objects/086a.jpg,object,1,stimuli/objects/041a.jpg,stimuli/scenes/014a.jpg,stimuli/scenes/014b.jpg,stimuli/objects/041a.jpg,stimuli/objects/041b.jpg,dist1,dist2,target,lure,0,1,1,0,0,16,16,71,,,,,,,448.8205216322094,449.90620451420546,449.90620451420546,449.90620451420546,449.90620451420546,449.90620451420546,449.90620451420546,449.90620451420546,449.90620451420546,449.90620451420546,449.90620451420546,449.90620451420546,449.90620451420546,d,2.6622891016304493,dist1,None,,,,,,,,,,,,,,,student1,2022-10-25_16h15.10.114,Hippopolis_4AFCT,2022.2.2,60.009145267768794,
Hippopolis,stimuli/subj_files/student1_cityA.csv,./stimuli/frankfurt.jpg,./stimuli/street_plate1.png,MARTINI UTCA,stimuli/objects/060a.jpg,object,1,stimuli/objects/011a.jpg,stimuli/objects/075b.jpg,stimuli/objects/075a.jpg,stimuli/objects/011b.jpg,stimuli/objects/011a.jpg,dist2,dist1,lure,target,0,1,1,0,0,17,17,60,,,,,,,452.6057900674641,453.70628556236625,453.70628556236625,453.70628556236625,453.70628556236625,453.70628556236625,453.70628556236625,453.70628556236625,453.70628556236625,453.70628556236625,453.70628556236625,453.70628556236625,453.70628556236625,k,3.0227075666189194,target,None,,,,,,,,,,,,,,,student1,2022-10-25_16h15.10.114,Hippopolis_4AFCT,2022.2.2,60.009145267768794,
Hippopolis,stimuli/subj_files/student1_cityA.csv,./stimuli/frankfurt.jpg,./stimuli/street_plate1.png,AKÁC UTCA,stimuli/scenes/081a.jpg,scene,2,stimuli/objects/055a.jpg,stimuli/objects/055b.jpg,stimuli/objects/107b.jpg,stimuli/objects/107a.jpg,stimuli/objects/055a.jpg,lure,dist2,dist1,target,0,1,1,0,0,18,18,74,,,,,,,456.76301312819123,457.83196324668825,457.83196324668825,457.83196324668825,457.83196324668825,457.83196324668825,457.83196324668825,457.83196324668825,457.83196324668825,457.83196324668825,457.83196324668825,457.83196324668825,457.83196324668825,j,2.7686613742262125,dist1,None,,,,,,,,,,,,,,,student1,2022-10-25_16h15.10.114,Hippopolis_4AFCT,2022.2.2,60.009145267768794,
Hippopolis,stimuli/subj_files/student1_cityA.csv,./stimuli/frankfurt.jpg,./stimuli/street_plate1.png,HEGESZTŐ UTCA,stimuli/scenes/043a.jpg,scene,0,stimuli/scenes/043a.jpg,stimuli/scenes/043b.jpg,stimuli/scenes/043a.jpg,stimuli/objects/062a.jpg,stimuli/objects/062b.jpg,lure,target,dist1,dist2,0,1,1,0,0,19,19,77,,,,,,,460.6228975970298,461.711164008826,461.711164008826,461.711164008826,461.711164008826,461.711164008826,461.711164008826,461.711164008826,461.711164008826,461.711164008826,461.711164008826,461.711164008826,461.711164008826,f,2.0414621867239475,target,None,,,,,,,,,,,,,,,student1,2022-10-25_16h15.10.114,Hippopolis_4AFCT,2022.2.2,60.009145267768794,
Hippopolis,stimuli/subj_files/student1_cityA.csv,./stimuli/frankfurt.jpg,./stimuli/street_plate1.png,FIÓK UTCA,stimuli/scenes/002a.jpg,scene,1,stimuli/scenes/014a.jpg,stimuli/scenes/014a.jpg,stimuli/objects/004a.jpg,stimuli/objects/004b.jpg,stimuli/scenes/014b.jpg,target,dist1,dist2,lure,0,1,1,0,0,20,20,73,,,,,,,463.7807171680033,464.85149475745857,464.85149475745857,464.85149475745857,464.85149475745857,464.85149475745857,464.85149475745857,464.85149475745857,464.85149475745857,464.85149475745857,464.85149475745857,464.85149475745857,464.85149475745857,f,3.2211458180099726,dist1,None,,,,,,,,,,,,,,,student1,2022-10-25_16h15.10.114,Hippopolis_4AFCT,2022.2.2,60.009145267768794,
Hippopolis,stimuli/subj_files/student1_cityA.csv,./stimuli/frankfurt.jpg,./stimuli/street_plate1.png,MUNKA UTCA,stimuli/scenes/039a.jpg,scene,2,stimuli/objects/067a.jpg,stimuli/scenes/097a.jpg,stimuli/objects/067b.jpg,stimuli/objects/067a.jpg,stimuli/scenes/097b.jpg,dist1,lure,target,dist2,0,1,1,0,0,21,21,4,,,,,,,468.09006900526583,469.1488408166915,469.1488408166915,469.1488408166915,469.1488408166915,469.1488408166915,469.1488408166915,469.1488408166915,469.1488408166915,469.1488408166915,469.1488408166915,469.1488408166915,469.1488408166915,f,3.003736177459359,lure,None,,,,,,,,,,,,,,,student1,2022-10-25_16h15.10.114,Hippopolis_4AFCT,2022.2.2,60.009145267768794,
Hippopolis,stimuli/subj_files/student1_cityA.csv,./stimuli/frankfurt.jpg,./stimuli/street_plate1.png,ÁRNYÉK UTCA,stimuli/objects/020a.jpg,object,1,stimuli/objects/027a.jpg,stimuli/scenes/004a.jpg,stimuli/objects/027b.jpg,stimuli/objects/027a.jpg,stimuli/scenes/004b.jpg,dist1,lure,target,dist2,0,1,1,0,0,22,22,52,,,,,,,472.18552930653095,473.25907050073147,473.25907050073147,473.25907050073147,473.25907050073147,473.25907050073147,473.25907050073147,473.25907050073147,473.25907050073147,473.25907050073147,473.25907050073147,473.25907050073147,473.25907050073147,j,3.0695277135819197,target,None,,,,,,,,,,,,,,,student1,2022-10-25_16h15.10.114,Hippopolis_4AFCT,2022.2.2,60.009145267768794,
Hippopolis,stimuli/subj_files/student1_cityA.csv,./stimuli/frankfurt.jpg,./stimuli/street_plate1.png,KECSKE UTCA,stimuli/scenes/085a.jpg,scene,2,stimuli/objects/022a.jpg,stimuli/objects/022b.jpg,stimuli/objects/022a.jpg,stimuli/scenes/053a.jpg,stimuli/scenes/053b.jpg,lure,target,dist1,dist2,0,1,1,0,0,23,23,6,,,,,,,476.3553192038089,477.408278927207,477.408278927207,477.408278927207,477.408278927207,477.408278927207,477.408278927207,477.408278927207,477.408278927207,477.408278927207,477.408278927207,477.408278927207,477.408278927207,f,2.7121804375201464,target,None,,,,,,,,,,,,,,,student1,2022-10-25_16h15.10.114,Hippopolis_4AFCT,2022.2.2,60.009145267768794,
Hippopolis,stimuli/subj_files/student1_cityA.csv,./stimuli/frankfurt.jpg,./stimuli/street_plate1.png,KULLANCS UTCA,stimuli/objects/089a.jpg,object,0,stimuli/objects/089a.jpg,stimuli/scenes/072a.jpg,stimuli/objects/089a.jpg,stimuli/scenes/072b.jpg,stimuli/objects/089b.jpg,dist1,target,dist2,lure,0,1,1,0,0,24,24,34,,,,,,,480.13865006901324,481.1821704376489,481.1821704376489,481.1821704376489,481.1821704376489,481.1821704376489,481.1821704376489,481.1821704376489,481.1821704376489,481.1821704376489,481.1821704376489,481.1821704376489,481.1821704376489,k,3.241978581994772,lure,None,,,,,,,,,,,,,,,student1,2022-10-25_16h15.10.114,Hippopolis_4AFCT,2022.2.2,60.009145267768794,
Hippopolis,stimuli/subj_files/student1_cityA.csv,./stimuli/frankfurt.jpg,./stimuli/street_plate1.png,KAKAS UTCA,stimuli/objects/002a.jpg,object,2,stimuli/scenes/074a.jpg,stimuli/scenes/074b.jpg,stimuli/scenes/074a.jpg,stimuli/scenes/070a.jpg,stimuli/scenes/070b.jpg,lure,target,dist1,dist2,0,1,1,0,0,25,25,24,,,,,,,484.4551541209221,485.54141081124544,485.54141081124544,485.54141081124544,485.54141081124544,485.54141081124544,485.54141081124544,485.54141081124544,485.54141081124544,485.54141081124544,485.54141081124544,485.54141081124544,485.54141081124544,k,3.4104155991226435,dist2,None,488.9578751157969,,,,,,,,,,,,,,student1,2022-10-25_16h15.10.114,Hippopolis_4AFCT,2022.2.2,60.009145267768794,
Hippopolis,stimuli/subj_files/student1_cityA.csv,./stimuli/frankfurt.jpg,./stimuli/street_plate1.png,BONBON UTCA,stimuli/objects/095a.jpg,object,2,stimuli/scenes/007a.jpg,stimuli/objects/028b.jpg,stimuli/objects/028a.jpg,stimuli/scenes/007a.jpg,stimuli/scenes/007b.jpg,dist2,dist1,target,lure,0,1,1,0,0,26,26,72,,,,,,,488.9734145514667,490.02642714604735,490.02642714604735,490.02642714604735,490.02642714604735,490.02642714604735,490.02642714604735,490.02642714604735,490.02642714604735,490.02642714604735,490.02642714604735,490.02642714604735,490.02642714604735,f,3.277505774050951,dist1,None,,490.02642714604735,,,,,,,,,,,,,student1,2022-10-25_16h15.10.114,Hippopolis_4AFCT,2022.2.2,60.009145267768794,
Hippopolis,stimuli/subj_files/student1_cityA.csv,./stimuli/frankfurt.jpg,./stimuli/street_plate1.png,TOJÁS UTCA,stimuli/objects/021a.jpg,object,2,stimuli/scenes/034a.jpg,stimuli/scenes/034a.jpg,stimuli/objects/059a.jpg,stimuli/objects/059b.jpg,stimuli/scenes/034b.jpg,target,dist1,dist2,lure,0,1,1,0,0,27,27,37,,,,,,,493.32520569860935,494.3966003265232,494.3966003265232,494.3966003265232,494.3966003265232,494.3966003265232,494.3966003265232,494.3966003265232,494.3966003265232,494.3966003265232,494.3966003265232,494.3966003265232,494.3966003265232,f,3.194815395399928,dist1,None,,,,,,,,,,,,,,,student1,2022-10-25_16h15.10.114,Hippopolis_4AFCT,2022.2.2,60.009145267768794,
Hippopolis,stimuli/subj_files/student1_cityA.csv,./stimuli/frankfurt.jpg,./stimuli/street_plate1.png,BÖGRE UTCA,stimuli/objects/050a.jpg,object,1,stimuli/objects/076a.jpg,stimuli/scenes/037a.jpg,stimuli/objects/076a.jpg,stimuli/objects/076b.jpg,stimuli/scenes/037b.jpg,dist1,target,lure,dist2,0,1,1,0,0,28,28,41,,,,,,,497.63565694354475,498.67637327872217,498.67637327872217,498.67637327872217,498.67637327872217,498.67637327872217,498.67637327872217,498.67637327872217,498.67637327872217,498.67637327872217,498.67637327872217,498.67637327872217,498.67637327872217,k,3.6517829950898886,dist2,None,502.12239843048155,,,,,,,,,,,,,,student1,2022-10-25_16h15.10.114,Hippopolis_4AFCT,2022.2.2,60.009145267768794,
Hippopolis,stimuli/subj_files/student1_cityA.csv,./stimuli/frankfurt.jpg,./stimuli/street_plate1.png,KIRAKÓ UTCA,stimuli/objects/079a.jpg,object,2,stimuli/scenes/070a.jpg,stimuli/scenes/070a.jpg,stimuli/scenes/070b.jpg,stimuli/objects/043b.jpg,stimuli/objects/043a.jpg,target,lure,dist2,dist1,0,1,1,0,0,29,29,57,,,,,,,502.34969029948115,503.4082549791783,503.4082549791783,503.4082549791783,503.4082549791783,503.4082549791783,503.4082549791783,503.4082549791783,503.4082549791783,503.4082549791783,503.4082549791783,503.4082549791783,503.4082549791783,k,1.7354020401835442,dist1,None,,,,,,,,,,,,,,,student1,2022-10-25_16h15.10.114,Hippopolis_4AFCT,2022.2.2,60.009145267768794,
Hippopolis,stimuli/subj_files/student1_cityA.csv,./stimuli/frankfurt.jpg,./stimuli/street_plate1.png,PIZSAMA UTCA,stimuli/scenes/060a.jpg,scene,2,stimuli/objects/006a.jpg,stimuli/scenes/007b.jpg,stimuli/scenes/007a.jpg,stimuli/objects/006b.jpg,stimuli/objects/006a.jpg,dist2,dist1,lure,target,0,1,1,0,0,30,30,79,,,,,,,505.1754150688648,506.2121281288564,506.2121281288564,506.2121281288564,506.2121281288564,506.2121281288564,506.2121281288564,506.2121281288564,506.2121281288564,506.2121281288564,506.2121281288564,506.2121281288564,506.2121281288564,k,2.947281986474991,target,None,,,,,,,,,,,,,,,student1,2022-10-25_16h15.10.114,Hippopolis_4AFCT,2022.2.2,60.009145267768794,
Hippopolis,stimuli/subj_files/student1_cityA.csv,./stimuli/frankfurt.jpg,./stimuli/street_plate1.png,RÓZSA UTCA,stimuli/objects/091a.jpg,object,0,stimuli/objects/091a.jpg,stimuli/objects/091b.jpg,stimuli/objects/078b.jpg,stimuli/objects/078a.jpg,stimuli/objects/091a.jpg,lure,dist2,dist1,target,0,1,1,0,0,31,31,45,,,,,,,509.19639835879207,510.2580189872533,510.2580189872533,510.2580189872533,510.2580189872533,510.2580189872533,510.2580189872533,510.2580189872533,510.2580189872533,510.2580189872533,510.2580189872533,510.2580189872533,510.2580189872533,k,1.7192816454917192,target,None,,,,,,,,,,,,,,,student1,2022-10-25_16h15.10.114,Hippopolis_4AFCT,2022.2.2,60.009145267768794,
Hippopolis,stimuli/subj_files/student1_cityA.csv,./stimuli/frankfurt.jpg,./stimuli/street_plate1.png,ÜVEG UTCA,stimuli/scenes/061a.jpg,scene,2,stimuli/objects/085a.jpg,stimuli/objects/085b.jpg,stimuli/scenes/084a.jpg,stimuli/objects/085a.jpg,stimuli/scenes/084b.jpg,lure,dist1,target,dist2,0,1,1,0,0,32,32,19,,,,,,,511.99302972480655,513.0457698777318,513.0457698777318,513.0457698777318,513.0457698777318,513.0457698777318,513.0457698777318,513.0457698777318,513.0457698777318,513.0457698777318,513.0457698777318,513.0457698777318,513.0457698777318,j,2.722194842994213,target,None,,,,,,,,,,,,,,,student1,2022-10-25_16h15.10.114,Hippopolis_4AFCT,2022.2.2,60.009145267768794,
Hippopolis,stimuli/subj_files/student1_cityA.csv,./stimuli/frankfurt.jpg,./stimuli/street_plate1.png,PÁLMAFA UTCA,stimuli/objects/090a.jpg,object,1,stimuli/objects/007a.jpg,stimuli/objects/053a.jpg,stimuli/objects/007a.jpg,stimuli/objects/053b.jpg,stimuli/objects/007b.jpg,dist1,target,dist2,lure,0,1,1,0,0,33,33,12,,,,,,,515.7851975262165,516.8501238413155,516.8501238413155,516.8501238413155,516.8501238413155,516.8501238413155,516.8501238413155,516.8501238413155,516.8501238413155,516.8501238413155,516.8501238413155,516.8501238413155,516.8501238413155,f,2.5173884239047766,target,None,,,,,,,,,,,,,,,student1,2022-10-25_16h15.10.114,Hippopolis_4AFCT,2022.2.2,60.009145267768794,
Hippopolis,stimuli/subj_files/student1_cityA.csv,./stimuli/frankfurt.jpg,./stimuli/street_plate1.png,PADLÓ UTCA,stimuli/objects/100a.jpg,object,0,stimuli/objects/100a.jpg,stimuli/scenes/058a.jpg,stimuli/scenes/058b.jpg,stimuli/objects/100a.jpg,stimuli/objects/100b.jpg,dist1,dist2,target,lure,0,1,1,0,0,34,34,59,,,,,,,519.385997807607,520.4430450871587,520.4430450871587,520.4430450871587,520.4430450871587,520.4430450871587,520.4430450871587,520.4430450871587,520.4430450871587,520.4430450871587,520.4430450871587,520.4430450871587,520.4430450871587,j,3.7569445185363293,target,None,523.8769391234964,,,,,,,,,,,,,,student1,2022-10-25_16h15.10.114,Hippopolis_4AFCT,2022.2.2,60.009145267768794,
Hippopolis,stimuli/subj_files/student1_cityA.csv,./stimuli/frankfurt.jpg,./stimuli/street_plate1.png,FOGAS UTCA,stimuli/scenes/025a.jpg,scene,1,stimuli/scenes/018a.jpg,stimuli/scenes/018b.jpg,stimuli/scenes/064a.jpg,stimuli/scenes/018a.jpg,stimuli/scenes/064b.jpg,lure,dist1,target,dist2,0,1,1,0,0,35,35,38,,,,,,,524.2213933207095,525.2591249272227,525.2591249272227,525.2591249272227,525.2591249272227,525.2591249272227,525.2591249272227,525.2591249272227,525.2591249272227,525.2591249272227,525.2591249272227,525.2591249272227,525.2591249272227,j,2.236363671720028,target,None,,,,,,,,,,,,,,,student1,2022-10-25_16h15.10.114,Hippopolis_4AFCT,2022.2.2,60.009145267768794,
Hippopolis,stimuli/subj_files/student1_cityA.csv,./stimuli/frankfurt.jpg,./stimuli/street_plate1.png,SZOMSZÉD UTCA,stimuli/objects/026a.jpg,object,1,stimuli/objects/004a.jpg,stimuli/objects/027b.jpg,stimuli/objects/004b.jpg,stimuli/objects/004a.jpg,stimuli/objects/027a.jpg,dist2,lure,target,dist1,0,1,1,0,0,36,36,65,,,,,,,527.5184513870627,528.5794680416584,528.5794680416584,528.5794680416584,528.5794680416584,528.5794680416584,528.5794680416584,528.5794680416584,528.5794680416584,528.5794680416584,528.5794680416584,528.5794680416584,528.5794680416584,k,2.7880908772349358,dist1,None,,,,,,,,,,,,,,,student1,2022-10-25_16h15.10.114,Hippopolis_4AFCT,2022.2.2,60.009145267768794,
Hippopolis,stimuli/subj_files/student1_cityA.csv,./stimuli/frankfurt.jpg,./stimuli/street_plate1.png,KÖMÉNYMAG UTCA,stimuli/objects/068a.jpg,object,1,stimuli/objects/045a.jpg,stimuli/objects/045a.jpg,stimuli/objects/045b.jpg,stimuli/objects/071a.jpg,stimuli/objects/071b.jpg,target,lure,dist1,dist2,0,1,1,0,0,37,37,18,,,,,,,531.4054789375514,532.4663522168994,532.4663522168994,532.4663522168994,532.4663522168994,532.4663522168994,532.4663522168994,532.4663522168994,532.4663522168994,532.4663522168994,532.4663522168994,532.4663522168994,532.4663522168994,d,1.8770564310252666,target,None,,,,,,,,,,,,,,,student1,2022-10-25_16h15.10.114,Hippopolis_4AFCT,2022.2.2,60.009145267768794,
Hippopolis,stimuli/subj_files/student1_cityA.csv,./stimuli/frankfurt.jpg,./stimuli/street_plate1.png,TERASZ UTCA,stimuli/objects/063a.jpg,object,2,stimuli/scenes/104a.jpg,stimuli/scenes/104a.jpg,stimuli/scenes/056a.jpg,stimuli/scenes/104b.jpg,stimuli/scenes/056b.jpg,target,dist1,lure,dist2,0,1,1,0,0,38,38,48,,,,,,,534.3632514216006,535.4288790579885,535.4288790579885,535.4288790579885,535.4288790579885,535.4288790579885,535.4288790579885,535.4288790579885,535.4288790579885,535.4288790579885,535.4288790579885,535.4288790579885,535.4288790579885,d,2.8191202953457832,target,None,,535.4288790579885,,,,,,,,,,,,,student1,2022-10-25_16h15.10.114,Hippopolis_4AFCT,2022.2.2,60.009145267768794,
Hippopolis,stimuli/subj_files/student1_cityA.csv,./stimuli/frankfurt.jpg,./stimuli/street_plate1.png,PÁFRÁNY UTCA,stimuli/scenes/101a.jpg,scene,0,stimuli/scenes/101a.jpg,stimuli/scenes/101a.jpg,stimuli/scenes/101b.jpg,stimuli/objects/051a.jpg,stimuli/objects/051b.jpg,target,lure,dist1,dist2,0,1,1,0,0,39,39,0,,,,,,,538.2711748704314,539.3230896107852,539.3230896107852,539.3230896107852,539.3230896107852,539.3230896107852,539.3230896107852,539.3230896107852,539.3230896107852,539.3230896107852,539.3230896107852,539.3230896107852,539.3230896107852,d,3.180609865114093,target,None,,539.3230896107852,,,,,,,,,,,,,student1,2022-10-25_16h15.10.114,Hippopolis_4AFCT,2022.2.2,60.009145267768794,
Hippopolis,stimuli/subj_files/student1_cityA.csv,./stimuli/frankfurt.jpg,./stimuli/street_plate1.png,HÁRFA UTCA,stimuli/objects/083a.jpg,object,2,stimuli/scenes/028a.jpg,stimuli/scenes/028b.jpg,stimuli/objects/012b.jpg,stimuli/objects/012a.jpg,stimuli/scenes/028a.jpg,lure,dist2,dist1,target,0,1,1,0,0,40,40,16,,,,,,,542.5377990938723,543.5763984080404,543.5763984080404,543.5763984080404,543.5763984080404,543.5763984080404,543.5763984080404,543.5763984080404,543.5763984080404,543.5763984080404,543.5763984080404,543.5763984080404,543.5763984080404,k,2.031341727823019,target,None,,,,,,,,,,,,,,,student1,2022-10-25_16h15.10.114,Hippopolis_4AFCT,2022.2.2,60.009145267768794,
Hippopolis,stimuli/subj_files/student1_cityA.csv,./stimuli/frankfurt.jpg,./stimuli/street_plate1.png,VÖDÖR UTCA,stimuli/scenes/055a.jpg,scene,1,stimuli/scenes/088a.jpg,stimuli/scenes/088b.jpg,stimuli/scenes/088a.jpg,stimuli/scenes/087b.jpg,stimuli/scenes/087a.jpg,lure,target,dist2,dist1,0,1,1,0,0,41,41,56,,,,,,,545.6393697392195,546.6759848315269,546.6759848315269,546.6759848315269,546.6759848315269,546.6759848315269,546.6759848315269,546.6759848315269,546.6759848315269,546.6759848315269,546.6759848315269,546.6759848315269,546.6759848315269,f,3.4750651195645332,target,None,550.1382168382406,,,,,,,,,,,,,,student1,2022-10-25_16h15.10.114,Hippopolis_4AFCT,2022.2.2,60.009145267768794,
Hippopolis,stimuli/subj_files/student1_cityA.csv,./stimuli/frankfurt.jpg,./stimuli/street_plate1.png,AJÁNDÉK UTCA,stimuli/scenes/005a.jpg,scene,1,stimuli/scenes/009a.jpg,stimuli/scenes/078b.jpg,stimuli/scenes/078a.jpg,stimuli/scenes/009a.jpg,stimuli/scenes/009b.jpg,dist2,dist1,target,lure,0,1,1,0,0,42,42,28,,,,,,,550.1790071930736,551.2475676182657,551.2475676182657,551.2475676182657,551.2475676182657,551.2475676182657,551.2475676182657,551.2475676182657,551.2475676182657,551.2475676182657,551.2475676182657,551.2475676182657,551.2475676182657,f,3.9758665841072798,dist1,None,554.671234831214,,,,,,,,,,,,,,student1,2022-10-25_16h15.10.114,Hippopolis_4AFCT,2022.2.2,60.009145267768794,
Hippopolis,stimuli/subj_files/student1_cityA.csv,./stimuli/frankfurt.jpg,./stimuli/street_plate1.png,LÁNDZSA UTCA,stimuli/scenes/090a.jpg,scene,0,stimuli/scenes/090a.jpg,stimuli/scenes/090a.jpg,stimuli/objects/091b.jpg,stimuli/scenes/090b.jpg,stimuli/objects/091a.jpg,target,dist2,lure,dist1,0,1,1,0,0,43,43,39,,,,,,,555.2491811197251,556.3071772810072,556.3071772810072,556.3071772810072,556.3071772810072,556.3071772810072,556.3071772810072,556.3071772810072,556.3071772810072,556.3071772810072,556.3071772810072,556.3071772810072,556.3071772810072,d,2.260079775005579,target,None,,,,,,,,,,,,,,,student1,2022-10-25_16h15.10.114,Hippopolis_4AFCT,2022.2.2,60.009145267768794,
Hippopolis,stimuli/subj_files/student1_cityA.csv,./stimuli/frankfurt.jpg,./stimuli/street_plate1.png,CUKOR UTCA,stimuli/objects/111a.jpg,object,0,stimuli/objects/111a.jpg,stimuli/objects/089b.jpg,stimuli/objects/111b.jpg,stimuli/objects/111a.jpg,stimuli/objects/089a.jpg,dist2,lure,target,dist1,0,1,1,0,0,44,44,30,,,,,,,558.5877159312367,559.6280332449824,559.6280332449824,559.6280332449824,559.6280332449824,559.6280332449824,559.6280332449824,559.6280332449824,559.6280332449824,559.6280332449824,559.6280332449824,559.6280332449824,559.6280332449824,f,2.7793061900883913,lure,space,,,562.4253733940423,562.4253733940423,1.9824210423976183,,,,,,,,,,student1,2022-10-25_16h15.10.114,Hippopolis_4AFCT,2022.2.2,60.009145267768794,
Hippopolis,stimuli/subj_files/student1_cityA.csv,./stimuli/frankfurt.jpg,./stimuli/street_plate1.png,VASALÓ UTCA,stimuli/objects/025a.jpg,object,2,stimuli/scenes/056a.jpg,stimuli/scenes/044a.jpg,stimuli/scenes/056b.jpg,stimuli/scenes/056a.jpg,stimuli/scenes/044b.jpg,dist1,lure,target,dist2,0,1,1,0,0,45,45,70,,,,,,,564.4374444838613,565.4775580894202,565.4775580894202,565.4775580894202,565.4775580894202,565.4775580894202,565.4775580894202,565.4775580894202,565.4775580894202,565.4775580894202,565.4775580894202,565.4775580894202,565.4775580894202,d,2.8341310173273087,dist1,None,,,,,,,,,,,,,,,student1,2022-10-25_16h15.10.114,Hippopolis_4AFCT,2022.2.2,60.009145267768794,
Hippopolis,stimuli/subj_files/student1_cityA.csv,./stimuli/frankfurt.jpg,./stimuli/street_plate1.png,CITROM UTCA,stimuli/scenes/036a.jpg,scene,2,stimuli/objects/043a.jpg,stimuli/objects/043b.jpg,stimuli/objects/067a.jpg,stimuli/objects/043a.jpg,stimuli/objects/067b.jpg,lure,dist1,target,dist2,0,1,1,0,0,46,46,26,,,,,,,568.3379774875939,569.3959366381168,569.3959366381168,569.3959366381168,569.3959366381168,569.3959366381168,569.3959366381168,569.3959366381168,569.3959366381168,569.3959366381168,569.3959366381168,569.3959366381168,569.3959366381168,f,3.4910194370895624,dist1,None,572.8250561039895,569.3959366381168,,,,,,,,,,,,,student1,2022-10-25_16h15.10.114,Hippopolis_4AFCT,2022.2.2,60.009145267768794,
Hippopolis,stimuli/subj_files/student1_cityA.csv,./stimuli/frankfurt.jpg,./stimuli/street_plate1.png,LÉTRA UTCA,stimuli/objects/047a.jpg,object,1,stimuli/objects/015a.jpg,stimuli/objects/108b.jpg,stimuli/objects/015b.jpg,stimuli/objects/108a.jpg,stimuli/objects/015a.jpg,dist2,lure,dist1,target,0,1,1,0,0,47,47,33,,,,,,,572.9148710183799,573.9853173866868,573.9853173866868,573.9853173866868,573.9853173866868,573.9853173866868,573.9853173866868,573.9853173866868,573.9853173866868,573.9853173866868,573.9853173866868,573.9853173866868,573.9853173866868,f,3.397717207670212,lure,None,577.4188024513423,,,,,,,,,,,,,,student1,2022-10-25_16h15.10.114,Hippopolis_4AFCT,2022.2.2,60.009145267768794,
Hippopolis,stimuli/subj_files/student1_cityA.csv,./stimuli/frankfurt.jpg,./stimuli/street_plate1.png,HEGEDŰ UTCA,stimuli/scenes/113a.jpg,scene,2,stimuli/objects/036a.jpg,stimuli/objects/036b.jpg,stimuli/scenes/059b.jpg,stimuli/scenes/059a.jpg,stimuli/objects/036a.jpg,lure,dist2,dist1,target,0,1,1,0,0,48,48,69,,,,,,,577.4188024513423,578.4719540644437,578.4719540644437,578.4719540644437,578.4719540644437,578.4719540644437,578.4719540644437,578.4719540644437,578.4719540644437,578.4719540644437,578.4719540644437,578.4719540644437,578.4719540644437,k,2.7985214088112116,target,None,,,,,,,,,,,,,,,student1,2022-10-25_16h15.10.114,Hippopolis_4AFCT,2022.2.2,60.009145267768794,
Hippopolis,stimuli/subj_files/student1_cityA.csv,./stimuli/frankfurt.jpg,./stimuli/street_plate1.png,KÖTÉNY UTCA,stimuli/scenes/031a.jpg,scene,1,stimuli/scenes/064a.jpg,stimuli/objects/103a.jpg,stimuli/objects/103b.jpg,stimuli/scenes/064b.jpg,stimuli/scenes/064a.jpg,dist1,dist2,lure,target,0,1,1,0,0,49,49,22,,,,,,,581.2884562499821,582.3407774772495,582.3407774772495,582.3407774772495,582.3407774772495,582.3407774772495,582.3407774772495,582.3407774772495,582.3407774772495,582.3407774772495,582.3407774772495,582.3407774772495,582.3407774772495,f,2.690626760944724,dist2,None,,582.3407774772495,,,,,,,,,,,,,student1,2022-10-25_16h15.10.114,Hippopolis_4AFCT,2022.2.2,60.009145267768794,
Hippopolis,stimuli/subj_files/student1_cityA.csv,./stimuli/frankfurt.jpg,./stimuli/street_plate1.png,POGÁCSA UTCA,stimuli/scenes/046a.jpg,scene,0,stimuli/scenes/046a.jpg,stimuli/scenes/042a.jpg,stimuli/scenes/046a.jpg,stimuli/scenes/046b.jpg,stimuli/scenes/042b.jpg,dist1,target,lure,dist2,0,1,1,0,0,50,50,49,,,,,,,585.0572851989418,586.1086681205779,586.1086681205779,586.1086681205779,586.1086681205779,586.1086681205779,586.1086681205779,586.1086681205779,586.1086681205779,586.1086681205779,586.1086681205779,586.1086681205779,586.1086681205779,f,3.2745530791580677,target,None,,586.1086681205779,,,,,,,,,,,,,student1,2022-10-25_16h15.10.114,Hippopolis_4AFCT,2022.2.2,60.009145267768794,
Hippopolis,stimuli/subj_files/student1_cityA.csv,./stimuli/frankfurt.jpg,./stimuli/street_plate1.png,NARANCS UTCA,stimuli/objects/017a.jpg,object,1,stimuli/objects/075a.jpg,stimuli/objects/075a.jpg,stimuli/scenes/041b.jpg,stimuli/scenes/041a.jpg,stimuli/objects/075b.jpg,target,dist2,dist1,lure,0,1,1,0,0,51,51,76,,,,,,,589.407706676051,590.4689310826361,590.4689310826361,590.4689310826361,590.4689310826361,590.4689310826361,590.4689310826361,590.4689310826361,590.4689310826361,590.4689310826361,590.4689310826361,590.4689310826361,590.4689310826361,j,2.449657764285803,dist1,None,,,,,,,,,,,,,,,student1,2022-10-25_16h15.10.114,Hippopolis_4AFCT,2022.2.2,60.009145267768794,
Hippopolis,stimuli/subj_files/student1_cityA.csv,./stimuli/frankfurt.jpg,./stimuli/street_plate1.png,LAKAT UTCA,stimuli/objects/066a.jpg,object,2,stimuli/scenes/084a.jpg,stimuli/scenes/084b.jpg,stimuli/scenes/034a.jpg,stimuli/scenes/084a.jpg,stimuli/scenes/034b.jpg,lure,dist1,target,dist2,0,1,1,0,0,52,52,58,,,,,,,592.9397107884288,593.9779692403972,593.9779692403972,593.9779692403972,593.9779692403972,593.9779692403972,593.9779692403972,593.9779692403972,593.9779692403972,593.9779692403972,593.9779692403972,593.9779692403972,593.9779692403972,f,2.7970099169760942,dist1,None,,,,,,,,,,,,,,,student1,2022-10-25_16h15.10.114,Hippopolis_4AFCT,2022.2.2,60.009145267768794,
Hippopolis,stimuli/subj_files/student1_cityA.csv,./stimuli/frankfurt.jpg,./stimuli/street_plate1.png,TOBOZ UTCA,stimuli/objects/001a.jpg,object,2,stimuli/scenes/059a.jpg,stimuli/scenes/059a.jpg,stimuli/objects/085a.jpg,stimuli/objects/085b.jpg,stimuli/scenes/059b.jpg,target,dist1,dist2,lure,0,1,1,0,0,53,53,40,,,,,,,596.8036874774843,597.8465895652771,597.8465895652771,597.8465895652771,597.8465895652771,597.8465895652771,597.8465895652771,597.8465895652771,597.8465895652771,597.8465895652771,597.8465895652771,597.8465895652771,597.8465895652771,d,2.8157891053706408,target,None,,,,,,,,,,,,,,,student1,2022-10-25_16h15.10.114,Hippopolis_4AFCT,2022.2.2,60.009145267768794,
Hippopolis,stimuli/subj_files/student1_cityA.csv,./stimuli/frankfurt.jpg,./stimuli/street_plate1.png,SZIKLA UTCA,stimuli/scenes/111a.jpg,scene,2,stimuli/objects/073a.jpg,stimuli/objects/120b.jpg,stimuli/objects/120a.jpg,stimuli/objects/073a.jpg,stimuli/objects/073b.jpg,dist2,dist1,target,lure,0,1,1,0,0,54,54,1,,,,,,,600.6808536369354,601.7640456706285,601.7640456706285,601.7640456706285,601.7640456706285,601.7640456706285,601.7640456706285,601.7640456706285,601.7640456706285,601.7640456706285,601.7640456706285,601.7640456706285,601.7640456706285,f,3.186663607135415,dist1,None,,601.7640456706285,,,,,,,,,,,,,student1,2022-10-25_16h15.10.114,Hippopolis_4AFCT,2022.2.2,60.009145267768794,
Hippopolis,stimuli/subj_files/student1_cityA.csv,./stimuli/frankfurt.jpg,./stimuli/street_plate1.png,KOCKA UTCA,stimuli/objects/062a.jpg,object,0,stimuli/objects/062a.jpg,stimuli/scenes/095b.jpg,stimuli/objects/062a.jpg,stimuli/objects/062b.jpg,stimuli/scenes/095a.jpg,dist2,target,lure,dist1,0,1,1,0,0,55,55,35,,,,,,,604.9855235852301,606.0451320037246,606.0451320037246,606.0451320037246,606.0451320037246,606.0451320037246,606.0451320037246,606.0451320037246,606.0451320037246,606.0451320037246,606.0451320037246,606.0451320037246,606.0451320037246,f,3.1778907384723425,target,None,,,,,,,,,,,,,,,student1,2022-10-25_16h15.10.114,Hippopolis_4AFCT,2022.2.2,60.009145267768794,
Hippopolis,stimuli/subj_files/student1_cityA.csv,./stimuli/frankfurt.jpg,./stimuli/street_plate1.png,HORDÓ UTCA,stimuli/scenes/095a.jpg,scene,0,stimuli/scenes/095a.jpg,stimuli/scenes/095a.jpg,stimuli/scenes/046a.jpg,stimuli/scenes/095b.jpg,stimuli/scenes/046b.jpg,target,dist1,lure,dist2,0,1,1,0,0,56,56,27,,,,,,,609.2529007550329,610.299265589565,610.299265589565,610.299265589565,610.299265589565,610.299265589565,610.299265589565,610.299265589565,610.299265589565,610.299265589565,610.299265589565,610.299265589565,610.299265589565,d,1.7557315938174725,target,None,,,,,,,,,,,,,,,student1,2022-10-25_16h15.10.114,Hippopolis_4AFCT,2022.2.2,60.009145267768794,
Hippopolis,stimuli/subj_files/student1_cityA.csv,./stimuli/frankfurt.jpg,./stimuli/street_plate1.png,MOCSÁR UTCA,stimuli/objects/080a.jpg,object,0,stimuli/objects/080a.jpg,stimuli/objects/080b.jpg,stimuli/objects/080a.jpg,stimuli/scenes/043b.jpg,stimuli/scenes/043a.jpg,lure,target,dist2,dist1,0,1,1,0,0,57,57,17,,,,,,,612.0791449062526,613.1408109422773,613.1408109422773,613.1408109422773,613.1408109422773,613.1408109422773,613.1408109422773,613.1408109422773,613.1408109422773,613.1408109422773,613.1408109422773,613.1408109422773,613.1408109422773,f,1.7620758134871721,target,None,,,,,,,,,,,,,,,student1,2022-10-25_16h15.10.114,Hippopolis_4AFCT,2022.2.2,60.009145267768794,
Hippopolis,stimuli/subj_files/student1_cityA.csv,./stimuli/frankfurt.jpg,./stimuli/street_plate1.png,TALICSKA UTCA,stimuli/objects/014a.jpg,object,1,stimuli/objects/108a.jpg,stimuli/objects/109a.jpg,stimuli/objects/109b.jpg,stimuli/objects/108a.jpg,stimuli/objects/108b.jpg,dist1,dist2,target,lure,0,1,1,0,0,58,58,13,,,,,,,614.9312386624515,615.9812817685306,615.9812817685306,615.9812817685306,615.9812817685306,615.9812817685306,615.9812817685306,615.9812817685306,615.9812817685306,615.9812817685306,615.9812817685306,615.9812817685306,615.9812817685306,j,2.521402584388852,target,None,,,,,,,,,,,,,,,student1,2022-10-25_16h15.10.114,Hippopolis_4AFCT,2022.2.2,60.009145267768794,
Hippopolis,stimuli/subj_files/student1_cityA.csv,./stimuli/frankfurt.jpg,./stimuli/street_plate1.png,BAGOLY UTCA,stimuli/scenes/029a.jpg,scene,2,stimuli/objects/028a.jpg,stimuli/objects/028b.jpg,stimuli/objects/028a.jpg,stimuli/scenes/028a.jpg,stimuli/scenes/028b.jpg,lure,target,dist1,dist2,0,1,1,0,0,59,59,21,,,,,,,618.5306447036564,619.5774990599602,619.5774990599602,619.5774990599602,619.5774990599602,619.5774990599602,619.5774990599602,619.5774990599602,619.5774990599602,619.5774990599602,619.5774990599602,619.5774990599602,619.5774990599602,f,3.0852207839488983,target,None,,,,,,,,,,,,,,,student1,2022-10-25_16h15.10.114,Hippopolis_4AFCT,2022.2.2,60.009145267768794,
Hippopolis,stimuli/subj_files/student1_cityA.csv,./stimuli/frankfurt.jpg,./stimuli/street_plate1.png,EGÉR UTCA,stimuli/scenes/071a.jpg,scene,1,stimuli/scenes/116a.jpg,stimuli/scenes/116b.jpg,stimuli/scenes/116a.jpg,stimuli/scenes/009b.jpg,stimuli/scenes/009a.jpg,lure,target,dist2,dist1,0,1,1,0,0,60,60,29,,,,,,,622.6872065644711,623.7246666625142,623.7246666625142,623.7246666625142,623.7246666625142,623.7246666625142,623.7246666625142,623.7246666625142,623.7246666625142,623.7246666625142,623.7246666625142,623.7246666625142,623.7246666625142,f,3.0017986074090004,target,None,,,,,,,,,,,,,,,student1,2022-10-25_16h15.10.114,Hippopolis_4AFCT,2022.2.2,60.009145267768794,
Hippopolis,stimuli/subj_files/student1_cityA.csv,./stimuli/frankfurt.jpg,./stimuli/street_plate1.png,HERNYÓ UTCA,stimuli/scenes/066a.jpg,scene,1,stimuli/scenes/037a.jpg,stimuli/scenes/037a.jpg,stimuli/objects/045b.jpg,stimuli/scenes/037b.jpg,stimuli/objects/045a.jpg,target,dist2,lure,dist1,0,1,1,0,0,61,61,5,,,,,,,626.7537249233574,627.7866427730769,627.7866427730769,627.7866427730769,627.7866427730769,627.7866427730769,627.7866427730769,627.7866427730769,627.7866427730769,627.7866427730769,627.7866427730769,627.7866427730769,627.7866427730769,d,3.6915140617638826,target,None,631.2542048059404,627.7866427730769,,,,,,,,,,,,,student1,2022-10-25_16h15.10.114,Hippopolis_4AFCT,2022.2.2,60.009145267768794,
Hippopolis,stimuli/subj_files/student1_cityA.csv,./stimuli/frankfurt.jpg,./stimuli/street_plate1.png,FÉNYKÉP UTCA,stimuli/scenes/010a.jpg,scene,1,stimuli/scenes/078a.jpg,stimuli/scenes/088a.jpg,stimuli/scenes/078a.jpg,stimuli/scenes/088b.jpg,stimuli/scenes/078b.jpg,dist1,target,dist2,lure,0,1,1,0,0,62,62,32,,,,,,,631.4952512420714,632.5408628173172,632.5408628173172,632.5408628173172,632.5408628173172,632.5408628173172,632.5408628173172,632.5408628173172,632.5408628173172,632.5408628173172,632.5408628173172,632.5408628173172,632.5408628173172,f,3.7371959257870913,target,None,635.991467539221,,,,,,,,,,,,,,student1,2022-10-25_16h15.10.114,Hippopolis_4AFCT,2022.2.2,60.009145267768794,
Hippopolis,stimuli/subj_files/student1_cityA.csv,./stimuli/frankfurt.jpg,./stimuli/street_plate1.png,CSILLAG UTCA,stimuli/scenes/083a.jpg,scene,1,stimuli/scenes/117a.jpg,stimuli/scenes/117a.jpg,stimuli/scenes/117b.jpg,stimuli/objects/041a.jpg,stimuli/objects/041b.jpg,target,lure,dist1,dist2,0,1,1,0,0,63,63,15,,,,,,,636.3105656951666,637.3765124231577,637.3765124231577,637.3765124231577,637.3765124231577,637.3765124231577,637.3765124231577,637.3765124231577,637.3765124231577,637.3765124231577,637.3765124231577,637.3765124231577,637.3765124231577,f,2.3737495001405478,lure,None,,637.3765124231577,,,,,,,,,,,,,student1,2022-10-25_16h15.10.114,Hippopolis_4AFCT,2022.2.2,60.009145267768794,
