CityName,StimuliFile,CityImage,StreetSign,Cue,Image,Category,Novelty,UpdateImage,TestImage1,TestImage2,TestImage3,TestImage4,TestImage1Type,TestImage2Type,TestImage3Type,TestImage4Type,CityBlock.thisRepN,CityBlock.thisTrialN,CityBlock.thisN,CityBlock.thisIndex,LearningTrials.thisRepN,LearningTrials.thisTrialN,LearningTrials.thisN,LearningTrials.thisIndex,trials.thisRepN,trials.thisTrialN,trials.thisN,trials.thisIndex,learning_instructions_text.started,intro_key.started,intro_key.keys,intro_key.rt,cityname_text.started,city_image.started,fx_cross.started,plate.started,city_text.started,street_text.started,learning_image.started,short_break_key.keys,fx_cross.stopped,short_break_text.started,short_break_key.started,short_break_key.rt,test_text.started,key_resp.started,key_resp.keys,key_resp.rt,plate_test.started,city_text_test.started,street_text_test.started,test_question.started,test_key_resp.started,button_image.started,test_key_resp.keys,verbal_test_key_resp.keys,test_key_resp.rt,plate_verbal.started,street_text_verbal.started,city_text_verbal.started,question_verbal.started,verbal_test_key_resp.started,verbal_test_key_resp.rt,n_remembered,break_text.started,break_key_resp.started,break_key_resp.keys,break_key_resp.rt,end_text.started,participant,date,expName,psychopyVersion,frameRate,
,,,,,,,,,,,,,,,,,,,,,,,,,,,,,13.881874484941363,13.881874484941363,space,32.55215126648545,,,,,,,,,,,,,,,,,,,,,,,,,,,,,,,,,,,,,,student1,2022-10-21_14h14.29.763,Hippopolis_Learning,2022.2.2,59.852424842396424,
Hippopolis,stimuli/subj_files/student1_cityA.csv,./stimuli/frankfurt.jpg,./stimuli/street_plate1.png,CSAVAR UTCA,stimuli/objects/078a.jpg,object,0,stimuli/objects/078a.jpg,stimuli/objects/078b.jpg,stimuli/objects/024b.jpg,stimuli/objects/078a.jpg,stimuli/objects/024a.jpg,lure,dist2,target,dist1,0,0,0,0,0,0,0,10,,,,,,,,,46.55914128758013,46.55914128758013,49.50815676525235,50.49648531712592,50.49648531712592,50.49648531712592,50.49648531712592,None,,,,,,,,,,,,,,,,,,,,,,,,,,,,,,student1,2022-10-21_14h14.29.763,Hippopolis_Learning,2022.2.2,59.852424842396424,
Hippopolis,stimuli/subj_files/student1_cityA.csv,./stimuli/frankfurt.jpg,./stimuli/street_plate1.png,KAKAS UTCA,stimuli/objects/002a.jpg,object,2,stimuli/scenes/074a.jpg,stimuli/scenes/074b.jpg,stimuli/scenes/074a.jpg,stimuli/scenes/070a.jpg,stimuli/scenes/070b.jpg,lure,target,dist1,dist2,0,0,0,0,0,1,1,24,,,,,,,,,,,53.46200590394437,54.49331336282194,54.49331336282194,54.49331336282194,54.49331336282194,None,,,,,,,,,,,,,,,,,,,,,,,,,,,,,,student1,2022-10-21_14h14.29.763,Hippopolis_Learning,2022.2.2,59.852424842396424,
Hippopolis,stimuli/subj_files/student1_cityA.csv,./stimuli/frankfurt.jpg,./stimuli/street_plate1.png,MOGYORÓ UTCA,stimuli/objects/106a.jpg,object,1,stimuli/objects/103a.jpg,stimuli/scenes/116a.jpg,stimuli/objects/103b.jpg,stimuli/objects/103a.jpg,stimuli/scenes/116b.jpg,dist1,lure,target,dist2,0,0,0,0,0,2,2,54,,,,,,,,,,,57.47628825157881,58.51970038935542,58.51970038935542,58.51970038935542,58.51970038935542,None,,,,,,,,,,,,,,,,,,,,,,,,,,,,,,student1,2022-10-21_14h14.29.763,Hippopolis_Learning,2022.2.2,59.852424842396424,
Hippopolis,stimuli/subj_files/student1_cityA.csv,./stimuli/frankfurt.jpg,./stimuli/street_plate1.png,TERASZ UTCA,stimuli/objects/063a.jpg,object,2,stimuli/scenes/104a.jpg,stimuli/scenes/104a.jpg,stimuli/scenes/056a.jpg,stimuli/scenes/104b.jpg,stimuli/scenes/056b.jpg,target,dist1,lure,dist2,0,0,0,0,0,3,3,48,,,,,,,,,,,61.47671712934971,62.495059663429856,62.495059663429856,62.495059663429856,62.495059663429856,None,,,,,,,,,,,,,,,,,,,,,,,,,,,,,,student1,2022-10-21_14h14.29.763,Hippopolis_Learning,2022.2.2,59.852424842396424,
Hippopolis,stimuli/subj_files/student1_cityA.csv,./stimuli/frankfurt.jpg,./stimuli/street_plate1.png,PADLÓ UTCA,stimuli/objects/100a.jpg,object,0,stimuli/objects/100a.jpg,stimuli/scenes/058a.jpg,stimuli/scenes/058b.jpg,stimuli/objects/100a.jpg,stimuli/objects/100b.jpg,dist1,dist2,target,lure,0,0,0,0,0,4,4,59,,,,,,,,,,,65.48647650890052,66.52108312398195,66.52108312398195,66.52108312398195,66.52108312398195,None,66.52108312398195,,,,,,,,,,,,,,,,,,,,,,,,,,,,,student1,2022-10-21_14h14.29.763,Hippopolis_Learning,2022.2.2,59.852424842396424,
Hippopolis,stimuli/subj_files/student1_cityA.csv,./stimuli/frankfurt.jpg,./stimuli/street_plate1.png,OLDAL UTCA,stimuli/scenes/093a.jpg,scene,2,stimuli/objects/107a.jpg,stimuli/objects/107b.jpg,stimuli/objects/022a.jpg,stimuli/objects/107a.jpg,stimuli/objects/022b.jpg,lure,dist1,target,dist2,0,0,0,0,0,5,5,11,,,,,,,,,,,69.49383927509189,70.53898589499295,70.53898589499295,70.53898589499295,70.53898589499295,None,,,,,,,,,,,,,,,,,,,,,,,,,,,,,,student1,2022-10-21_14h14.29.763,Hippopolis_Learning,2022.2.2,59.852424842396424,
Hippopolis,stimuli/subj_files/student1_cityA.csv,./stimuli/frankfurt.jpg,./stimuli/street_plate1.png,MUSTÁR UTCA,stimuli/scenes/050a.jpg,scene,0,stimuli/scenes/050a.jpg,stimuli/objects/009a.jpg,stimuli/objects/009b.jpg,stimuli/scenes/050a.jpg,stimuli/scenes/050b.jpg,dist1,dist2,target,lure,0,0,0,0,0,6,6,78,,,,,,,,,,,73.50755123607814,74.54291359521449,74.54291359521449,74.54291359521449,74.54291359521449,None,,,,,,,,,,,,,,,,,,,,,,,,,,,,,,student1,2022-10-21_14h14.29.763,Hippopolis_Learning,2022.2.2,59.852424842396424,
Hippopolis,stimuli/subj_files/student1_cityA.csv,./stimuli/frankfurt.jpg,./stimuli/street_plate1.png,HERNYÓ UTCA,stimuli/scenes/066a.jpg,scene,1,stimuli/scenes/037a.jpg,stimuli/scenes/037a.jpg,stimuli/objects/045b.jpg,stimuli/scenes/037b.jpg,stimuli/objects/045a.jpg,target,dist2,lure,dist1,0,0,0,0,0,7,7,5,,,,,,,,,,,77.51021562702954,78.53254526481032,78.53254526481032,78.53254526481032,78.53254526481032,None,,,,,,,,,,,,,,,,,,,,,,,,,,,,,,student1,2022-10-21_14h14.29.763,Hippopolis_Learning,2022.2.2,59.852424842396424,
Hippopolis,stimuli/subj_files/student1_cityA.csv,./stimuli/frankfurt.jpg,./stimuli/street_plate1.png,SZIKLA UTCA,stimuli/scenes/111a.jpg,scene,2,stimuli/objects/073a.jpg,stimuli/objects/120b.jpg,stimuli/objects/120a.jpg,stimuli/objects/073a.jpg,stimuli/objects/073b.jpg,dist2,dist1,target,lure,0,0,0,0,0,8,8,1,,,,,,,,,,,81.51703910715878,82.55704572610557,82.55704572610557,82.55704572610557,82.55704572610557,None,,,,,,,,,,,,,,,,,,,,,,,,,,,,,,student1,2022-10-21_14h14.29.763,Hippopolis_Learning,2022.2.2,59.852424842396424,
Hippopolis,stimuli/subj_files/student1_cityA.csv,./stimuli/frankfurt.jpg,./stimuli/street_plate1.png,ZSEMLE UTCA,stimuli/objects/115a.jpg,object,1,stimuli/objects/053a.jpg,stimuli/objects/007a.jpg,stimuli/objects/053a.jpg,stimuli/objects/007b.jpg,stimuli/objects/053b.jpg,dist1,target,dist2,lure,0,0,0,0,0,9,9,47,,,,,,,,,,,85.52984852716327,86.56317379511893,86.56317379511893,86.56317379511893,86.56317379511893,None,86.56317379511893,,,,,,,,,,,,,,,,,,,,,,,,,,,,,student1,2022-10-21_14h14.29.763,Hippopolis_Learning,2022.2.2,59.852424842396424,
Hippopolis,stimuli/subj_files/student1_cityA.csv,./stimuli/frankfurt.jpg,./stimuli/street_plate1.png,MARTINI UTCA,stimuli/objects/060a.jpg,object,1,stimuli/objects/011a.jpg,stimuli/objects/075b.jpg,stimuli/objects/075a.jpg,stimuli/objects/011b.jpg,stimuli/objects/011a.jpg,dist2,dist1,lure,target,0,0,0,0,0,10,10,60,,,,,,,,,,,89.53812658414245,90.58283966220915,90.58283966220915,90.58283966220915,90.58283966220915,None,,,,,,,,,,,,,,,,,,,,,,,,,,,,,,student1,2022-10-21_14h14.29.763,Hippopolis_Learning,2022.2.2,59.852424842396424,
Hippopolis,stimuli/subj_files/student1_cityA.csv,./stimuli/frankfurt.jpg,./stimuli/street_plate1.png,LÉTRA UTCA,stimuli/objects/047a.jpg,object,1,stimuli/objects/015a.jpg,stimuli/objects/108b.jpg,stimuli/objects/015b.jpg,stimuli/objects/108a.jpg,stimuli/objects/015a.jpg,dist2,lure,dist1,target,0,0,0,0,0,11,11,33,,,,,,,,,,,93.55826331488788,94.60042334161699,94.60042334161699,94.60042334161699,94.60042334161699,None,,,,,,,,,,,,,,,,,,,,,,,,,,,,,,student1,2022-10-21_14h14.29.763,Hippopolis_Learning,2022.2.2,59.852424842396424,
Hippopolis,stimuli/subj_files/student1_cityA.csv,./stimuli/frankfurt.jpg,./stimuli/street_plate1.png,CSILLAG UTCA,stimuli/scenes/083a.jpg,scene,1,stimuli/scenes/117a.jpg,stimuli/scenes/117a.jpg,stimuli/scenes/117b.jpg,stimuli/objects/041a.jpg,stimuli/objects/041b.jpg,target,lure,dist1,dist2,0,0,0,0,0,12,12,15,,,,,,,,,,,97.56974287331104,98.59874390810728,98.59874390810728,98.59874390810728,98.59874390810728,None,,,,,,,,,,,,,,,,,,,,,,,,,,,,,,student1,2022-10-21_14h14.29.763,Hippopolis_Learning,2022.2.2,59.852424842396424,
Hippopolis,stimuli/subj_files/student1_cityA.csv,./stimuli/frankfurt.jpg,./stimuli/street_plate1.png,HEGEDŰ UTCA,stimuli/scenes/113a.jpg,scene,2,stimuli/objects/036a.jpg,stimuli/objects/036b.jpg,stimuli/scenes/059b.jpg,stimuli/scenes/059a.jpg,stimuli/objects/036a.jpg,lure,dist2,dist1,target,0,0,0,0,0,13,13,69,,,,,,,,,,,101.57613903097808,102.59470984339714,102.59470984339714,102.59470984339714,102.59470984339714,None,102.59470984339714,,,,,,,,,,,,,,,,,,,,,,,,,,,,,student1,2022-10-21_14h14.29.763,Hippopolis_Learning,2022.2.2,59.852424842396424,
Hippopolis,stimuli/subj_files/student1_cityA.csv,./stimuli/frankfurt.jpg,./stimuli/street_plate1.png,PÁFRÁNY UTCA,stimuli/scenes/101a.jpg,scene,0,stimuli/scenes/101a.jpg,stimuli/scenes/101a.jpg,stimuli/scenes/101b.jpg,stimuli/objects/051a.jpg,stimuli/objects/051b.jpg,target,lure,dist1,dist2,0,0,0,0,0,14,14,0,,,,,,,,,,,105.58288693614304,106.60050544887781,106.60050544887781,106.60050544887781,106.60050544887781,None,106.60050544887781,,,,,,,,,,,,,,,,,,,,,,,,,,,,,student1,2022-10-21_14h14.29.763,Hippopolis_Learning,2022.2.2,59.852424842396424,
Hippopolis,stimuli/subj_files/student1_cityA.csv,./stimuli/frankfurt.jpg,./stimuli/street_plate1.png,AJÁNDÉK UTCA,stimuli/scenes/005a.jpg,scene,1,stimuli/scenes/009a.jpg,stimuli/scenes/078b.jpg,stimuli/scenes/078a.jpg,stimuli/scenes/009a.jpg,stimuli/scenes/009b.jpg,dist2,dist1,target,lure,0,0,0,0,0,15,15,28,,,,,,,,,,,109.5954012107104,110.63742906041443,110.63742906041443,110.63742906041443,110.63742906041443,None,,,,,,,,,,,,,,,,,,,,,,,,,,,,,,student1,2022-10-21_14h14.29.763,Hippopolis_Learning,2022.2.2,59.852424842396424,
Hippopolis,stimuli/subj_files/student1_cityA.csv,./stimuli/frankfurt.jpg,./stimuli/street_plate1.png,PAPAGÁJ UTCA,stimuli/objects/093a.jpg,object,2,stimuli/scenes/097a.jpg,stimuli/scenes/097a.jpg,stimuli/scenes/109b.jpg,stimuli/scenes/109a.jpg,stimuli/scenes/097b.jpg,target,dist2,dist1,lure,0,0,0,0,0,16,16,55,,,,,,,,,,,113.61187553033233,114.6332177221775,114.6332177221775,114.6332177221775,114.6332177221775,None,,,,,,,,,,,,,,,,,,,,,,,,,,,,,,student1,2022-10-21_14h14.29.763,Hippopolis_Learning,2022.2.2,59.852424842396424,
Hippopolis,stimuli/subj_files/student1_cityA.csv,./stimuli/frankfurt.jpg,./stimuli/street_plate1.png,KULLANCS UTCA,stimuli/objects/089a.jpg,object,0,stimuli/objects/089a.jpg,stimuli/scenes/072a.jpg,stimuli/objects/089a.jpg,stimuli/scenes/072b.jpg,stimuli/objects/089b.jpg,dist1,target,dist2,lure,0,0,0,0,0,17,17,34,,,,,,,,,,,117.61862405762076,118.65773902088404,118.65773902088404,118.65773902088404,118.65773902088404,None,,,,,,,,,,,,,,,,,,,,,,,,,,,,,,student1,2022-10-21_14h14.29.763,Hippopolis_Learning,2022.2.2,59.852424842396424,
Hippopolis,stimuli/subj_files/student1_cityA.csv,./stimuli/frankfurt.jpg,./stimuli/street_plate1.png,PULÓVER UTCA,stimuli/objects/114a.jpg,object,0,stimuli/objects/114a.jpg,stimuli/scenes/050b.jpg,stimuli/scenes/050a.jpg,stimuli/objects/114b.jpg,stimuli/objects/114a.jpg,dist2,dist1,lure,target,0,0,0,0,0,18,18,43,,,,,,,,,,,121.6336938738823,122.66527626104653,122.66527626104653,122.66527626104653,122.66527626104653,None,,,,,,,,,,,,,,,,,,,,,,,,,,,,,,student1,2022-10-21_14h14.29.763,Hippopolis_Learning,2022.2.2,59.852424842396424,
Hippopolis,stimuli/subj_files/student1_cityA.csv,./stimuli/frankfurt.jpg,./stimuli/street_plate1.png,KERET UTCA,stimuli/scenes/027a.jpg,scene,0,stimuli/scenes/027a.jpg,stimuli/objects/100a.jpg,stimuli/objects/100b.jpg,stimuli/scenes/027a.jpg,stimuli/scenes/027b.jpg,dist1,dist2,target,lure,0,0,0,0,0,19,19,3,,,,,,,,,,,125.6435129661113,126.68833987228572,126.68833987228572,126.68833987228572,126.68833987228572,None,,,,,,,,,,,,,,,,,,,,,,,,,,,,,,student1,2022-10-21_14h14.29.763,Hippopolis_Learning,2022.2.2,59.852424842396424,
Hippopolis,stimuli/subj_files/student1_cityA.csv,./stimuli/frankfurt.jpg,./stimuli/street_plate1.png,HEGESZTŐ UTCA,stimuli/scenes/043a.jpg,scene,0,stimuli/scenes/043a.jpg,stimuli/scenes/043b.jpg,stimuli/scenes/043a.jpg,stimuli/objects/062a.jpg,stimuli/objects/062b.jpg,lure,target,dist1,dist2,0,0,0,0,0,20,20,77,,,,,,,,,,,129.64566886238754,130.6851141154766,130.6851141154766,130.6851141154766,130.6851141154766,None,,,,,,,,,,,,,,,,,,,,,,,,,,,,,,student1,2022-10-21_14h14.29.763,Hippopolis_Learning,2022.2.2,59.852424842396424,
Hippopolis,stimuli/subj_files/student1_cityA.csv,./stimuli/frankfurt.jpg,./stimuli/street_plate1.png,PÉKSÉG UTCA,stimuli/scenes/073a.jpg,scene,2,stimuli/objects/059a.jpg,stimuli/objects/059a.jpg,stimuli/objects/046b.jpg,stimuli/objects/059b.jpg,stimuli/objects/046a.jpg,target,dist2,lure,dist1,0,0,0,0,0,21,21,61,,,,,,,,,,,133.65742334909737,134.68680443428457,134.68680443428457,134.68680443428457,134.68680443428457,None,,,,,,,,,,,,,,,,,,,,,,,,,,,,,,student1,2022-10-21_14h14.29.763,Hippopolis_Learning,2022.2.2,59.852424842396424,
Hippopolis,stimuli/subj_files/student1_cityA.csv,./stimuli/frankfurt.jpg,./stimuli/street_plate1.png,LÁNDZSA UTCA,stimuli/scenes/090a.jpg,scene,0,stimuli/scenes/090a.jpg,stimuli/scenes/090a.jpg,stimuli/objects/091b.jpg,stimuli/scenes/090b.jpg,stimuli/objects/091a.jpg,target,dist2,lure,dist1,0,0,0,0,0,22,22,39,,,,,,,,,,,137.66593683883548,138.70877392590046,138.70877392590046,138.70877392590046,138.70877392590046,None,,,,,,,,,,,,,,,,,,,,,,,,,,,,,,student1,2022-10-21_14h14.29.763,Hippopolis_Learning,2022.2.2,59.852424842396424,
Hippopolis,stimuli/subj_files/student1_cityA.csv,./stimuli/frankfurt.jpg,./stimuli/street_plate1.png,KERÉK UTCA,stimuli/scenes/096a.jpg,scene,1,stimuli/scenes/041a.jpg,stimuli/scenes/117a.jpg,stimuli/scenes/041b.jpg,stimuli/scenes/041a.jpg,stimuli/scenes/117b.jpg,dist1,lure,target,dist2,0,0,0,0,0,23,23,20,,,,,,,,,,,141.67394369840622,142.6921864002943,142.6921864002943,142.6921864002943,142.6921864002943,None,,,,,,,,,,,,,,,,,,,,,,,,,,,,,,student1,2022-10-21_14h14.29.763,Hippopolis_Learning,2022.2.2,59.852424842396424,
Hippopolis,stimuli/subj_files/student1_cityA.csv,./stimuli/frankfurt.jpg,./stimuli/street_plate1.png,VÖDÖR UTCA,stimuli/scenes/055a.jpg,scene,1,stimuli/scenes/088a.jpg,stimuli/scenes/088b.jpg,stimuli/scenes/088a.jpg,stimuli/scenes/087b.jpg,stimuli/scenes/087a.jpg,lure,target,dist2,dist1,0,0,0,0,0,24,24,56,,,,,,,,,,,145.6761807668954,146.72415567934513,146.72415567934513,146.72415567934513,146.72415567934513,None,,,,,,,,,,,,,,,,,,,,,,,,,,,,,,student1,2022-10-21_14h14.29.763,Hippopolis_Learning,2022.2.2,59.852424842396424,
Hippopolis,stimuli/subj_files/student1_cityA.csv,./stimuli/frankfurt.jpg,./stimuli/street_plate1.png,FÉNYKÉP UTCA,stimuli/scenes/010a.jpg,scene,1,stimuli/scenes/078a.jpg,stimuli/scenes/088a.jpg,stimuli/scenes/078a.jpg,stimuli/scenes/088b.jpg,stimuli/scenes/078b.jpg,dist1,target,dist2,lure,0,0,0,0,0,25,25,32,,,,,,,,,,,149.68452755734324,150.71766964159906,150.71766964159906,150.71766964159906,150.71766964159906,None,,,,,,,,,,,,,,,,,,,,,,,,,,,,,,student1,2022-10-21_14h14.29.763,Hippopolis_Learning,2022.2.2,59.852424842396424,
Hippopolis,stimuli/subj_files/student1_cityA.csv,./stimuli/frankfurt.jpg,./stimuli/street_plate1.png,FÓKA UTCA,stimuli/scenes/058a.jpg,scene,0,stimuli/scenes/058a.jpg,stimuli/scenes/058a.jpg,stimuli/scenes/058b.jpg,stimuli/objects/111b.jpg,stimuli/objects/111a.jpg,target,lure,dist2,dist1,0,0,0,0,0,26,26,51,,,,,,,,,,,153.69396193511784,154.74007796309888,154.74007796309888,154.74007796309888,154.74007796309888,None,,,,,,,,,,,,,,,,,,,,,,,,,,,,,,student1,2022-10-21_14h14.29.763,Hippopolis_Learning,2022.2.2,59.852424842396424,
Hippopolis,stimuli/subj_files/student1_cityA.csv,./stimuli/frankfurt.jpg,./stimuli/street_plate1.png,BOLYGÓ UTCA,stimuli/scenes/118a.jpg,scene,1,stimuli/scenes/087a.jpg,stimuli/objects/011a.jpg,stimuli/scenes/087b.jpg,stimuli/objects/011b.jpg,stimuli/scenes/087a.jpg,dist1,lure,dist2,target,0,0,0,0,0,27,27,31,,,,,,,,,,,157.7078303322196,158.75230673514307,158.75230673514307,158.75230673514307,158.75230673514307,None,,,,,,,,,,,,,,,,,,,,,,,,,,,,,,student1,2022-10-21_14h14.29.763,Hippopolis_Learning,2022.2.2,59.852424842396424,
Hippopolis,stimuli/subj_files/student1_cityA.csv,./stimuli/frankfurt.jpg,./stimuli/street_plate1.png,BAGOLY UTCA,stimuli/scenes/029a.jpg,scene,2,stimuli/objects/028a.jpg,stimuli/objects/028b.jpg,stimuli/objects/028a.jpg,stimuli/scenes/028a.jpg,stimuli/scenes/028b.jpg,lure,target,dist1,dist2,0,0,0,0,0,28,28,21,,,,,,,,,,,161.70748138427734,162.75219135172665,162.75219135172665,162.75219135172665,162.75219135172665,None,,,,,,,,,,,,,,,,,,,,,,,,,,,,,,student1,2022-10-21_14h14.29.763,Hippopolis_Learning,2022.2.2,59.852424842396424,
Hippopolis,stimuli/subj_files/student1_cityA.csv,./stimuli/frankfurt.jpg,./stimuli/street_plate1.png,KOCKA UTCA,stimuli/objects/062a.jpg,object,0,stimuli/objects/062a.jpg,stimuli/scenes/095b.jpg,stimuli/objects/062a.jpg,stimuli/objects/062b.jpg,stimuli/scenes/095a.jpg,dist2,target,lure,dist1,0,0,0,0,0,29,29,35,,,,,,,,,,,165.72971056587994,166.76211929693818,166.76211929693818,166.76211929693818,166.76211929693818,None,,,,,,,,,,,,,,,,,,,,,,,,,,,,,,student1,2022-10-21_14h14.29.763,Hippopolis_Learning,2022.2.2,59.852424842396424,
Hippopolis,stimuli/subj_files/student1_cityA.csv,./stimuli/frankfurt.jpg,./stimuli/street_plate1.png,TRIATLON UTCA,stimuli/objects/024a.jpg,object,0,stimuli/objects/024a.jpg,stimuli/objects/024b.jpg,stimuli/objects/080a.jpg,stimuli/objects/024a.jpg,stimuli/objects/080b.jpg,lure,dist1,target,dist2,0,0,0,0,0,30,30,2,,,,,,,,,,,169.73210407048464,170.7494806200266,170.7494806200266,170.7494806200266,170.7494806200266,None,,,,,,,,,,,,,,,,,,,,,,,,,,,,,,student1,2022-10-21_14h14.29.763,Hippopolis_Learning,2022.2.2,59.852424842396424,
Hippopolis,stimuli/subj_files/student1_cityA.csv,./stimuli/frankfurt.jpg,./stimuli/street_plate1.png,TALICSKA UTCA,stimuli/objects/014a.jpg,object,1,stimuli/objects/108a.jpg,stimuli/objects/109a.jpg,stimuli/objects/109b.jpg,stimuli/objects/108a.jpg,stimuli/objects/108b.jpg,dist1,dist2,target,lure,0,0,0,0,0,31,31,13,,,,,,,,,,,173.73245955072343,174.76529995910823,174.76529995910823,174.76529995910823,174.76529995910823,None,,,,,,,,,,,,,,,,,,,,,,,,,,,,,,student1,2022-10-21_14h14.29.763,Hippopolis_Learning,2022.2.2,59.852424842396424,
Hippopolis,stimuli/subj_files/student1_cityA.csv,./stimuli/frankfurt.jpg,./stimuli/street_plate1.png,ÁRNYÉK UTCA,stimuli/objects/020a.jpg,object,1,stimuli/objects/027a.jpg,stimuli/scenes/004a.jpg,stimuli/objects/027b.jpg,stimuli/objects/027a.jpg,stimuli/scenes/004b.jpg,dist1,lure,target,dist2,0,0,0,0,0,32,32,52,,,,,,,,,,,177.74436860717833,178.77705755643547,178.77705755643547,178.77705755643547,178.77705755643547,None,,,,,,,,,,,,,,,,,,,,,,,,,,,,,,student1,2022-10-21_14h14.29.763,Hippopolis_Learning,2022.2.2,59.852424842396424,
Hippopolis,stimuli/subj_files/student1_cityA.csv,./stimuli/frankfurt.jpg,./stimuli/street_plate1.png,SIVATAG UTCA,stimuli/scenes/016a.jpg,scene,2,stimuli/objects/046a.jpg,stimuli/objects/046b.jpg,stimuli/objects/006a.jpg,stimuli/objects/006b.jpg,stimuli/objects/046a.jpg,lure,dist1,dist2,target,0,0,0,0,0,33,33,23,,,,,,,,,,,181.7491154987365,182.7776528224349,182.7776528224349,182.7776528224349,182.7776528224349,None,,,,,,,,,,,,,,,,,,,,,,,,,,,,,,student1,2022-10-21_14h14.29.763,Hippopolis_Learning,2022.2.2,59.852424842396424,
Hippopolis,stimuli/subj_files/student1_cityA.csv,./stimuli/frankfurt.jpg,./stimuli/street_plate1.png,EGÉR UTCA,stimuli/scenes/071a.jpg,scene,1,stimuli/scenes/116a.jpg,stimuli/scenes/116b.jpg,stimuli/scenes/116a.jpg,stimuli/scenes/009b.jpg,stimuli/scenes/009a.jpg,lure,target,dist2,dist1,0,0,0,0,0,34,34,29,,,,,,,,,,,185.76558204181492,186.7907878663391,186.7907878663391,186.7907878663391,186.7907878663391,None,,,,,,,,,,,,,,,,,,,,,,,,,,,,,,student1,2022-10-21_14h14.29.763,Hippopolis_Learning,2022.2.2,59.852424842396424,
Hippopolis,stimuli/subj_files/student1_cityA.csv,./stimuli/frankfurt.jpg,./stimuli/street_plate1.png,OROSZLÁN UTCA,stimuli/scenes/072a.jpg,scene,0,stimuli/scenes/072a.jpg,stimuli/scenes/072a.jpg,stimuli/scenes/072b.jpg,stimuli/scenes/027b.jpg,stimuli/scenes/027a.jpg,target,lure,dist2,dist1,0,0,0,0,0,35,35,66,,,,,,,,,,,189.78083068691194,190.80512401647866,190.80512401647866,190.80512401647866,190.80512401647866,None,,,,,,,,,,,,,,,,,,,,,,,,,,,,,,student1,2022-10-21_14h14.29.763,Hippopolis_Learning,2022.2.2,59.852424842396424,
Hippopolis,stimuli/subj_files/student1_cityA.csv,./stimuli/frankfurt.jpg,./stimuli/street_plate1.png,KÖNYVTÁR UTCA,stimuli/objects/113a.jpg,object,1,stimuli/objects/109a.jpg,stimuli/objects/109a.jpg,stimuli/objects/109b.jpg,stimuli/scenes/067a.jpg,stimuli/scenes/067b.jpg,target,lure,dist1,dist2,0,0,0,0,0,36,36,42,,,,,,,,,,,193.7935191243887,194.83516287989914,194.83516287989914,194.83516287989914,194.83516287989914,None,,,,,,,,,,,,,,,,,,,,,,,,,,,,,,student1,2022-10-21_14h14.29.763,Hippopolis_Learning,2022.2.2,59.852424842396424,
Hippopolis,stimuli/subj_files/student1_cityA.csv,./stimuli/frankfurt.jpg,./stimuli/street_plate1.png,KORONG UTCA,stimuli/scenes/065a.jpg,scene,1,stimuli/scenes/004a.jpg,stimuli/scenes/004a.jpg,stimuli/scenes/011b.jpg,stimuli/scenes/011a.jpg,stimuli/scenes/004b.jpg,target,dist2,dist1,lure,0,0,0,0,0,37,37,53,,,,,,,,,,,197.80657112970948,198.83010747097433,198.83010747097433,198.83010747097433,198.83010747097433,None,,,,,,,,,,,,,,,,,,,,,,,,,,,,,,student1,2022-10-21_14h14.29.763,Hippopolis_Learning,2022.2.2,59.852424842396424,
Hippopolis,stimuli/subj_files/student1_cityA.csv,./stimuli/frankfurt.jpg,./stimuli/street_plate1.png,KECSKE UTCA,stimuli/scenes/085a.jpg,scene,2,stimuli/objects/022a.jpg,stimuli/objects/022b.jpg,stimuli/objects/022a.jpg,stimuli/scenes/053a.jpg,stimuli/scenes/053b.jpg,lure,target,dist1,dist2,0,0,0,0,0,38,38,6,,,,,,,,,,,201.8235999736935,202.85786696895957,202.85786696895957,202.85786696895957,202.85786696895957,None,,,,,,,,,,,,,,,,,,,,,,,,,,,,,,student1,2022-10-21_14h14.29.763,Hippopolis_Learning,2022.2.2,59.852424842396424,
Hippopolis,stimuli/subj_files/student1_cityA.csv,./stimuli/frankfurt.jpg,./stimuli/street_plate1.png,BONBON UTCA,stimuli/objects/095a.jpg,object,2,stimuli/scenes/007a.jpg,stimuli/objects/028b.jpg,stimuli/objects/028a.jpg,stimuli/scenes/007a.jpg,stimuli/scenes/007b.jpg,dist2,dist1,target,lure,0,0,0,0,0,39,39,72,,,,,,,,,,,205.83469450473785,206.8861187901348,206.8861187901348,206.8861187901348,206.8861187901348,None,,,,,,,,,,,,,,,,,,,,,,,,,,,,,,student1,2022-10-21_14h14.29.763,Hippopolis_Learning,2022.2.2,59.852424842396424,
Hippopolis,stimuli/subj_files/student1_cityA.csv,./stimuli/frankfurt.jpg,./stimuli/street_plate1.png,PAPUCS UTCA,stimuli/scenes/051a.jpg,scene,0,stimuli/scenes/051a.jpg,stimuli/scenes/051b.jpg,stimuli/scenes/051a.jpg,stimuli/scenes/090a.jpg,stimuli/scenes/090b.jpg,lure,target,dist1,dist2,0,0,0,0,0,40,40,68,,,,,,,,,,,209.83987244963646,210.86783005855978,210.86783005855978,210.86783005855978,210.86783005855978,None,,,,,,,,,,,,,,,,,,,,,,,,,,,,,,student1,2022-10-21_14h14.29.763,Hippopolis_Learning,2022.2.2,59.852424842396424,
Hippopolis,stimuli/subj_files/student1_cityA.csv,./stimuli/frankfurt.jpg,./stimuli/street_plate1.png,FOGAS UTCA,stimuli/scenes/025a.jpg,scene,1,stimuli/scenes/018a.jpg,stimuli/scenes/018b.jpg,stimuli/scenes/064a.jpg,stimuli/scenes/018a.jpg,stimuli/scenes/064b.jpg,lure,dist1,target,dist2,0,0,0,0,0,41,41,38,,,,,,,,,,,213.8473219871521,214.8820247016847,214.8820247016847,214.8820247016847,214.8820247016847,None,,,,,,,,,,,,,,,,,,,,,,,,,,,,,,student1,2022-10-21_14h14.29.763,Hippopolis_Learning,2022.2.2,59.852424842396424,
Hippopolis,stimuli/subj_files/student1_cityA.csv,./stimuli/frankfurt.jpg,./stimuli/street_plate1.png,NARANCS UTCA,stimuli/objects/017a.jpg,object,1,stimuli/objects/075a.jpg,stimuli/objects/075a.jpg,stimuli/scenes/041b.jpg,stimuli/scenes/041a.jpg,stimuli/objects/075b.jpg,target,dist2,dist1,lure,0,0,0,0,0,42,42,76,,,,,,,,,,,217.864939564839,218.90188183821738,218.90188183821738,218.90188183821738,218.90188183821738,None,,,,,,,,,,,,,,,,,,,,,,,,,,,,,,student1,2022-10-21_14h14.29.763,Hippopolis_Learning,2022.2.2,59.852424842396424,
Hippopolis,stimuli/subj_files/student1_cityA.csv,./stimuli/frankfurt.jpg,./stimuli/street_plate1.png,MOTOR UTCA,stimuli/objects/097a.jpg,object,1,stimuli/objects/071a.jpg,stimuli/objects/015b.jpg,stimuli/objects/071b.jpg,stimuli/objects/071a.jpg,stimuli/objects/015a.jpg,dist2,lure,target,dist1,0,0,0,0,0,43,43,36,,,,,,,,,,,221.87763982266188,222.91910630464554,222.91910630464554,222.91910630464554,222.91910630464554,None,,,,,,,,,,,,,,,,,,,,,,,,,,,,,,student1,2022-10-21_14h14.29.763,Hippopolis_Learning,2022.2.2,59.852424842396424,
Hippopolis,stimuli/subj_files/student1_cityA.csv,./stimuli/frankfurt.jpg,./stimuli/street_plate1.png,CUKOR UTCA,stimuli/objects/111a.jpg,object,0,stimuli/objects/111a.jpg,stimuli/objects/089b.jpg,stimuli/objects/111b.jpg,stimuli/objects/111a.jpg,stimuli/objects/089a.jpg,dist2,lure,target,dist1,0,0,0,0,0,44,44,30,,,,,,,,,,,225.88566503114998,226.93442057073116,226.93442057073116,226.93442057073116,226.93442057073116,space,,229.8995063714683,229.8995063714683,7.492622155696154,,,,,,,,,,,,,,,,,,,,,,,,,,student1,2022-10-21_14h14.29.763,Hippopolis_Learning,2022.2.2,59.852424842396424,
Hippopolis,stimuli/subj_files/student1_cityA.csv,./stimuli/frankfurt.jpg,./stimuli/street_plate1.png,ÜVEG UTCA,stimuli/scenes/061a.jpg,scene,2,stimuli/objects/085a.jpg,stimuli/objects/085b.jpg,stimuli/scenes/084a.jpg,stimuli/objects/085a.jpg,stimuli/scenes/084b.jpg,lure,dist1,target,dist2,0,0,0,0,0,45,45,19,,,,,,,,,,,237.41679646074772,238.45553977042437,238.45553977042437,238.45553977042437,238.45553977042437,None,,,,,,,,,,,,,,,,,,,,,,,,,,,,,,student1,2022-10-21_14h14.29.763,Hippopolis_Learning,2022.2.2,59.852424842396424,
Hippopolis,stimuli/subj_files/student1_cityA.csv,./stimuli/frankfurt.jpg,./stimuli/street_plate1.png,HARMONIKA UTCA,stimuli/scenes/024a.jpg,scene,0,stimuli/scenes/024a.jpg,stimuli/scenes/101b.jpg,stimuli/scenes/024b.jpg,stimuli/scenes/101a.jpg,stimuli/scenes/024a.jpg,dist2,lure,dist1,target,0,0,0,0,0,46,46,25,,,,,,,,,,,241.4338669795543,242.4544347655028,242.4544347655028,242.4544347655028,242.4544347655028,None,242.4544347655028,,,,,,,,,,,,,,,,,,,,,,,,,,,,,student1,2022-10-21_14h14.29.763,Hippopolis_Learning,2022.2.2,59.852424842396424,
Hippopolis,stimuli/subj_files/student1_cityA.csv,./stimuli/frankfurt.jpg,./stimuli/street_plate1.png,FIÓK UTCA,stimuli/scenes/002a.jpg,scene,1,stimuli/scenes/014a.jpg,stimuli/scenes/014a.jpg,stimuli/objects/004a.jpg,stimuli/objects/004b.jpg,stimuli/scenes/014b.jpg,target,dist1,dist2,lure,0,0,0,0,0,47,47,73,,,,,,,,,,,245.44404746219516,246.4765535388142,246.4765535388142,246.4765535388142,246.4765535388142,None,,,,,,,,,,,,,,,,,,,,,,,,,,,,,,student1,2022-10-21_14h14.29.763,Hippopolis_Learning,2022.2.2,59.852424842396424,
Hippopolis,stimuli/subj_files/student1_cityA.csv,./stimuli/frankfurt.jpg,./stimuli/street_plate1.png,LAKAT UTCA,stimuli/objects/066a.jpg,object,2,stimuli/scenes/084a.jpg,stimuli/scenes/084b.jpg,stimuli/scenes/034a.jpg,stimuli/scenes/084a.jpg,stimuli/scenes/034b.jpg,lure,dist1,target,dist2,0,0,0,0,0,48,48,58,,,,,,,,,,,249.44927858933806,250.48791242577136,250.48791242577136,250.48791242577136,250.48791242577136,None,,,,,,,,,,,,,,,,,,,,,,,,,,,,,,student1,2022-10-21_14h14.29.763,Hippopolis_Learning,2022.2.2,59.852424842396424,
Hippopolis,stimuli/subj_files/student1_cityA.csv,./stimuli/frankfurt.jpg,./stimuli/street_plate1.png,TOJÁS UTCA,stimuli/objects/021a.jpg,object,2,stimuli/scenes/034a.jpg,stimuli/scenes/034a.jpg,stimuli/objects/059a.jpg,stimuli/objects/059b.jpg,stimuli/scenes/034b.jpg,target,dist1,dist2,lure,0,0,0,0,0,49,49,37,,,,,,,,,,,253.45910701341927,254.5013040509075,254.5013040509075,254.5013040509075,254.5013040509075,None,,,,,,,,,,,,,,,,,,,,,,,,,,,,,,student1,2022-10-21_14h14.29.763,Hippopolis_Learning,2022.2.2,59.852424842396424,
Hippopolis,stimuli/subj_files/student1_cityA.csv,./stimuli/frankfurt.jpg,./stimuli/street_plate1.png,HAJÓ UTCA,stimuli/objects/086a.jpg,object,1,stimuli/objects/041a.jpg,stimuli/scenes/014a.jpg,stimuli/scenes/014b.jpg,stimuli/objects/041a.jpg,stimuli/objects/041b.jpg,dist1,dist2,target,lure,0,0,0,0,0,50,50,71,,,,,,,,,,,257.46213466115296,258.50550481304526,258.50550481304526,258.50550481304526,258.50550481304526,None,,,,,,,,,,,,,,,,,,,,,,,,,,,,,,student1,2022-10-21_14h14.29.763,Hippopolis_Learning,2022.2.2,59.852424842396424,
Hippopolis,stimuli/subj_files/student1_cityA.csv,./stimuli/frankfurt.jpg,./stimuli/street_plate1.png,KORONA UTCA,stimuli/scenes/108a.jpg,scene,1,stimuli/scenes/011a.jpg,stimuli/objects/076a.jpg,stimuli/scenes/011b.jpg,stimuli/objects/076b.jpg,stimuli/scenes/011a.jpg,dist1,lure,dist2,target,0,0,0,0,0,51,51,9,,,,,,,,,,,261.4715911205858,262.49146100878716,262.49146100878716,262.49146100878716,262.49146100878716,None,,,,,,,,,,,,,,,,,,,,,,,,,,,,,,student1,2022-10-21_14h14.29.763,Hippopolis_Learning,2022.2.2,59.852424842396424,
Hippopolis,stimuli/subj_files/student1_cityA.csv,./stimuli/frankfurt.jpg,./stimuli/street_plate1.png,HÁRFA UTCA,stimuli/objects/083a.jpg,object,2,stimuli/scenes/028a.jpg,stimuli/scenes/028b.jpg,stimuli/objects/012b.jpg,stimuli/objects/012a.jpg,stimuli/scenes/028a.jpg,lure,dist2,dist1,target,0,0,0,0,0,52,52,16,,,,,,,,,,,265.47241031192243,266.50138055719435,266.50138055719435,266.50138055719435,266.50138055719435,None,,,,,,,,,,,,,,,,,,,,,,,,,,,,,,student1,2022-10-21_14h14.29.763,Hippopolis_Learning,2022.2.2,59.852424842396424,
Hippopolis,stimuli/subj_files/student1_cityA.csv,./stimuli/frankfurt.jpg,./stimuli/street_plate1.png,HORDÓ UTCA,stimuli/scenes/095a.jpg,scene,0,stimuli/scenes/095a.jpg,stimuli/scenes/095a.jpg,stimuli/scenes/046a.jpg,stimuli/scenes/095b.jpg,stimuli/scenes/046b.jpg,target,dist1,lure,dist2,0,0,0,0,0,53,53,27,,,,,,,,,,,269.4810214564204,270.51633592136204,270.51633592136204,270.51633592136204,270.51633592136204,None,,,,,,,,,,,,,,,,,,,,,,,,,,,,,,student1,2022-10-21_14h14.29.763,Hippopolis_Learning,2022.2.2,59.852424842396424,
Hippopolis,stimuli/subj_files/student1_cityA.csv,./stimuli/frankfurt.jpg,./stimuli/street_plate1.png,KÖTÉNY UTCA,stimuli/scenes/031a.jpg,scene,1,stimuli/scenes/064a.jpg,stimuli/objects/103a.jpg,stimuli/objects/103b.jpg,stimuli/scenes/064b.jpg,stimuli/scenes/064a.jpg,dist1,dist2,lure,target,0,0,0,0,0,54,54,22,,,,,,,,,,,273.49588600732386,274.52364021912217,274.52364021912217,274.52364021912217,274.52364021912217,None,,,,,,,,,,,,,,,,,,,,,,,,,,,,,,student1,2022-10-21_14h14.29.763,Hippopolis_Learning,2022.2.2,59.852424842396424,
Hippopolis,stimuli/subj_files/student1_cityA.csv,./stimuli/frankfurt.jpg,./stimuli/street_plate1.png,POGÁCSA UTCA,stimuli/scenes/046a.jpg,scene,0,stimuli/scenes/046a.jpg,stimuli/scenes/042a.jpg,stimuli/scenes/046a.jpg,stimuli/scenes/046b.jpg,stimuli/scenes/042b.jpg,dist1,target,lure,dist2,0,0,0,0,0,55,55,49,,,,,,,,,,,277.50788929872215,278.5555354785174,278.5555354785174,278.5555354785174,278.5555354785174,None,,,,,,,,,,,,,,,,,,,,,,,,,,,,,,student1,2022-10-21_14h14.29.763,Hippopolis_Learning,2022.2.2,59.852424842396424,
Hippopolis,stimuli/subj_files/student1_cityA.csv,./stimuli/frankfurt.jpg,./stimuli/street_plate1.png,RÁDIÓ UTCA,stimuli/scenes/068a.jpg,scene,1,stimuli/scenes/067a.jpg,stimuli/scenes/018b.jpg,stimuli/scenes/067a.jpg,stimuli/scenes/067b.jpg,stimuli/scenes/018a.jpg,dist2,target,lure,dist1,0,0,0,0,0,56,56,44,,,,,,,,,,,281.51074216142297,282.54214167781174,282.54214167781174,282.54214167781174,282.54214167781174,None,,,,,,,,,,,,,,,,,,,,,,,,,,,,,,student1,2022-10-21_14h14.29.763,Hippopolis_Learning,2022.2.2,59.852424842396424,
Hippopolis,stimuli/subj_files/student1_cityA.csv,./stimuli/frankfurt.jpg,./stimuli/street_plate1.png,RÓZSA UTCA,stimuli/objects/091a.jpg,object,0,stimuli/objects/091a.jpg,stimuli/objects/091b.jpg,stimuli/objects/078b.jpg,stimuli/objects/078a.jpg,stimuli/objects/091a.jpg,lure,dist2,dist1,target,0,0,0,0,0,57,57,45,,,,,,,,,,,285.5143498349935,286.5525121856481,286.5525121856481,286.5525121856481,286.5525121856481,None,,,,,,,,,,,,,,,,,,,,,,,,,,,,,,student1,2022-10-21_14h14.29.763,Hippopolis_Learning,2022.2.2,59.852424842396424,
Hippopolis,stimuli/subj_files/student1_cityA.csv,./stimuli/frankfurt.jpg,./stimuli/street_plate1.png,TOLLTARTÓ UTCA,stimuli/objects/032a.jpg,object,2,stimuli/scenes/119a.jpg,stimuli/scenes/119a.jpg,stimuli/scenes/104b.jpg,stimuli/scenes/104a.jpg,stimuli/scenes/119b.jpg,target,dist2,dist1,lure,0,0,0,0,0,58,58,67,,,,,,,,,,,289.5248304400593,290.55135026574135,290.55135026574135,290.55135026574135,290.55135026574135,None,,,,,,,,,,,,,,,,,,,,,,,,,,,,,,student1,2022-10-21_14h14.29.763,Hippopolis_Learning,2022.2.2,59.852424842396424,
Hippopolis,stimuli/subj_files/student1_cityA.csv,./stimuli/frankfurt.jpg,./stimuli/street_plate1.png,KOKTÉL UTCA,stimuli/scenes/008a.jpg,scene,2,stimuli/objects/012a.jpg,stimuli/objects/036b.jpg,stimuli/objects/012b.jpg,stimuli/objects/036a.jpg,stimuli/objects/012a.jpg,dist2,lure,dist1,target,0,0,0,0,0,59,59,46,,,,,,,,,,,293.5325331352651,294.5567113943398,294.5567113943398,294.5567113943398,294.5567113943398,None,,,,,,,,,,,,,,,,,,,,,,,,,,,,,,student1,2022-10-21_14h14.29.763,Hippopolis_Learning,2022.2.2,59.852424842396424,
Hippopolis,stimuli/subj_files/student1_cityA.csv,./stimuli/frankfurt.jpg,./stimuli/street_plate1.png,BÖGRE UTCA,stimuli/objects/050a.jpg,object,1,stimuli/objects/076a.jpg,stimuli/scenes/037a.jpg,stimuli/objects/076a.jpg,stimuli/objects/076b.jpg,stimuli/scenes/037b.jpg,dist1,target,lure,dist2,0,0,0,0,0,60,60,41,,,,,,,,,,,297.54858230799437,298.59585776925087,298.59585776925087,298.59585776925087,298.59585776925087,None,,,,,,,,,,,,,,,,,,,,,,,,,,,,,,student1,2022-10-21_14h14.29.763,Hippopolis_Learning,2022.2.2,59.852424842396424,
Hippopolis,stimuli/subj_files/student1_cityA.csv,./stimuli/frankfurt.jpg,./stimuli/street_plate1.png,MOCSÁR UTCA,stimuli/objects/080a.jpg,object,0,stimuli/objects/080a.jpg,stimuli/objects/080b.jpg,stimuli/objects/080a.jpg,stimuli/scenes/043b.jpg,stimuli/scenes/043a.jpg,lure,target,dist2,dist1,0,0,0,0,0,61,61,17,,,,,,,,,,,301.5552017688751,302.5952973347157,302.5952973347157,302.5952973347157,302.5952973347157,None,,,,,,,,,,,,,,,,,,,,,,,,,,,,,,student1,2022-10-21_14h14.29.763,Hippopolis_Learning,2022.2.2,59.852424842396424,
Hippopolis,stimuli/subj_files/student1_cityA.csv,./stimuli/frankfurt.jpg,./stimuli/street_plate1.png,KIRAKÓ UTCA,stimuli/objects/079a.jpg,object,2,stimuli/scenes/070a.jpg,stimuli/scenes/070a.jpg,stimuli/scenes/070b.jpg,stimuli/objects/043b.jpg,stimuli/objects/043a.jpg,target,lure,dist2,dist1,0,0,0,0,0,62,62,57,,,,,,,,,,,305.5576201546937,306.58457352407277,306.58457352407277,306.58457352407277,306.58457352407277,None,,,,,,,,,,,,,,,,,,,,,,,,,,,,,,student1,2022-10-21_14h14.29.763,Hippopolis_Learning,2022.2.2,59.852424842396424,
Hippopolis,stimuli/subj_files/student1_cityA.csv,./stimuli/frankfurt.jpg,./stimuli/street_plate1.png,LIGET UTCA,stimuli/objects/038a.jpg,object,2,stimuli/scenes/109a.jpg,stimuli/scenes/109a.jpg,stimuli/objects/055a.jpg,stimuli/scenes/109b.jpg,stimuli/objects/055b.jpg,target,dist1,lure,dist2,0,0,0,0,0,63,63,62,,,,,,,,,,,309.5639391820878,310.60068427585065,310.60068427585065,310.60068427585065,310.60068427585065,None,,,,,,,,,,,,,,,,,,,,,,,,,,,,,,student1,2022-10-21_14h14.29.763,Hippopolis_Learning,2022.2.2,59.852424842396424,
Hippopolis,stimuli/subj_files/student1_cityA.csv,./stimuli/frankfurt.jpg,./stimuli/street_plate1.png,MUNKA UTCA,stimuli/scenes/039a.jpg,scene,2,stimuli/objects/067a.jpg,stimuli/scenes/097a.jpg,stimuli/objects/067b.jpg,stimuli/objects/067a.jpg,stimuli/scenes/097b.jpg,dist1,lure,target,dist2,0,0,0,0,0,64,64,4,,,,,,,,,,,313.56675783358514,314.6041538640857,314.6041538640857,314.6041538640857,314.6041538640857,None,,,,,,,,,,,,,,,,,,,,,,,,,,,,,,student1,2022-10-21_14h14.29.763,Hippopolis_Learning,2022.2.2,59.852424842396424,
Hippopolis,stimuli/subj_files/student1_cityA.csv,./stimuli/frankfurt.jpg,./stimuli/street_plate1.png,KÖMÉNYMAG UTCA,stimuli/objects/068a.jpg,object,1,stimuli/objects/045a.jpg,stimuli/objects/045a.jpg,stimuli/objects/045b.jpg,stimuli/objects/071a.jpg,stimuli/objects/071b.jpg,target,lure,dist1,dist2,0,0,0,0,0,65,65,18,,,,,,,,,,,317.5838184002787,318.6210175640881,318.6210175640881,318.6210175640881,318.6210175640881,None,,,,,,,,,,,,,,,,,,,,,,,,,,,,,,student1,2022-10-21_14h14.29.763,Hippopolis_Learning,2022.2.2,59.852424842396424,
Hippopolis,stimuli/subj_files/student1_cityA.csv,./stimuli/frankfurt.jpg,./stimuli/street_plate1.png,VASALÓ UTCA,stimuli/objects/025a.jpg,object,2,stimuli/scenes/056a.jpg,stimuli/scenes/044a.jpg,stimuli/scenes/056b.jpg,stimuli/scenes/056a.jpg,stimuli/scenes/044b.jpg,dist1,lure,target,dist2,0,0,0,0,0,66,66,70,,,,,,,,,,,321.58826703578234,322.6063218899071,322.6063218899071,322.6063218899071,322.6063218899071,None,,,,,,,,,,,,,,,,,,,,,,,,,,,,,,student1,2022-10-21_14h14.29.763,Hippopolis_Learning,2022.2.2,59.852424842396424,
Hippopolis,stimuli/subj_files/student1_cityA.csv,./stimuli/frankfurt.jpg,./stimuli/street_plate1.png,PETÁRDA UTCA,stimuli/objects/009a.jpg,object,0,stimuli/objects/009a.jpg,stimuli/objects/009a.jpg,stimuli/scenes/051a.jpg,stimuli/objects/009b.jpg,stimuli/scenes/051b.jpg,target,dist1,lure,dist2,0,0,0,0,0,67,67,64,,,,,,,,,,,325.59702497534454,326.63443779945374,326.63443779945374,326.63443779945374,326.63443779945374,None,,,,,,,,,,,,,,,,,,,,,,,,,,,,,,student1,2022-10-21_14h14.29.763,Hippopolis_Learning,2022.2.2,59.852424842396424,
Hippopolis,stimuli/subj_files/student1_cityA.csv,./stimuli/frankfurt.jpg,./stimuli/street_plate1.png,SZOMSZÉD UTCA,stimuli/objects/026a.jpg,object,1,stimuli/objects/004a.jpg,stimuli/objects/027b.jpg,stimuli/objects/004b.jpg,stimuli/objects/004a.jpg,stimuli/objects/027a.jpg,dist2,lure,target,dist1,0,0,0,0,0,68,68,65,,,,,,,,,,,329.59838967211545,330.6390469148755,330.6390469148755,330.6390469148755,330.6390469148755,None,,,,,,,,,,,,,,,,,,,,,,,,,,,,,,student1,2022-10-21_14h14.29.763,Hippopolis_Learning,2022.2.2,59.852424842396424,
Hippopolis,stimuli/subj_files/student1_cityA.csv,./stimuli/frankfurt.jpg,./stimuli/street_plate1.png,PIZSAMA UTCA,stimuli/scenes/060a.jpg,scene,2,stimuli/objects/006a.jpg,stimuli/scenes/007b.jpg,stimuli/scenes/007a.jpg,stimuli/objects/006b.jpg,stimuli/objects/006a.jpg,dist2,dist1,lure,target,0,0,0,0,0,69,69,79,,,,,,,,,,,333.60505920276046,334.63699489459395,334.63699489459395,334.63699489459395,334.63699489459395,None,,,,,,,,,,,,,,,,,,,,,,,,,,,,,,student1,2022-10-21_14h14.29.763,Hippopolis_Learning,2022.2.2,59.852424842396424,
Hippopolis,stimuli/subj_files/student1_cityA.csv,./stimuli/frankfurt.jpg,./stimuli/street_plate1.png,AKÁC UTCA,stimuli/scenes/081a.jpg,scene,2,stimuli/objects/055a.jpg,stimuli/objects/055b.jpg,stimuli/objects/107b.jpg,stimuli/objects/107a.jpg,stimuli/objects/055a.jpg,lure,dist2,dist1,target,0,0,0,0,0,70,70,74,,,,,,,,,,,337.62069971486926,338.642975859344,338.642975859344,338.642975859344,338.642975859344,None,,,,,,,,,,,,,,,,,,,,,,,,,,,,,,student1,2022-10-21_14h14.29.763,Hippopolis_Learning,2022.2.2,59.852424842396424,
Hippopolis,stimuli/subj_files/student1_cityA.csv,./stimuli/frankfurt.jpg,./stimuli/street_plate1.png,TELEP UTCA,stimuli/scenes/048a.jpg,scene,2,stimuli/objects/120a.jpg,stimuli/objects/120a.jpg,stimuli/objects/120b.jpg,stimuli/scenes/119b.jpg,stimuli/scenes/119a.jpg,target,lure,dist2,dist1,0,0,0,0,0,71,71,75,,,,,,,,,,,341.62850037775934,342.6576093323529,342.6576093323529,342.6576093323529,342.6576093323529,None,,,,,,,,,,,,,,,,,,,,,,,,,,,,,,student1,2022-10-21_14h14.29.763,Hippopolis_Learning,2022.2.2,59.852424842396424,
Hippopolis,stimuli/subj_files/student1_cityA.csv,./stimuli/frankfurt.jpg,./stimuli/street_plate1.png,KARTON UTCA,stimuli/objects/101a.jpg,object,2,stimuli/scenes/044a.jpg,stimuli/scenes/074a.jpg,stimuli/scenes/044b.jpg,stimuli/scenes/044a.jpg,stimuli/scenes/074b.jpg,dist1,lure,target,dist2,0,0,0,0,0,72,72,8,,,,,,,,,,,345.63064414449036,346.67019233852625,346.67019233852625,346.67019233852625,346.67019233852625,None,,,,,,,,,,,,,,,,,,,,,,,,,,,,,,student1,2022-10-21_14h14.29.763,Hippopolis_Learning,2022.2.2,59.852424842396424,
Hippopolis,stimuli/subj_files/student1_cityA.csv,./stimuli/frankfurt.jpg,./stimuli/street_plate1.png,CITROM UTCA,stimuli/scenes/036a.jpg,scene,2,stimuli/objects/043a.jpg,stimuli/objects/043b.jpg,stimuli/objects/067a.jpg,stimuli/objects/043a.jpg,stimuli/objects/067b.jpg,lure,dist1,target,dist2,0,0,0,0,0,73,73,26,,,,,,,,,,,349.6330572422594,350.6752766724676,350.6752766724676,350.6752766724676,350.6752766724676,None,,,,,,,,,,,,,,,,,,,,,,,,,,,,,,student1,2022-10-21_14h14.29.763,Hippopolis_Learning,2022.2.2,59.852424842396424,
Hippopolis,stimuli/subj_files/student1_cityA.csv,./stimuli/frankfurt.jpg,./stimuli/street_plate1.png,DOMINÓ UTCA,stimuli/scenes/042a.jpg,scene,0,stimuli/scenes/042a.jpg,stimuli/scenes/042a.jpg,stimuli/scenes/042b.jpg,stimuli/objects/070a.jpg,stimuli/objects/070b.jpg,target,lure,dist1,dist2,0,0,0,0,0,74,74,63,,,,,,,,,,,353.63339219614863,354.66073930077255,354.66073930077255,354.66073930077255,354.66073930077255,None,,,,,,,,,,,,,,,,,,,,,,,,,,,,,,student1,2022-10-21_14h14.29.763,Hippopolis_Learning,2022.2.2,59.852424842396424,
Hippopolis,stimuli/subj_files/student1_cityA.csv,./stimuli/frankfurt.jpg,./stimuli/street_plate1.png,KÖTÉL UTCA,stimuli/objects/051a.jpg,object,0,stimuli/objects/051a.jpg,stimuli/scenes/024b.jpg,stimuli/objects/051b.jpg,stimuli/scenes/024a.jpg,stimuli/objects/051a.jpg,dist2,lure,dist1,target,0,0,0,0,0,75,75,7,,,,,,,,,,,357.64491591602564,358.6884341072291,358.6884341072291,358.6884341072291,358.6884341072291,None,,,,,,,,,,,,,,,,,,,,,,,,,,,,,,student1,2022-10-21_14h14.29.763,Hippopolis_Learning,2022.2.2,59.852424842396424,
Hippopolis,stimuli/subj_files/student1_cityA.csv,./stimuli/frankfurt.jpg,./stimuli/street_plate1.png,ÁLOM UTCA,stimuli/objects/070a.jpg,object,0,stimuli/objects/070a.jpg,stimuli/objects/070b.jpg,stimuli/objects/114b.jpg,stimuli/objects/114a.jpg,stimuli/objects/070a.jpg,lure,dist2,dist1,target,0,0,0,0,0,76,76,50,,,,,,,,,,,361.65583815053105,362.6906917039305,362.6906917039305,362.6906917039305,362.6906917039305,None,,,,,,,,,,,,,,,,,,,,,,,,,,,,,,student1,2022-10-21_14h14.29.763,Hippopolis_Learning,2022.2.2,59.852424842396424,
Hippopolis,stimuli/subj_files/student1_cityA.csv,./stimuli/frankfurt.jpg,./stimuli/street_plate1.png,PÁLMAFA UTCA,stimuli/objects/090a.jpg,object,1,stimuli/objects/007a.jpg,stimuli/objects/053a.jpg,stimuli/objects/007a.jpg,stimuli/objects/053b.jpg,stimuli/objects/007b.jpg,dist1,target,dist2,lure,0,0,0,0,0,77,77,12,,,,,,,,,,,365.66574214957654,366.7073177937418,366.7073177937418,366.7073177937418,366.7073177937418,None,,,,,,,,,,,,,,,,,,,,,,,,,,,,,,student1,2022-10-21_14h14.29.763,Hippopolis_Learning,2022.2.2,59.852424842396424,
Hippopolis,stimuli/subj_files/student1_cityA.csv,./stimuli/frankfurt.jpg,./stimuli/street_plate1.png,MÁLNA UTCA,stimuli/objects/069a.jpg,object,2,stimuli/scenes/053a.jpg,stimuli/objects/073a.jpg,stimuli/objects/073b.jpg,stimuli/scenes/053b.jpg,stimuli/scenes/053a.jpg,dist1,dist2,lure,target,0,0,0,0,0,78,78,14,,,,,,,,,,,369.67109270207584,370.6891690157354,370.6891690157354,370.6891690157354,370.6891690157354,None,,,,,,,,,,,,,,,,,,,,,,,,,,,,,,student1,2022-10-21_14h14.29.763,Hippopolis_Learning,2022.2.2,59.852424842396424,
Hippopolis,stimuli/subj_files/student1_cityA.csv,./stimuli/frankfurt.jpg,./stimuli/street_plate1.png,TOBOZ UTCA,stimuli/objects/001a.jpg,object,2,stimuli/scenes/059a.jpg,stimuli/scenes/059a.jpg,stimuli/objects/085a.jpg,stimuli/objects/085b.jpg,stimuli/scenes/059b.jpg,target,dist1,dist2,lure,0,0,0,0,0,79,79,40,,,,,,,,,,,373.67835998907685,374.70745339244604,374.70745339244604,374.70745339244604,374.70745339244604,None,,,,,,,,,,,,,,,,,,,,,,,,,,,,,,student1,2022-10-21_14h14.29.763,Hippopolis_Learning,2022.2.2,59.852424842396424,
Hippopolis,stimuli/subj_files/student1_cityA.csv,./stimuli/frankfurt.jpg,./stimuli/street_plate1.png,NARANCS UTCA,stimuli/objects/017a.jpg,object,1,stimuli/objects/075a.jpg,stimuli/objects/075a.jpg,stimuli/scenes/041b.jpg,stimuli/scenes/041a.jpg,stimuli/objects/075b.jpg,target,dist2,dist1,lure,0,0,0,0,,,,,0,0,0,76,,,,,,,404.65321916528046,,,,,,,,,,377.6833656374365,377.6833656374365,space,22.907180923968554,400.67517901584506,400.67517901584506,400.67517901584506,400.67517901584506,400.67517901584506,400.67517901584506,None,None,,,,,,,,,,,,,,student1,2022-10-21_14h14.29.763,Hippopolis_Learning,2022.2.2,59.852424842396424,
Hippopolis,stimuli/subj_files/student1_cityA.csv,./stimuli/frankfurt.jpg,./stimuli/street_plate1.png,HAJÓ UTCA,stimuli/objects/086a.jpg,object,1,stimuli/objects/041a.jpg,stimuli/scenes/014a.jpg,stimuli/scenes/014b.jpg,stimuli/objects/041a.jpg,stimuli/objects/041b.jpg,dist1,dist2,target,lure,0,0,0,0,,,,,0,1,1,71,,,,,,,407.88939057663083,,,,,,,,,,,,,,405.676757061854,405.676757061854,405.676757061854,405.676757061854,405.676757061854,405.676757061854,left,None,2.161322597414255,,,,,,,,,,,,,student1,2022-10-21_14h14.29.763,Hippopolis_Learning,2022.2.2,59.852424842396424,
Hippopolis,stimuli/subj_files/student1_cityA.csv,./stimuli/frankfurt.jpg,./stimuli/street_plate1.png,LIGET UTCA,stimuli/objects/038a.jpg,object,2,stimuli/scenes/109a.jpg,stimuli/scenes/109a.jpg,stimuli/objects/055a.jpg,stimuli/scenes/109b.jpg,stimuli/objects/055b.jpg,target,dist1,lure,dist2,0,0,0,0,,,,,0,2,2,62,,,,,,,411.0923402868211,,,,,,,,,,,,,,408.9055451825261,408.9055451825261,408.9055451825261,408.9055451825261,408.9055451825261,408.9055451825261,left,None,2.148546453565359,,,,,,,,,,,,,student1,2022-10-21_14h14.29.763,Hippopolis_Learning,2022.2.2,59.852424842396424,
Hippopolis,stimuli/subj_files/student1_cityA.csv,./stimuli/frankfurt.jpg,./stimuli/street_plate1.png,HEGESZTŐ UTCA,stimuli/scenes/043a.jpg,scene,0,stimuli/scenes/043a.jpg,stimuli/scenes/043b.jpg,stimuli/scenes/043a.jpg,stimuli/objects/062a.jpg,stimuli/objects/062b.jpg,lure,target,dist1,dist2,0,0,0,0,,,,,0,3,3,77,,,,,,,414.1283262129873,,,,,,,,,,,,,,412.1199806686491,412.1199806686491,412.1199806686491,412.1199806686491,412.1199806686491,412.1199806686491,left,None,1.9577449653297663,,,,,,,,,,,,,student1,2022-10-21_14h14.29.763,Hippopolis_Learning,2022.2.2,59.852424842396424,
Hippopolis,stimuli/subj_files/student1_cityA.csv,./stimuli/frankfurt.jpg,./stimuli/street_plate1.png,KÖNYVTÁR UTCA,stimuli/objects/113a.jpg,object,1,stimuli/objects/109a.jpg,stimuli/objects/109a.jpg,stimuli/objects/109b.jpg,stimuli/scenes/067a.jpg,stimuli/scenes/067b.jpg,target,lure,dist1,dist2,0,0,0,0,,,,,0,4,4,42,,,,,,,417.27521546557546,,,,,,,,,,,,,,415.1499657277018,415.1499657277018,415.1499657277018,415.1499657277018,415.1499657277018,415.1499657277018,left,None,2.096242643892765,,,,,,,,,,,,,student1,2022-10-21_14h14.29.763,Hippopolis_Learning,2022.2.2,59.852424842396424,
Hippopolis,stimuli/subj_files/student1_cityA.csv,./stimuli/frankfurt.jpg,./stimuli/street_plate1.png,OLDAL UTCA,stimuli/scenes/093a.jpg,scene,2,stimuli/objects/107a.jpg,stimuli/objects/107b.jpg,stimuli/objects/022a.jpg,stimuli/objects/107a.jpg,stimuli/objects/022b.jpg,lure,dist1,target,dist2,0,0,0,0,,,,,0,5,5,11,,,,,,,419.9073266275227,,,,,,420.91686021722853,,,,,,,,418.2929782848805,418.2929782848805,418.2929782848805,418.2929782848805,418.2929782848805,418.2929782848805,left,None,1.5774192921817303,,,,,,,,,,,,,student1,2022-10-21_14h14.29.763,Hippopolis_Learning,2022.2.2,59.852424842396424,
Hippopolis,stimuli/subj_files/student1_cityA.csv,./stimuli/frankfurt.jpg,./stimuli/street_plate1.png,FÉNYKÉP UTCA,stimuli/scenes/010a.jpg,scene,1,stimuli/scenes/078a.jpg,stimuli/scenes/088a.jpg,stimuli/scenes/078a.jpg,stimuli/scenes/088b.jpg,stimuli/scenes/078b.jpg,dist1,target,dist2,lure,0,0,0,0,,,,,0,6,6,32,,,,,,,423.9794779326767,,,,,,,,,,,,,,420.91686021722853,420.91686021722853,420.91686021722853,420.91686021722853,420.91686021722853,420.91686021722853,left,None,3.0169649366289377,,,,,,,,,,,,,student1,2022-10-21_14h14.29.763,Hippopolis_Learning,2022.2.2,59.852424842396424,
Hippopolis,stimuli/subj_files/student1_cityA.csv,./stimuli/frankfurt.jpg,./stimuli/street_plate1.png,PETÁRDA UTCA,stimuli/objects/009a.jpg,object,0,stimuli/objects/009a.jpg,stimuli/objects/009a.jpg,stimuli/scenes/051a.jpg,stimuli/objects/009b.jpg,stimuli/scenes/051b.jpg,target,dist1,lure,dist2,0,0,0,0,,,,,0,7,7,64,,,,,,,428.5081154014915,,,,,,,,,,,,,,424.99717948399484,424.99717948399484,424.99717948399484,424.99717948399484,424.99717948399484,424.99717948399484,left,None,3.4645074885338545,,,,,,,,,,,,,student1,2022-10-21_14h14.29.763,Hippopolis_Learning,2022.2.2,59.852424842396424,
Hippopolis,stimuli/subj_files/student1_cityA.csv,./stimuli/frankfurt.jpg,./stimuli/street_plate1.png,MUNKA UTCA,stimuli/scenes/039a.jpg,scene,2,stimuli/objects/067a.jpg,stimuli/scenes/097a.jpg,stimuli/objects/067b.jpg,stimuli/objects/067a.jpg,stimuli/scenes/097b.jpg,dist1,lure,target,dist2,0,0,0,0,,,,,0,8,8,4,,,,,,,431.9277361109853,,,,,,,,,,,,,,429.51377260684967,429.51377260684967,429.51377260684967,429.51377260684967,429.51377260684967,429.51377260684967,right,None,2.3717737793922424,,,,,,,,,,,,,student1,2022-10-21_14h14.29.763,Hippopolis_Learning,2022.2.2,59.852424842396424,
Hippopolis,stimuli/subj_files/student1_cityA.csv,./stimuli/frankfurt.jpg,./stimuli/street_plate1.png,PÁFRÁNY UTCA,stimuli/scenes/101a.jpg,scene,0,stimuli/scenes/101a.jpg,stimuli/scenes/101a.jpg,stimuli/scenes/101b.jpg,stimuli/objects/051a.jpg,stimuli/objects/051b.jpg,target,lure,dist1,dist2,0,0,0,0,,,,,0,9,9,0,,,,,,,436.20302994921803,,,,,,,,,,,,,,432.9536920823157,432.9536920823157,432.9536920823157,432.9536920823157,432.9536920823157,432.9536920823157,left,None,3.2200738806277514,,,,,,,,,,,,,student1,2022-10-21_14h14.29.763,Hippopolis_Learning,2022.2.2,59.852424842396424,
Hippopolis,stimuli/subj_files/student1_cityA.csv,./stimuli/frankfurt.jpg,./stimuli/street_plate1.png,BAGOLY UTCA,stimuli/scenes/029a.jpg,scene,2,stimuli/objects/028a.jpg,stimuli/objects/028b.jpg,stimuli/objects/028a.jpg,stimuli/scenes/028a.jpg,stimuli/scenes/028b.jpg,lure,target,dist1,dist2,0,0,0,0,,,,,0,10,10,21,,,,,,,439.7526345346123,,,,,,,,,,,,,,437.21683116815984,437.21683116815984,437.21683116815984,437.21683116815984,437.21683116815984,437.21683116815984,left,None,2.508917957544327,,,,,,,,,,,,,student1,2022-10-21_14h14.29.763,Hippopolis_Learning,2022.2.2,59.852424842396424,
Hippopolis,stimuli/subj_files/student1_cityA.csv,./stimuli/frankfurt.jpg,./stimuli/street_plate1.png,ÁRNYÉK UTCA,stimuli/objects/020a.jpg,object,1,stimuli/objects/027a.jpg,stimuli/scenes/004a.jpg,stimuli/objects/027b.jpg,stimuli/objects/027a.jpg,stimuli/scenes/004b.jpg,dist1,lure,target,dist2,0,0,0,0,,,,,0,11,11,52,,,,,,,443.30757599137723,,,,,,,,,,,,,,440.78259471431375,440.78259471431375,440.78259471431375,440.78259471431375,440.78259471431375,440.78259471431375,right,None,2.4951301105320454,,,,,,,,,,,,,student1,2022-10-21_14h14.29.763,Hippopolis_Learning,2022.2.2,59.852424842396424,
Hippopolis,stimuli/subj_files/student1_cityA.csv,./stimuli/frankfurt.jpg,./stimuli/street_plate1.png,TRIATLON UTCA,stimuli/objects/024a.jpg,object,0,stimuli/objects/024a.jpg,stimuli/objects/024b.jpg,stimuli/objects/080a.jpg,stimuli/objects/024a.jpg,stimuli/objects/080b.jpg,lure,dist1,target,dist2,0,0,0,0,,,,,0,12,12,2,,,,,,,446.5397416409105,,,,,,,,,,,,,,444.33870586566627,444.33870586566627,444.33870586566627,444.33870586566627,444.33870586566627,444.33870586566627,left,None,2.1707221437245607,,,,,,,,,,,,,student1,2022-10-21_14h14.29.763,Hippopolis_Learning,2022.2.2,59.852424842396424,
Hippopolis,stimuli/subj_files/student1_cityA.csv,./stimuli/frankfurt.jpg,./stimuli/street_plate1.png,HEGEDŰ UTCA,stimuli/scenes/113a.jpg,scene,2,stimuli/objects/036a.jpg,stimuli/objects/036b.jpg,stimuli/scenes/059b.jpg,stimuli/scenes/059a.jpg,stimuli/objects/036a.jpg,lure,dist2,dist1,target,0,0,0,0,,,,,0,13,13,69,,,,,,,450.9225970413536,,,,,,,,,,,,,,447.56974784843624,447.56974784843624,447.56974784843624,447.56974784843624,447.56974784843624,447.56974784843624,left,None,3.323326136916876,,,,,,,,,,,,,student1,2022-10-21_14h14.29.763,Hippopolis_Learning,2022.2.2,59.852424842396424,
Hippopolis,stimuli/subj_files/student1_cityA.csv,./stimuli/frankfurt.jpg,./stimuli/street_plate1.png,MÁLNA UTCA,stimuli/objects/069a.jpg,object,2,stimuli/scenes/053a.jpg,stimuli/objects/073a.jpg,stimuli/objects/073b.jpg,stimuli/scenes/053b.jpg,stimuli/scenes/053a.jpg,dist1,dist2,lure,target,0,0,0,0,,,,,0,14,14,14,,,,,,,453.0757459178567,,,,,,,,,,,,,,451.945707924664,451.945707924664,451.945707924664,451.945707924664,451.945707924664,451.945707924664,right,None,1.091892285272479,,,,,,,,,,,,,student1,2022-10-21_14h14.29.763,Hippopolis_Learning,2022.2.2,59.852424842396424,
Hippopolis,stimuli/subj_files/student1_cityA.csv,./stimuli/frankfurt.jpg,./stimuli/street_plate1.png,SZIKLA UTCA,stimuli/scenes/111a.jpg,scene,2,stimuli/objects/073a.jpg,stimuli/objects/120b.jpg,stimuli/objects/120a.jpg,stimuli/objects/073a.jpg,stimuli/objects/073b.jpg,dist2,dist1,target,lure,0,0,0,0,,,,,0,15,15,1,,,,,,,456.2864176053554,,,,,,,,,,,,,,454.10212548077106,454.10212548077106,454.10212548077106,454.10212548077106,454.10212548077106,454.10212548077106,left,None,2.1512285731732845,,,,,,,,,,,,,student1,2022-10-21_14h14.29.763,Hippopolis_Learning,2022.2.2,59.852424842396424,
Hippopolis,stimuli/subj_files/student1_cityA.csv,./stimuli/frankfurt.jpg,./stimuli/street_plate1.png,TERASZ UTCA,stimuli/objects/063a.jpg,object,2,stimuli/scenes/104a.jpg,stimuli/scenes/104a.jpg,stimuli/scenes/056a.jpg,stimuli/scenes/104b.jpg,stimuli/scenes/056b.jpg,target,dist1,lure,dist2,0,0,0,0,,,,,0,16,16,48,,,,,,,459.9036312494427,,,,,,,,,,,,,,457.29765177704394,457.29765177704394,457.29765177704394,457.29765177704394,457.29765177704394,457.29765177704394,left,None,2.5715639740228653,,,,,,,,,,,,,student1,2022-10-21_14h14.29.763,Hippopolis_Learning,2022.2.2,59.852424842396424,
Hippopolis,stimuli/subj_files/student1_cityA.csv,./stimuli/frankfurt.jpg,./stimuli/street_plate1.png,BONBON UTCA,stimuli/objects/095a.jpg,object,2,stimuli/scenes/007a.jpg,stimuli/objects/028b.jpg,stimuli/objects/028a.jpg,stimuli/scenes/007a.jpg,stimuli/scenes/007b.jpg,dist2,dist1,target,lure,0,0,0,0,,,,,0,17,17,72,,,,,,,462.6275384351611,,,,,,,,,,,,,,460.93195211328566,460.93195211328566,460.93195211328566,460.93195211328566,460.93195211328566,460.93195211328566,left,None,1.6575304958969355,,,,,,,,,,,,,student1,2022-10-21_14h14.29.763,Hippopolis_Learning,2022.2.2,59.852424842396424,
Hippopolis,stimuli/subj_files/student1_cityA.csv,./stimuli/frankfurt.jpg,./stimuli/street_plate1.png,FÓKA UTCA,stimuli/scenes/058a.jpg,scene,0,stimuli/scenes/058a.jpg,stimuli/scenes/058a.jpg,stimuli/scenes/058b.jpg,stimuli/objects/111b.jpg,stimuli/objects/111a.jpg,target,lure,dist2,dist1,0,0,0,0,,,,,0,18,18,51,,,,,,,466.155584057793,,,,,,,,,,,,,,463.6382715757936,463.6382715757936,463.6382715757936,463.6382715757936,463.6382715757936,463.6382715757936,left,None,2.470978908240795,,,,,,,,,,,,,student1,2022-10-21_14h14.29.763,Hippopolis_Learning,2022.2.2,59.852424842396424,
Hippopolis,stimuli/subj_files/student1_cityA.csv,./stimuli/frankfurt.jpg,./stimuli/street_plate1.png,KOCKA UTCA,stimuli/objects/062a.jpg,object,0,stimuli/objects/062a.jpg,stimuli/scenes/095b.jpg,stimuli/objects/062a.jpg,stimuli/objects/062b.jpg,stimuli/scenes/095a.jpg,dist2,target,lure,dist1,0,0,0,0,,,,,0,19,19,35,,,,,,,469.5739691387862,,,,,,,,,,,,,,467.1841985117644,467.1841985117644,467.1841985117644,467.1841985117644,467.1841985117644,467.1841985117644,left,None,2.3330814745277166,,,,,,,,,,,,,student1,2022-10-21_14h14.29.763,Hippopolis_Learning,2022.2.2,59.852424842396424,
Hippopolis,stimuli/subj_files/student1_cityA.csv,./stimuli/frankfurt.jpg,./stimuli/street_plate1.png,AKÁC UTCA,stimuli/scenes/081a.jpg,scene,2,stimuli/objects/055a.jpg,stimuli/objects/055b.jpg,stimuli/objects/107b.jpg,stimuli/objects/107a.jpg,stimuli/objects/055a.jpg,lure,dist2,dist1,target,0,0,0,0,,,,,0,20,20,74,,,,,,,474.60887120850384,,,,,,,,,,,,,,470.6021711975336,470.6021711975336,470.6021711975336,470.6021711975336,470.6021711975336,470.6021711975336,None,None,,,,,,,,,,,,,,student1,2022-10-21_14h14.29.763,Hippopolis_Learning,2022.2.2,59.852424842396424,
Hippopolis,stimuli/subj_files/student1_cityA.csv,./stimuli/frankfurt.jpg,./stimuli/street_plate1.png,CSILLAG UTCA,stimuli/scenes/083a.jpg,scene,1,stimuli/scenes/117a.jpg,stimuli/scenes/117a.jpg,stimuli/scenes/117b.jpg,stimuli/objects/041a.jpg,stimuli/objects/041b.jpg,target,lure,dist1,dist2,0,0,0,0,,,,,0,21,21,15,,,,,,,479.1292144488543,,,,,,,,,,,,,,475.62979447469115,475.62979447469115,475.62979447469115,475.62979447469115,475.62979447469115,475.62979447469115,left,None,3.4392798952758312,,,,,,,,,,,,,student1,2022-10-21_14h14.29.763,Hippopolis_Learning,2022.2.2,59.852424842396424,
Hippopolis,stimuli/subj_files/student1_cityA.csv,./stimuli/frankfurt.jpg,./stimuli/street_plate1.png,CUKOR UTCA,stimuli/objects/111a.jpg,object,0,stimuli/objects/111a.jpg,stimuli/objects/089b.jpg,stimuli/objects/111b.jpg,stimuli/objects/111a.jpg,stimuli/objects/089a.jpg,dist2,lure,target,dist1,0,0,0,0,,,,,0,22,22,30,,,,,,,482.64348124340177,,,,,,,,,,,,,,480.15486190095544,480.15486190095544,480.15486190095544,480.15486190095544,480.15486190095544,480.15486190095544,right,None,2.4505261965095997,,,,,,,,,,,,,student1,2022-10-21_14h14.29.763,Hippopolis_Learning,2022.2.2,59.852424842396424,
Hippopolis,stimuli/subj_files/student1_cityA.csv,./stimuli/frankfurt.jpg,./stimuli/street_plate1.png,HARMONIKA UTCA,stimuli/scenes/024a.jpg,scene,0,stimuli/scenes/024a.jpg,stimuli/scenes/101b.jpg,stimuli/scenes/024b.jpg,stimuli/scenes/101a.jpg,stimuli/scenes/024a.jpg,dist2,lure,dist1,target,0,0,0,0,,,,,0,23,23,25,,,,,,,485.7432073093951,,,,,,,,,,,,,,483.666974356398,483.666974356398,483.666974356398,483.666974356398,483.666974356398,483.666974356398,left,None,2.026298549026251,,,,,,,,,,,,,student1,2022-10-21_14h14.29.763,Hippopolis_Learning,2022.2.2,59.852424842396424,
Hippopolis,stimuli/subj_files/student1_cityA.csv,./stimuli/frankfurt.jpg,./stimuli/street_plate1.png,VASALÓ UTCA,stimuli/objects/025a.jpg,object,2,stimuli/scenes/056a.jpg,stimuli/scenes/044a.jpg,stimuli/scenes/056b.jpg,stimuli/scenes/056a.jpg,stimuli/scenes/044b.jpg,dist1,lure,target,dist2,0,0,0,0,,,,,0,24,24,70,,,,,,,490.37982153333724,,,,,,491.3957092948258,,,,,,,,486.77794579043984,486.77794579043984,486.77794579043984,486.77794579043984,486.77794579043984,486.77794579043984,left,None,3.571066675707698,,,,,,,,,,,,,student1,2022-10-21_14h14.29.763,Hippopolis_Learning,2022.2.2,59.852424842396424,
Hippopolis,stimuli/subj_files/student1_cityA.csv,./stimuli/frankfurt.jpg,./stimuli/street_plate1.png,FOGAS UTCA,stimuli/scenes/025a.jpg,scene,1,stimuli/scenes/018a.jpg,stimuli/scenes/018b.jpg,stimuli/scenes/064a.jpg,stimuli/scenes/018a.jpg,stimuli/scenes/064b.jpg,lure,dist1,target,dist2,0,0,0,0,,,,,0,25,25,38,,,,,,,493.4122850019485,,,,,,,,,,,,,,491.3957092948258,491.3957092948258,491.3957092948258,491.3957092948258,491.3957092948258,491.3957092948258,left,None,1.9614779744297266,,,,,,,,,,,,,student1,2022-10-21_14h14.29.763,Hippopolis_Learning,2022.2.2,59.852424842396424,
Hippopolis,stimuli/subj_files/student1_cityA.csv,./stimuli/frankfurt.jpg,./stimuli/street_plate1.png,LAKAT UTCA,stimuli/objects/066a.jpg,object,2,stimuli/scenes/084a.jpg,stimuli/scenes/084b.jpg,stimuli/scenes/034a.jpg,stimuli/scenes/084a.jpg,stimuli/scenes/034b.jpg,lure,dist1,target,dist2,0,0,0,0,,,,,0,26,26,58,,,,,,,497.5098582804203,,,,,,,,,,,,,,494.4385218117386,494.4385218117386,494.4385218117386,494.4385218117386,494.4385218117386,494.4385218117386,left,None,3.031075296923518,,,,,,,,,,,,,student1,2022-10-21_14h14.29.763,Hippopolis_Learning,2022.2.2,59.852424842396424,
Hippopolis,stimuli/subj_files/student1_cityA.csv,./stimuli/frankfurt.jpg,./stimuli/street_plate1.png,KECSKE UTCA,stimuli/scenes/085a.jpg,scene,2,stimuli/objects/022a.jpg,stimuli/objects/022b.jpg,stimuli/objects/022a.jpg,stimuli/scenes/053a.jpg,stimuli/scenes/053b.jpg,lure,target,dist1,dist2,0,0,0,0,,,,,0,27,27,6,,,,,,,501.712356409058,,,,,,,,,,,,,,498.51899782568216,498.51899782568216,498.51899782568216,498.51899782568216,498.51899782568216,498.51899782568216,left,None,3.157742602750659,,,,,,,,,,,,,student1,2022-10-21_14h14.29.763,Hippopolis_Learning,2022.2.2,59.852424842396424,
Hippopolis,stimuli/subj_files/student1_cityA.csv,./stimuli/frankfurt.jpg,./stimuli/street_plate1.png,CITROM UTCA,stimuli/scenes/036a.jpg,scene,2,stimuli/objects/043a.jpg,stimuli/objects/043b.jpg,stimuli/objects/067a.jpg,stimuli/objects/043a.jpg,stimuli/objects/067b.jpg,lure,dist1,target,dist2,0,0,0,0,,,,,0,28,28,26,,,,,,,505.1140541303903,,,,,,,,,,,,,,502.72975255176425,502.72975255176425,502.72975255176425,502.72975255176425,502.72975255176425,502.72975255176425,left,None,2.3393544740974903,,,,,,,,,,,,,student1,2022-10-21_14h14.29.763,Hippopolis_Learning,2022.2.2,59.852424842396424,
Hippopolis,stimuli/subj_files/student1_cityA.csv,./stimuli/frankfurt.jpg,./stimuli/street_plate1.png,TOJÁS UTCA,stimuli/objects/021a.jpg,object,2,stimuli/scenes/034a.jpg,stimuli/scenes/034a.jpg,stimuli/objects/059a.jpg,stimuli/objects/059b.jpg,stimuli/scenes/034b.jpg,target,dist1,dist2,lure,0,0,0,0,,,,,0,29,29,37,,,,,,,508.5933774933219,,,,,,,,,,,,,,506.13788312859833,506.13788312859833,506.13788312859833,506.13788312859833,506.13788312859833,506.13788312859833,left,None,2.4190865606069565,,,,,,,,,,,,,student1,2022-10-21_14h14.29.763,Hippopolis_Learning,2022.2.2,59.852424842396424,
Hippopolis,stimuli/subj_files/student1_cityA.csv,./stimuli/frankfurt.jpg,./stimuli/street_plate1.png,TELEP UTCA,stimuli/scenes/048a.jpg,scene,2,stimuli/objects/120a.jpg,stimuli/objects/120a.jpg,stimuli/objects/120b.jpg,stimuli/scenes/119b.jpg,stimuli/scenes/119a.jpg,target,lure,dist2,dist1,0,0,0,0,,,,,0,30,30,75,,,,,,,511.22696500085294,,,,,,,,,,,,,,509.6046007797122,509.6046007797122,509.6046007797122,509.6046007797122,509.6046007797122,509.6046007797122,left,None,1.5761342141777277,,,,,,,,,,,,,student1,2022-10-21_14h14.29.763,Hippopolis_Learning,2022.2.2,59.852424842396424,
Hippopolis,stimuli/subj_files/student1_cityA.csv,./stimuli/frankfurt.jpg,./stimuli/street_plate1.png,VÖDÖR UTCA,stimuli/scenes/055a.jpg,scene,1,stimuli/scenes/088a.jpg,stimuli/scenes/088b.jpg,stimuli/scenes/088a.jpg,stimuli/scenes/087b.jpg,stimuli/scenes/087a.jpg,lure,target,dist2,dist1,0,0,0,0,,,,,0,31,31,56,,,,,,,514.4720053821802,,,,,,515.4908735174686,,,,,,,,512.2538829147816,512.2538829147816,512.2538829147816,512.2538829147816,512.2538829147816,512.2538829147816,left,None,2.191371101886034,,,,,,,,,,,,,student1,2022-10-21_14h14.29.763,Hippopolis_Learning,2022.2.2,59.852424842396424,
Hippopolis,stimuli/subj_files/student1_cityA.csv,./stimuli/frankfurt.jpg,./stimuli/street_plate1.png,LÁNDZSA UTCA,stimuli/scenes/090a.jpg,scene,0,stimuli/scenes/090a.jpg,stimuli/scenes/090a.jpg,stimuli/objects/091b.jpg,stimuli/scenes/090b.jpg,stimuli/objects/091a.jpg,target,dist2,lure,dist1,0,0,0,0,,,,,0,32,32,39,,,,,,,519.4221302196383,,,,,,,,,,,,,,515.4908735174686,515.4908735174686,515.4908735174686,515.4908735174686,515.4908735174686,515.4908735174686,left,None,3.8981707580387592,,,,,,,,,,,,,student1,2022-10-21_14h14.29.763,Hippopolis_Learning,2022.2.2,59.852424842396424,
Hippopolis,stimuli/subj_files/student1_cityA.csv,./stimuli/frankfurt.jpg,./stimuli/street_plate1.png,ÁLOM UTCA,stimuli/objects/070a.jpg,object,0,stimuli/objects/070a.jpg,stimuli/objects/070b.jpg,stimuli/objects/114b.jpg,stimuli/objects/114a.jpg,stimuli/objects/070a.jpg,lure,dist2,dist1,target,0,0,0,0,,,,,0,33,33,50,,,,,,,523.3793727494776,,,,,,,,,,,,,,520.4531960263848,520.4531960263848,520.4531960263848,520.4531960263848,520.4531960263848,520.4531960263848,left,None,2.887456277385354,,,,,,,,,,,,,student1,2022-10-21_14h14.29.763,Hippopolis_Learning,2022.2.2,59.852424842396424,
Hippopolis,stimuli/subj_files/student1_cityA.csv,./stimuli/frankfurt.jpg,./stimuli/street_plate1.png,HÁRFA UTCA,stimuli/objects/083a.jpg,object,2,stimuli/scenes/028a.jpg,stimuli/scenes/028b.jpg,stimuli/objects/012b.jpg,stimuli/objects/012a.jpg,stimuli/scenes/028a.jpg,lure,dist2,dist1,target,0,0,0,0,,,,,0,34,34,16,,,,,,,527.7562014684081,,,,,,,,,,,,,,524.4034474436194,524.4034474436194,524.4034474436194,524.4034474436194,524.4034474436194,524.4034474436194,left,None,3.32115251198411,,,,,,,,,,,,,student1,2022-10-21_14h14.29.763,Hippopolis_Learning,2022.2.2,59.852424842396424,
Hippopolis,stimuli/subj_files/student1_cityA.csv,./stimuli/frankfurt.jpg,./stimuli/street_plate1.png,KÖTÉL UTCA,stimuli/objects/051a.jpg,object,0,stimuli/objects/051a.jpg,stimuli/scenes/024b.jpg,stimuli/objects/051b.jpg,stimuli/scenes/024a.jpg,stimuli/objects/051a.jpg,dist2,lure,dist1,target,0,0,0,0,,,,,0,35,35,7,,,,,,,531.6599959954619,,,,,,,,,,,,,,528.7830189261585,528.7830189261585,528.7830189261585,528.7830189261585,528.7830189261585,528.7830189261585,left,None,2.8295922931283712,,,,,,,,,,,,,student1,2022-10-21_14h14.29.763,Hippopolis_Learning,2022.2.2,59.852424842396424,
Hippopolis,stimuli/subj_files/student1_cityA.csv,./stimuli/frankfurt.jpg,./stimuli/street_plate1.png,RÁDIÓ UTCA,stimuli/scenes/068a.jpg,scene,1,stimuli/scenes/067a.jpg,stimuli/scenes/018b.jpg,stimuli/scenes/067a.jpg,stimuli/scenes/067b.jpg,stimuli/scenes/018a.jpg,dist2,target,lure,dist1,0,0,0,0,,,,,0,36,36,44,,,,,,,534.4762521740049,,,,,,,,,,,,,,532.6777379754931,532.6777379754931,532.6777379754931,532.6777379754931,532.6777379754931,532.6777379754931,left,None,1.7670737877488136,,,,,,,,,,,,,student1,2022-10-21_14h14.29.763,Hippopolis_Learning,2022.2.2,59.852424842396424,
Hippopolis,stimuli/subj_files/student1_cityA.csv,./stimuli/frankfurt.jpg,./stimuli/street_plate1.png,HERNYÓ UTCA,stimuli/scenes/066a.jpg,scene,1,stimuli/scenes/037a.jpg,stimuli/scenes/037a.jpg,stimuli/objects/045b.jpg,stimuli/scenes/037b.jpg,stimuli/objects/045a.jpg,target,dist2,lure,dist1,0,0,0,0,,,,,0,37,37,5,,,,,,,537.2813143003732,,,,,,,,,,,,,,535.5019988380373,535.5019988380373,535.5019988380373,535.5019988380373,535.5019988380373,535.5019988380373,left,None,1.742061099037528,,,,,,,,,,,,,student1,2022-10-21_14h14.29.763,Hippopolis_Learning,2022.2.2,59.852424842396424,
Hippopolis,stimuli/subj_files/student1_cityA.csv,./stimuli/frankfurt.jpg,./stimuli/street_plate1.png,KERET UTCA,stimuli/scenes/027a.jpg,scene,0,stimuli/scenes/027a.jpg,stimuli/objects/100a.jpg,stimuli/objects/100b.jpg,stimuli/scenes/027a.jpg,stimuli/scenes/027b.jpg,dist1,dist2,target,lure,0,0,0,0,,,,,0,38,38,3,,,,,,,541.5077204238623,,,,,,542.5170972663909,,,,,,,,538.292507732287,538.292507732287,538.292507732287,538.292507732287,538.292507732287,538.292507732287,right,None,3.17624095082283,,,,,,,,,,,,,student1,2022-10-21_14h14.29.763,Hippopolis_Learning,2022.2.2,59.852424842396424,
Hippopolis,stimuli/subj_files/student1_cityA.csv,./stimuli/frankfurt.jpg,./stimuli/street_plate1.png,LÉTRA UTCA,stimuli/objects/047a.jpg,object,1,stimuli/objects/015a.jpg,stimuli/objects/108b.jpg,stimuli/objects/015b.jpg,stimuli/objects/108a.jpg,stimuli/objects/015a.jpg,dist2,lure,dist1,target,0,0,0,0,,,,,0,39,39,33,,,,,,,544.8255154620856,,,,,,,,,,,,,,542.5170972663909,542.5170972663909,542.5170972663909,542.5170972663909,542.5170972663909,542.5170972663909,left,None,2.2629685048013926,,,,,,,,,,,,,student1,2022-10-21_14h14.29.763,Hippopolis_Learning,2022.2.2,59.852424842396424,
Hippopolis,stimuli/subj_files/student1_cityA.csv,./stimuli/frankfurt.jpg,./stimuli/street_plate1.png,PÉKSÉG UTCA,stimuli/scenes/073a.jpg,scene,2,stimuli/objects/059a.jpg,stimuli/objects/059a.jpg,stimuli/objects/046b.jpg,stimuli/objects/059b.jpg,stimuli/objects/046a.jpg,target,dist2,lure,dist1,0,0,0,0,,,,,0,40,40,61,,,,,,,549.837892273441,,,,,,,,,,,,,,545.8592170476913,545.8592170476913,545.8592170476913,545.8592170476913,545.8592170476913,545.8592170476913,None,None,,,,,,,,,,,,,,student1,2022-10-21_14h14.29.763,Hippopolis_Learning,2022.2.2,59.852424842396424,
Hippopolis,stimuli/subj_files/student1_cityA.csv,./stimuli/frankfurt.jpg,./stimuli/street_plate1.png,MUSTÁR UTCA,stimuli/scenes/050a.jpg,scene,0,stimuli/scenes/050a.jpg,stimuli/objects/009a.jpg,stimuli/objects/009b.jpg,stimuli/scenes/050a.jpg,stimuli/scenes/050b.jpg,dist1,dist2,target,lure,0,0,0,0,,,,,0,41,41,78,,,,,,,552.7567740306258,,,,,,,,,,,,,,550.8646633923054,550.8646633923054,550.8646633923054,550.8646633923054,550.8646633923054,550.8646633923054,right,None,1.8514691051095724,,,,,,,,,,,,,student1,2022-10-21_14h14.29.763,Hippopolis_Learning,2022.2.2,59.852424842396424,
Hippopolis,stimuli/subj_files/student1_cityA.csv,./stimuli/frankfurt.jpg,./stimuli/street_plate1.png,AJÁNDÉK UTCA,stimuli/scenes/005a.jpg,scene,1,stimuli/scenes/009a.jpg,stimuli/scenes/078b.jpg,stimuli/scenes/078a.jpg,stimuli/scenes/009a.jpg,stimuli/scenes/009b.jpg,dist2,dist1,target,lure,0,0,0,0,,,,,0,42,42,28,,,,,,,556.1532546207309,,,,,,,,,,,,,,553.7864462174475,553.7864462174475,553.7864462174475,553.7864462174475,553.7864462174475,553.7864462174475,left,None,2.3216006737202406,,,,,,,,,,,,,student1,2022-10-21_14h14.29.763,Hippopolis_Learning,2022.2.2,59.852424842396424,
Hippopolis,stimuli/subj_files/student1_cityA.csv,./stimuli/frankfurt.jpg,./stimuli/street_plate1.png,RÓZSA UTCA,stimuli/objects/091a.jpg,object,0,stimuli/objects/091a.jpg,stimuli/objects/091b.jpg,stimuli/objects/078b.jpg,stimuli/objects/078a.jpg,stimuli/objects/091a.jpg,lure,dist2,dist1,target,0,0,0,0,,,,,0,43,43,45,,,,,,,558.9046715646982,,,,,,559.9298658818007,,,,,,,,557.1677627563477,557.1677627563477,557.1677627563477,557.1677627563477,557.1677627563477,557.1677627563477,left,None,1.708214895799756,,,,,,,,,,,,,student1,2022-10-21_14h14.29.763,Hippopolis_Learning,2022.2.2,59.852424842396424,
Hippopolis,stimuli/subj_files/student1_cityA.csv,./stimuli/frankfurt.jpg,./stimuli/street_plate1.png,BOLYGÓ UTCA,stimuli/scenes/118a.jpg,scene,1,stimuli/scenes/087a.jpg,stimuli/objects/011a.jpg,stimuli/scenes/087b.jpg,stimuli/objects/011b.jpg,stimuli/scenes/087a.jpg,dist1,lure,dist2,target,0,0,0,0,,,,,0,44,44,31,,,,,,,561.1033654622734,,,,,,,,,,,,,,559.9298658818007,559.9298658818007,559.9298658818007,559.9298658818007,559.9298658818007,559.9298658818007,left,None,1.1389220487326384,,,,,,,,,,,,,student1,2022-10-21_14h14.29.763,Hippopolis_Learning,2022.2.2,59.852424842396424,
Hippopolis,stimuli/subj_files/student1_cityA.csv,./stimuli/frankfurt.jpg,./stimuli/street_plate1.png,KORONG UTCA,stimuli/scenes/065a.jpg,scene,1,stimuli/scenes/004a.jpg,stimuli/scenes/004a.jpg,stimuli/scenes/011b.jpg,stimuli/scenes/011a.jpg,stimuli/scenes/004b.jpg,target,dist2,dist1,lure,0,0,0,0,,,,,0,45,45,53,,,,,,,563.70558735542,,,,,,564.7162442989647,,,,,,,,562.1152552366257,562.1152552366257,562.1152552366257,562.1152552366257,562.1152552366257,562.1152552366257,left,None,1.5608662888407707,,,,,,,,,,,,,student1,2022-10-21_14h14.29.763,Hippopolis_Learning,2022.2.2,59.852424842396424,
Hippopolis,stimuli/subj_files/student1_cityA.csv,./stimuli/frankfurt.jpg,./stimuli/street_plate1.png,KÖTÉNY UTCA,stimuli/scenes/031a.jpg,scene,1,stimuli/scenes/064a.jpg,stimuli/objects/103a.jpg,stimuli/objects/103b.jpg,stimuli/scenes/064b.jpg,stimuli/scenes/064a.jpg,dist1,dist2,lure,target,0,0,0,0,,,,,0,46,46,22,,,,,,,566.8577046245337,,,,,,,,,,,,,,564.7162442989647,564.7162442989647,564.7162442989647,564.7162442989647,564.7162442989647,564.7162442989647,left,None,2.0963191501796246,,,,,,,,,,,,,student1,2022-10-21_14h14.29.763,Hippopolis_Learning,2022.2.2,59.852424842396424,
Hippopolis,stimuli/subj_files/student1_cityA.csv,./stimuli/frankfurt.jpg,./stimuli/street_plate1.png,POGÁCSA UTCA,stimuli/scenes/046a.jpg,scene,0,stimuli/scenes/046a.jpg,stimuli/scenes/042a.jpg,stimuli/scenes/046a.jpg,stimuli/scenes/046b.jpg,stimuli/scenes/042b.jpg,dist1,target,lure,dist2,0,0,0,0,,,,,0,47,47,49,,,,,,,570.6877477169037,,,,,,571.7038143072277,,,,,,,,567.8675423786044,567.8675423786044,567.8675423786044,567.8675423786044,567.8675423786044,567.8675423786044,left,None,2.784620149061084,,,,,,,,,,,,,student1,2022-10-21_14h14.29.763,Hippopolis_Learning,2022.2.2,59.852424842396424,
Hippopolis,stimuli/subj_files/student1_cityA.csv,./stimuli/frankfurt.jpg,./stimuli/street_plate1.png,KERÉK UTCA,stimuli/scenes/096a.jpg,scene,1,stimuli/scenes/041a.jpg,stimuli/scenes/117a.jpg,stimuli/scenes/041b.jpg,stimuli/scenes/041a.jpg,stimuli/scenes/117b.jpg,dist1,lure,target,dist2,0,0,0,0,,,,,0,48,48,20,,,,,,,574.0261702556163,,,,,,,,,,,,,,571.7038143072277,571.7038143072277,571.7038143072277,571.7038143072277,571.7038143072277,571.7038143072277,left,None,2.2925281077623367,,,,,,,,,,,,,student1,2022-10-21_14h14.29.763,Hippopolis_Learning,2022.2.2,59.852424842396424,
Hippopolis,stimuli/subj_files/student1_cityA.csv,./stimuli/frankfurt.jpg,./stimuli/street_plate1.png,ZSEMLE UTCA,stimuli/objects/115a.jpg,object,1,stimuli/objects/053a.jpg,stimuli/objects/007a.jpg,stimuli/objects/053a.jpg,stimuli/objects/007b.jpg,stimuli/objects/053b.jpg,dist1,target,dist2,lure,0,0,0,0,,,,,0,49,49,47,,,,,,,577.7578880563378,,,,,,,,,,,,,,575.0505836345255,575.0505836345255,575.0505836345255,575.0505836345255,575.0505836345255,575.0505836345255,left,None,2.673814170062542,,,,,,,,,,,,,student1,2022-10-21_14h14.29.763,Hippopolis_Learning,2022.2.2,59.852424842396424,
Hippopolis,stimuli/subj_files/student1_cityA.csv,./stimuli/frankfurt.jpg,./stimuli/street_plate1.png,MOCSÁR UTCA,stimuli/objects/080a.jpg,object,0,stimuli/objects/080a.jpg,stimuli/objects/080b.jpg,stimuli/objects/080a.jpg,stimuli/scenes/043b.jpg,stimuli/scenes/043a.jpg,lure,target,dist2,dist1,0,0,0,0,,,,,0,50,50,17,,,,,,,580.6545798182487,,,,,,,,,,,,,,578.784221900627,578.784221900627,578.784221900627,578.784221900627,578.784221900627,578.784221900627,left,None,1.8354326821863651,,,,,,,,,,,,,student1,2022-10-21_14h14.29.763,Hippopolis_Learning,2022.2.2,59.852424842396424,
Hippopolis,stimuli/subj_files/student1_cityA.csv,./stimuli/frankfurt.jpg,./stimuli/street_plate1.png,SZOMSZÉD UTCA,stimuli/objects/026a.jpg,object,1,stimuli/objects/004a.jpg,stimuli/objects/027b.jpg,stimuli/objects/004b.jpg,stimuli/objects/004a.jpg,stimuli/objects/027a.jpg,dist2,lure,target,dist1,0,0,0,0,,,,,0,51,51,65,,,,,,,583.1994241401553,,,,,,584.215403649956,,,,,,,,581.6805140189826,581.6805140189826,581.6805140189826,581.6805140189826,581.6805140189826,581.6805140189826,left,None,1.4832232296466827,,,,,,,,,,,,,student1,2022-10-21_14h14.29.763,Hippopolis_Learning,2022.2.2,59.852424842396424,
Hippopolis,stimuli/subj_files/student1_cityA.csv,./stimuli/frankfurt.jpg,./stimuli/street_plate1.png,KAKAS UTCA,stimuli/objects/002a.jpg,object,2,stimuli/scenes/074a.jpg,stimuli/scenes/074b.jpg,stimuli/scenes/074a.jpg,stimuli/scenes/070a.jpg,stimuli/scenes/070b.jpg,lure,target,dist1,dist2,0,0,0,0,,,,,0,52,52,24,,,,,,,585.8822078853846,,,,,,,,,,,,,,584.215403649956,584.215403649956,584.215403649956,584.215403649956,584.215403649956,584.215403649956,left,None,1.6206899229437113,,,,,,,,,,,,,student1,2022-10-21_14h14.29.763,Hippopolis_Learning,2022.2.2,59.852424842396424,
Hippopolis,stimuli/subj_files/student1_cityA.csv,./stimuli/frankfurt.jpg,./stimuli/street_plate1.png,MOGYORÓ UTCA,stimuli/objects/106a.jpg,object,1,stimuli/objects/103a.jpg,stimuli/scenes/116a.jpg,stimuli/objects/103b.jpg,stimuli/objects/103a.jpg,stimuli/scenes/116b.jpg,dist1,lure,target,dist2,0,0,0,0,,,,,0,53,53,54,,,,,,,588.6466995384544,,,,,,,,,,,,,,586.8978331573308,586.8978331573308,586.8978331573308,586.8978331573308,586.8978331573308,586.8978331573308,left,None,1.706568118184805,,,,,,,,,,,,,student1,2022-10-21_14h14.29.763,Hippopolis_Learning,2022.2.2,59.852424842396424,
Hippopolis,stimuli/subj_files/student1_cityA.csv,./stimuli/frankfurt.jpg,./stimuli/street_plate1.png,EGÉR UTCA,stimuli/scenes/071a.jpg,scene,1,stimuli/scenes/116a.jpg,stimuli/scenes/116b.jpg,stimuli/scenes/116a.jpg,stimuli/scenes/009b.jpg,stimuli/scenes/009a.jpg,lure,target,dist2,dist1,0,0,0,0,,,,,0,54,54,29,,,,,,,593.0823784396052,,,,,,,,,,,,,,589.6714024655521,589.6714024655521,589.6714024655521,589.6714024655521,589.6714024655521,589.6714024655521,left,None,3.364468550309539,,,,,,,,,,,,,student1,2022-10-21_14h14.29.763,Hippopolis_Learning,2022.2.2,59.852424842396424,
Hippopolis,stimuli/subj_files/student1_cityA.csv,./stimuli/frankfurt.jpg,./stimuli/street_plate1.png,OROSZLÁN UTCA,stimuli/scenes/072a.jpg,scene,0,stimuli/scenes/072a.jpg,stimuli/scenes/072a.jpg,stimuli/scenes/072b.jpg,stimuli/scenes/027b.jpg,stimuli/scenes/027a.jpg,target,lure,dist2,dist1,0,0,0,0,,,,,0,55,55,66,,,,,,,595.1812812723219,,,,,,,,,,,,,,594.094883074984,594.094883074984,594.094883074984,594.094883074984,594.094883074984,594.094883074984,left,None,1.0366855412721634,,,,,,,,,,,,,student1,2022-10-21_14h14.29.763,Hippopolis_Learning,2022.2.2,59.852424842396424,
Hippopolis,stimuli/subj_files/student1_cityA.csv,./stimuli/frankfurt.jpg,./stimuli/street_plate1.png,PIZSAMA UTCA,stimuli/scenes/060a.jpg,scene,2,stimuli/objects/006a.jpg,stimuli/scenes/007b.jpg,stimuli/scenes/007a.jpg,stimuli/objects/006b.jpg,stimuli/objects/006a.jpg,dist2,dist1,lure,target,0,0,0,0,,,,,0,56,56,79,,,,,,,599.1570488978177,,,,,,,,,,,,,,596.2155174780637,596.2155174780637,596.2155174780637,596.2155174780637,596.2155174780637,596.2155174780637,left,None,2.899927943944931,,,,,,,,,,,,,student1,2022-10-21_14h14.29.763,Hippopolis_Learning,2022.2.2,59.852424842396424,
Hippopolis,stimuli/subj_files/student1_cityA.csv,./stimuli/frankfurt.jpg,./stimuli/street_plate1.png,MOTOR UTCA,stimuli/objects/097a.jpg,object,1,stimuli/objects/071a.jpg,stimuli/objects/015b.jpg,stimuli/objects/071b.jpg,stimuli/objects/071a.jpg,stimuli/objects/015a.jpg,dist2,lure,target,dist1,0,0,0,0,,,,,0,57,57,36,,,,,,,610.9116605017334,,,,,,,,,,,,,,600.1828674040735,600.1828674040735,600.1828674040735,600.1828674040735,600.1828674040735,600.1828674040735,right,space,1.460714453831315,601.67865264602,601.67865264602,601.67865264602,601.67865264602,601.67865264602,9.212829919531941,,,,,,,student1,2022-10-21_14h14.29.763,Hippopolis_Learning,2022.2.2,59.852424842396424,
Hippopolis,stimuli/subj_files/student1_cityA.csv,./stimuli/frankfurt.jpg,./stimuli/street_plate1.png,PAPUCS UTCA,stimuli/scenes/051a.jpg,scene,0,stimuli/scenes/051a.jpg,stimuli/scenes/051b.jpg,stimuli/scenes/051a.jpg,stimuli/scenes/090a.jpg,stimuli/scenes/090b.jpg,lure,target,dist1,dist2,0,0,0,0,,,,,0,58,58,68,,,,,,,614.2705015409738,,,,,,,,,,,,,,611.9320780709386,611.9320780709386,611.9320780709386,611.9320780709386,611.9320780709386,611.9320780709386,left,None,2.3042679764330387,,,,,,,,,,,,,student1,2022-10-21_14h14.29.763,Hippopolis_Learning,2022.2.2,59.852424842396424,
Hippopolis,stimuli/subj_files/student1_cityA.csv,./stimuli/frankfurt.jpg,./stimuli/street_plate1.png,KORONA UTCA,stimuli/scenes/108a.jpg,scene,1,stimuli/scenes/011a.jpg,stimuli/objects/076a.jpg,stimuli/scenes/011b.jpg,stimuli/objects/076b.jpg,stimuli/scenes/011a.jpg,dist1,lure,dist2,target,0,0,0,0,,,,,0,59,59,9,,,,,,,618.4538917485625,,,,,,,,,,,,,,615.2938836235553,615.2938836235553,615.2938836235553,615.2938836235553,615.2938836235553,615.2938836235553,left,None,3.117837993428111,,,,,,,,,,,,,student1,2022-10-21_14h14.29.763,Hippopolis_Learning,2022.2.2,59.852424842396424,
Hippopolis,stimuli/subj_files/student1_cityA.csv,./stimuli/frankfurt.jpg,./stimuli/street_plate1.png,KULLANCS UTCA,stimuli/objects/089a.jpg,object,0,stimuli/objects/089a.jpg,stimuli/scenes/072a.jpg,stimuli/objects/089a.jpg,stimuli/scenes/072b.jpg,stimuli/objects/089b.jpg,dist1,target,dist2,lure,0,0,0,0,,,,,0,60,60,34,,,,,,,622.3915884587914,,,,,,,,,,,,,,619.4809430837631,619.4809430837631,619.4809430837631,619.4809430837631,619.4809430837631,619.4809430837631,left,None,2.866231957450509,,,,,,,,,,,,,student1,2022-10-21_14h14.29.763,Hippopolis_Learning,2022.2.2,59.852424842396424,
Hippopolis,stimuli/subj_files/student1_cityA.csv,./stimuli/frankfurt.jpg,./stimuli/street_plate1.png,ÜVEG UTCA,stimuli/scenes/061a.jpg,scene,2,stimuli/objects/085a.jpg,stimuli/objects/085b.jpg,stimuli/scenes/084a.jpg,stimuli/objects/085a.jpg,stimuli/scenes/084b.jpg,lure,dist1,target,dist2,0,0,0,0,,,,,0,61,61,19,,,,,,,625.6352625899017,,,,,,626.6455379296094,,,,,,,,623.4131601732224,623.4131601732224,623.4131601732224,623.4131601732224,623.4131601732224,623.4131601732224,left,None,2.1819569375365973,,,,,,,,,,,,,student1,2022-10-21_14h14.29.763,Hippopolis_Learning,2022.2.2,59.852424842396424,
Hippopolis,stimuli/subj_files/student1_cityA.csv,./stimuli/frankfurt.jpg,./stimuli/street_plate1.png,PÁLMAFA UTCA,stimuli/objects/090a.jpg,object,1,stimuli/objects/007a.jpg,stimuli/objects/053a.jpg,stimuli/objects/007a.jpg,stimuli/objects/053b.jpg,stimuli/objects/007b.jpg,dist1,target,dist2,lure,0,0,0,0,,,,,0,62,62,12,,,,,,,628.9741973541677,,,,,,,,,,,,,,626.6455379296094,626.6455379296094,626.6455379296094,626.6455379296094,626.6455379296094,626.6455379296094,left,None,2.2942417524755,,,,,,,,,,,,,student1,2022-10-21_14h14.29.763,Hippopolis_Learning,2022.2.2,59.852424842396424,
Hippopolis,stimuli/subj_files/student1_cityA.csv,./stimuli/frankfurt.jpg,./stimuli/street_plate1.png,PAPAGÁJ UTCA,stimuli/objects/093a.jpg,object,2,stimuli/scenes/097a.jpg,stimuli/scenes/097a.jpg,stimuli/scenes/109b.jpg,stimuli/scenes/109a.jpg,stimuli/scenes/097b.jpg,target,dist2,dist1,lure,0,0,0,0,,,,,0,63,63,55,,,,,,,632.5859120953828,,,,,,,,,,,,,,629.9980266653001,629.9980266653001,629.9980266653001,629.9980266653001,629.9980266653001,629.9980266653001,left,None,2.541712025180459,,,,,,,,,,,,,student1,2022-10-21_14h14.29.763,Hippopolis_Learning,2022.2.2,59.852424842396424,
Hippopolis,stimuli/subj_files/student1_cityA.csv,./stimuli/frankfurt.jpg,./stimuli/street_plate1.png,HORDÓ UTCA,stimuli/scenes/095a.jpg,scene,0,stimuli/scenes/095a.jpg,stimuli/scenes/095a.jpg,stimuli/scenes/046a.jpg,stimuli/scenes/095b.jpg,stimuli/scenes/046b.jpg,target,dist1,lure,dist2,0,0,0,0,,,,,0,64,64,27,,,,,,,636.8680505622178,,,,,,637.8845432307571,,,,,,,,633.613586999476,633.613586999476,633.613586999476,633.613586999476,633.613586999476,633.613586999476,left,None,3.229853166267276,,,,,,,,,,,,,student1,2022-10-21_14h14.29.763,Hippopolis_Learning,2022.2.2,59.852424842396424,
Hippopolis,stimuli/subj_files/student1_cityA.csv,./stimuli/frankfurt.jpg,./stimuli/street_plate1.png,CSAVAR UTCA,stimuli/objects/078a.jpg,object,0,stimuli/objects/078a.jpg,stimuli/objects/078b.jpg,stimuli/objects/024b.jpg,stimuli/objects/078a.jpg,stimuli/objects/024a.jpg,lure,dist2,target,dist1,0,0,0,0,,,,,0,65,65,10,,,,,,,640.155822288245,,,,,,,,,,,,,,637.8845432307571,637.8845432307571,637.8845432307571,637.8845432307571,637.8845432307571,637.8845432307571,left,None,2.2386145256459713,,,,,,,,,,,,,student1,2022-10-21_14h14.29.763,Hippopolis_Learning,2022.2.2,59.852424842396424,
Hippopolis,stimuli/subj_files/student1_cityA.csv,./stimuli/frankfurt.jpg,./stimuli/street_plate1.png,MARTINI UTCA,stimuli/objects/060a.jpg,object,1,stimuli/objects/011a.jpg,stimuli/objects/075b.jpg,stimuli/objects/075a.jpg,stimuli/objects/011b.jpg,stimuli/objects/011a.jpg,dist2,dist1,lure,target,0,0,0,0,,,,,0,66,66,60,,,,,,,645.1665464118123,,,,,,,,,,,,,,641.1781625002623,641.1781625002623,641.1781625002623,641.1781625002623,641.1781625002623,641.1781625002623,None,None,,,,,,,,,,,,,,student1,2022-10-21_14h14.29.763,Hippopolis_Learning,2022.2.2,59.852424842396424,
Hippopolis,stimuli/subj_files/student1_cityA.csv,./stimuli/frankfurt.jpg,./stimuli/street_plate1.png,DOMINÓ UTCA,stimuli/scenes/042a.jpg,scene,0,stimuli/scenes/042a.jpg,stimuli/scenes/042a.jpg,stimuli/scenes/042b.jpg,stimuli/objects/070a.jpg,stimuli/objects/070b.jpg,target,lure,dist1,dist2,0,0,0,0,,,,,0,67,67,63,,,,,,,648.0575097464025,,,,,,,,,,,,,,646.1863220632076,646.1863220632076,646.1863220632076,646.1863220632076,646.1863220632076,646.1863220632076,right,None,1.8250428922474384,,,,,,,,,,,,,student1,2022-10-21_14h14.29.763,Hippopolis_Learning,2022.2.2,59.852424842396424,
Hippopolis,stimuli/subj_files/student1_cityA.csv,./stimuli/frankfurt.jpg,./stimuli/street_plate1.png,TALICSKA UTCA,stimuli/objects/014a.jpg,object,1,stimuli/objects/108a.jpg,stimuli/objects/109a.jpg,stimuli/objects/109b.jpg,stimuli/objects/108a.jpg,stimuli/objects/108b.jpg,dist1,dist2,target,lure,0,0,0,0,,,,,0,68,68,13,,,,,,,651.4638162720948,,,,,,,,,,,,,,649.0761919021606,649.0761919021606,649.0761919021606,649.0761919021606,649.0761919021606,649.0761919021606,left,None,2.343340642750263,,,,,,,,,,,,,student1,2022-10-21_14h14.29.763,Hippopolis_Learning,2022.2.2,59.852424842396424,
Hippopolis,stimuli/subj_files/student1_cityA.csv,./stimuli/frankfurt.jpg,./stimuli/street_plate1.png,KOKTÉL UTCA,stimuli/scenes/008a.jpg,scene,2,stimuli/objects/012a.jpg,stimuli/objects/036b.jpg,stimuli/objects/012b.jpg,stimuli/objects/036a.jpg,stimuli/objects/012a.jpg,dist2,lure,dist1,target,0,0,0,0,,,,,0,69,69,46,,,,,,,656.133851243183,,,,,,,,,,,,,,652.4923445787281,652.4923445787281,652.4923445787281,652.4923445787281,652.4923445787281,652.4923445787281,left,None,3.6146719492971897,,,,,,,,,,,,,student1,2022-10-21_14h14.29.763,Hippopolis_Learning,2022.2.2,59.852424842396424,
Hippopolis,stimuli/subj_files/student1_cityA.csv,./stimuli/frankfurt.jpg,./stimuli/street_plate1.png,PULÓVER UTCA,stimuli/objects/114a.jpg,object,0,stimuli/objects/114a.jpg,stimuli/scenes/050b.jpg,stimuli/scenes/050a.jpg,stimuli/objects/114b.jpg,stimuli/objects/114a.jpg,dist2,dist1,lure,target,0,0,0,0,,,,,0,70,70,43,,,,,,,658.6274286489934,,,,,,,,,,,,,,657.165152169764,657.165152169764,657.165152169764,657.165152169764,657.165152169764,657.165152169764,left,None,1.4218971244990826,,,,,,,,,,,,,student1,2022-10-21_14h14.29.763,Hippopolis_Learning,2022.2.2,59.852424842396424,
Hippopolis,stimuli/subj_files/student1_cityA.csv,./stimuli/frankfurt.jpg,./stimuli/street_plate1.png,TOLLTARTÓ UTCA,stimuli/objects/032a.jpg,object,2,stimuli/scenes/119a.jpg,stimuli/scenes/119a.jpg,stimuli/scenes/104b.jpg,stimuli/scenes/104a.jpg,stimuli/scenes/119b.jpg,target,dist2,dist1,lure,0,0,0,0,,,,,0,71,71,67,,,,,,,661.7096584290266,,,,,,,,,,,,,,659.655942959711,659.655942959711,659.655942959711,659.655942959711,659.655942959711,659.655942959711,left,None,2.0196983721107244,,,,,,,,,,,,,student1,2022-10-21_14h14.29.763,Hippopolis_Learning,2022.2.2,59.852424842396424,
Hippopolis,stimuli/subj_files/student1_cityA.csv,./stimuli/frankfurt.jpg,./stimuli/street_plate1.png,KIRAKÓ UTCA,stimuli/objects/079a.jpg,object,2,stimuli/scenes/070a.jpg,stimuli/scenes/070a.jpg,stimuli/scenes/070b.jpg,stimuli/objects/043b.jpg,stimuli/objects/043a.jpg,target,lure,dist2,dist1,0,0,0,0,,,,,0,72,72,57,,,,,,,665.0025732666254,,,,,,,,,,,,,,662.7249257322401,662.7249257322401,662.7249257322401,662.7249257322401,662.7249257322401,662.7249257322401,left,None,2.2466353811323643,,,,,,,,,,,,,student1,2022-10-21_14h14.29.763,Hippopolis_Learning,2022.2.2,59.852424842396424,
Hippopolis,stimuli/subj_files/student1_cityA.csv,./stimuli/frankfurt.jpg,./stimuli/street_plate1.png,FIÓK UTCA,stimuli/scenes/002a.jpg,scene,1,stimuli/scenes/014a.jpg,stimuli/scenes/014a.jpg,stimuli/objects/004a.jpg,stimuli/objects/004b.jpg,stimuli/scenes/014b.jpg,target,dist1,dist2,lure,0,0,0,0,,,,,0,73,73,73,,,,,,,668.5223622936755,,,,,,,,,,,,,,666.0134109072387,666.0134109072387,666.0134109072387,666.0134109072387,666.0134109072387,666.0134109072387,left,None,2.4776086322963238,,,,,,,,,,,,,student1,2022-10-21_14h14.29.763,Hippopolis_Learning,2022.2.2,59.852424842396424,
Hippopolis,stimuli/subj_files/student1_cityA.csv,./stimuli/frankfurt.jpg,./stimuli/street_plate1.png,TOBOZ UTCA,stimuli/objects/001a.jpg,object,2,stimuli/scenes/059a.jpg,stimuli/scenes/059a.jpg,stimuli/objects/085a.jpg,stimuli/objects/085b.jpg,stimuli/scenes/059b.jpg,target,dist1,dist2,lure,0,0,0,0,,,,,0,74,74,40,,,,,,,670.8894033282995,,,,,,,,,,,,,,669.5325486846268,669.5325486846268,669.5325486846268,669.5325486846268,669.5325486846268,669.5325486846268,left,None,1.3104028888046741,,,,,,,,,,,,,student1,2022-10-21_14h14.29.763,Hippopolis_Learning,2022.2.2,59.852424842396424,
Hippopolis,stimuli/subj_files/student1_cityA.csv,./stimuli/frankfurt.jpg,./stimuli/street_plate1.png,KÖMÉNYMAG UTCA,stimuli/objects/068a.jpg,object,1,stimuli/objects/045a.jpg,stimuli/objects/045a.jpg,stimuli/objects/045b.jpg,stimuli/objects/071a.jpg,stimuli/objects/071b.jpg,target,lure,dist1,dist2,0,0,0,0,,,,,0,75,75,18,,,,,,,673.9263278730214,,,,,,,,,,,,,,671.9208669122308,671.9208669122308,671.9208669122308,671.9208669122308,671.9208669122308,671.9208669122308,left,None,1.9785702656954527,,,,,,,,,,,,,student1,2022-10-21_14h14.29.763,Hippopolis_Learning,2022.2.2,59.852424842396424,
Hippopolis,stimuli/subj_files/student1_cityA.csv,./stimuli/frankfurt.jpg,./stimuli/street_plate1.png,KARTON UTCA,stimuli/objects/101a.jpg,object,2,stimuli/scenes/044a.jpg,stimuli/scenes/074a.jpg,stimuli/scenes/044b.jpg,stimuli/scenes/044a.jpg,stimuli/scenes/074b.jpg,dist1,lure,target,dist2,0,0,0,0,,,,,0,76,76,8,,,,,,,682.2053730711341,,,,,,683.2132085654885,,,,,,,,674.9472430534661,674.9472430534661,674.9472430534661,674.9472430534661,674.9472430534661,674.9472430534661,right,space,2.2636437006294727,677.2523086015135,677.2523086015135,677.2523086015135,677.2523086015135,677.2523086015135,4.934394916519523,,,,,,,student1,2022-10-21_14h14.29.763,Hippopolis_Learning,2022.2.2,59.852424842396424,
Hippopolis,stimuli/subj_files/student1_cityA.csv,./stimuli/frankfurt.jpg,./stimuli/street_plate1.png,SIVATAG UTCA,stimuli/scenes/016a.jpg,scene,2,stimuli/objects/046a.jpg,stimuli/objects/046b.jpg,stimuli/objects/006a.jpg,stimuli/objects/006b.jpg,stimuli/objects/046a.jpg,lure,dist1,dist2,target,0,0,0,0,,,,,0,77,77,23,,,,,,,685.6734398677945,,,,,,,,,,,,,,683.2132085654885,683.2132085654885,683.2132085654885,683.2132085654885,683.2132085654885,683.2132085654885,left,None,2.429109675809741,,,,,,,,,,,,,student1,2022-10-21_14h14.29.763,Hippopolis_Learning,2022.2.2,59.852424842396424,
Hippopolis,stimuli/subj_files/student1_cityA.csv,./stimuli/frankfurt.jpg,./stimuli/street_plate1.png,BÖGRE UTCA,stimuli/objects/050a.jpg,object,1,stimuli/objects/076a.jpg,stimuli/scenes/037a.jpg,stimuli/objects/076a.jpg,stimuli/objects/076b.jpg,stimuli/scenes/037b.jpg,dist1,target,lure,dist2,0,0,0,0,,,,,0,78,78,41,,,,,,,688.531522674486,,,,,,,,,,,,,,686.6931750886142,686.6931750886142,686.6931750886142,686.6931750886142,686.6931750886142,686.6931750886142,left,None,1.7974650226533413,,,,,,,,,,,,,student1,2022-10-21_14h14.29.763,Hippopolis_Learning,2022.2.2,59.852424842396424,
Hippopolis,stimuli/subj_files/student1_cityA.csv,./stimuli/frankfurt.jpg,./stimuli/street_plate1.png,PADLÓ UTCA,stimuli/objects/100a.jpg,object,0,stimuli/objects/100a.jpg,stimuli/scenes/058a.jpg,stimuli/scenes/058b.jpg,stimuli/objects/100a.jpg,stimuli/objects/100b.jpg,dist1,dist2,target,lure,0,0,0,0,,,,,0,79,79,59,,,,,,,692.7021519783884,,,,,,,,,,,,,,689.5438270214945,689.5438270214945,689.5438270214945,689.5438270214945,689.5438270214945,689.5438270214945,left,None,3.1229888815432787,,,,,,,,,,,,,student1,2022-10-21_14h14.29.763,Hippopolis_Learning,2022.2.2,59.852424842396424,
Camponello,stimuli/subj_files/student1_cityB.csv,./stimuli/leipzig.jpg,./stimuli/street_plate2.png,TORONY UTCA,stimuli/scenes/094a.jpg,scene,2,stimuli/objects/054a.jpg,stimuli/scenes/001a.jpg,stimuli/scenes/001b.jpg,stimuli/objects/054b.jpg,stimuli/objects/054a.jpg,dist1,dist2,lure,target,0,1,1,1,0,0,0,62,,,,,,,,,708.9205070771277,708.9205070771277,711.9096454903483,712.916605502367,712.916605502367,712.916605502367,712.916605502367,None,,,,,,,,,,,,,,,,,,,,,,,,9,693.7065797764808,693.7065797764808,space,15.135863613337278,,student1,2022-10-21_14h14.29.763,Hippopolis_Learning,2022.2.2,59.852424842396424,
Camponello,stimuli/subj_files/student1_cityB.csv,./stimuli/leipzig.jpg,./stimuli/street_plate2.png,ÁLLOMÁS UTCA,stimuli/scenes/069a.jpg,scene,0,stimuli/scenes/069a.jpg,stimuli/scenes/106a.jpg,stimuli/scenes/106b.jpg,stimuli/scenes/069b.jpg,stimuli/scenes/069a.jpg,dist1,dist2,lure,target,0,1,1,1,0,1,1,42,,,,,,,,,,,715.8769624512643,716.922278881073,716.922278881073,716.922278881073,716.922278881073,None,,,,,,,,,,,,,,,,,,,,,,,,,,,,,,student1,2022-10-21_14h14.29.763,Hippopolis_Learning,2022.2.2,59.852424842396424,
Camponello,stimuli/subj_files/student1_cityB.csv,./stimuli/leipzig.jpg,./stimuli/street_plate2.png,VÁSÁR UTCA,stimuli/scenes/089a.jpg,scene,0,stimuli/scenes/089a.jpg,stimuli/scenes/089a.jpg,stimuli/scenes/089b.jpg,stimuli/scenes/082b.jpg,stimuli/scenes/082a.jpg,target,lure,dist2,dist1,0,1,1,1,0,2,2,41,,,,,,,,,,,719.8879860714078,720.9359525889158,720.9359525889158,720.9359525889158,720.9359525889158,None,,,,,,,,,,,,,,,,,,,,,,,,,,,,,,student1,2022-10-21_14h14.29.763,Hippopolis_Learning,2022.2.2,59.852424842396424,
Camponello,stimuli/subj_files/student1_cityB.csv,./stimuli/leipzig.jpg,./stimuli/street_plate2.png,TULIPÁN UTCA,stimuli/objects/058a.jpg,object,0,stimuli/objects/058a.jpg,stimuli/objects/117a.jpg,stimuli/objects/117b.jpg,stimuli/objects/058b.jpg,stimuli/objects/058a.jpg,dist1,dist2,lure,target,0,1,1,1,0,3,3,1,,,,,,,,,,,723.9084471836686,724.9368890281767,724.9368890281767,724.9368890281767,724.9368890281767,None,,,,,,,,,,,,,,,,,,,,,,,,,,,,,,student1,2022-10-21_14h14.29.763,Hippopolis_Learning,2022.2.2,59.852424842396424,
Camponello,stimuli/subj_files/student1_cityB.csv,./stimuli/leipzig.jpg,./stimuli/street_plate2.png,KÓKUSZ UTCA,stimuli/scenes/052a.jpg,scene,0,stimuli/scenes/052a.jpg,stimuli/scenes/052a.jpg,stimuli/objects/077b.jpg,stimuli/objects/077a.jpg,stimuli/scenes/052b.jpg,target,dist2,dist1,lure,0,1,1,1,0,4,4,19,,,,,,,,,,,727.9168791882694,728.9400563165545,728.9400563165545,728.9400563165545,728.9400563165545,None,,,,,,,,,,,,,,,,,,,,,,,,,,,,,,student1,2022-10-21_14h14.29.763,Hippopolis_Learning,2022.2.2,59.852424842396424,
Camponello,stimuli/subj_files/student1_cityB.csv,./stimuli/leipzig.jpg,./stimuli/street_plate2.png,VIHAR UTCA,stimuli/objects/048a.jpg,object,2,stimuli/scenes/054a.jpg,stimuli/scenes/054b.jpg,stimuli/scenes/100b.jpg,stimuli/scenes/054a.jpg,stimuli/scenes/100a.jpg,lure,dist2,target,dist1,0,1,1,1,0,5,5,65,,,,,,,,,,,731.9255718160421,732.9564183633775,732.9564183633775,732.9564183633775,732.9564183633775,None,,,,,,,,,,,,,,,,,,,,,,,,,,,,,,student1,2022-10-21_14h14.29.763,Hippopolis_Learning,2022.2.2,59.852424842396424,
Camponello,stimuli/subj_files/student1_cityB.csv,./stimuli/leipzig.jpg,./stimuli/street_plate2.png,LEMEZ UTCA,stimuli/scenes/022a.jpg,scene,0,stimuli/scenes/022a.jpg,stimuli/scenes/077b.jpg,stimuli/scenes/022a.jpg,stimuli/scenes/022b.jpg,stimuli/scenes/077a.jpg,dist2,target,lure,dist1,0,1,1,1,0,6,6,13,,,,,,,,,,,735.9270046222955,736.9681656975299,736.9681656975299,736.9681656975299,736.9681656975299,None,,,,,,,,,,,,,,,,,,,,,,,,,,,,,,student1,2022-10-21_14h14.29.763,Hippopolis_Learning,2022.2.2,59.852424842396424,
Camponello,stimuli/subj_files/student1_cityB.csv,./stimuli/leipzig.jpg,./stimuli/street_plate2.png,REPÜLŐ UTCA,stimuli/scenes/098a.jpg,scene,0,stimuli/scenes/098a.jpg,stimuli/scenes/013a.jpg,stimuli/scenes/013b.jpg,stimuli/scenes/098a.jpg,stimuli/scenes/098b.jpg,dist1,dist2,target,lure,0,1,1,1,0,7,7,66,,,,,,,,,,,739.9351063389331,740.9624478444457,740.9624478444457,740.9624478444457,740.9624478444457,None,,,,,,,,,,,,,,,,,,,,,,,,,,,,,,student1,2022-10-21_14h14.29.763,Hippopolis_Learning,2022.2.2,59.852424842396424,
Camponello,stimuli/subj_files/student1_cityB.csv,./stimuli/leipzig.jpg,./stimuli/street_plate2.png,MÁRVÁNY UTCA,stimuli/scenes/023a.jpg,scene,0,stimuli/scenes/023a.jpg,stimuli/objects/030a.jpg,stimuli/scenes/023b.jpg,stimuli/objects/030b.jpg,stimuli/scenes/023a.jpg,dist1,lure,dist2,target,0,1,1,1,0,8,8,58,,,,,,,,,,,743.9499214403331,744.9684726595879,744.9684726595879,744.9684726595879,744.9684726595879,None,,,,,,,,,,,,,,,,,,,,,,,,,,,,,,student1,2022-10-21_14h14.29.763,Hippopolis_Learning,2022.2.2,59.852424842396424,
Camponello,stimuli/subj_files/student1_cityB.csv,./stimuli/leipzig.jpg,./stimuli/street_plate2.png,SIRÁLY UTCA,stimuli/objects/081a.jpg,object,0,stimuli/objects/081a.jpg,stimuli/objects/081a.jpg,stimuli/objects/081b.jpg,stimuli/scenes/019a.jpg,stimuli/scenes/019b.jpg,target,lure,dist1,dist2,0,1,1,1,0,9,9,50,,,,,,,,,,,747.9568587485701,748.9957420118153,748.9957420118153,748.9957420118153,748.9957420118153,None,,,,,,,,,,,,,,,,,,,,,,,,,,,,,,student1,2022-10-21_14h14.29.763,Hippopolis_Learning,2022.2.2,59.852424842396424,
Camponello,stimuli/subj_files/student1_cityB.csv,./stimuli/leipzig.jpg,./stimuli/street_plate2.png,SZAPPAN UTCA,stimuli/objects/023a.jpg,object,1,stimuli/objects/087a.jpg,stimuli/scenes/012b.jpg,stimuli/objects/087b.jpg,stimuli/objects/087a.jpg,stimuli/scenes/012a.jpg,dist2,lure,target,dist1,0,1,1,1,0,10,10,7,,,,,,,,,,,751.958578614518,752.9849796351045,752.9849796351045,752.9849796351045,752.9849796351045,None,,,,,,,,,,,,,,,,,,,,,,,,,,,,,,student1,2022-10-21_14h14.29.763,Hippopolis_Learning,2022.2.2,59.852424842396424,
Camponello,stimuli/subj_files/student1_cityB.csv,./stimuli/leipzig.jpg,./stimuli/street_plate2.png,LÉPCSŐ UTCA,stimuli/objects/049a.jpg,object,0,stimuli/objects/049a.jpg,stimuli/scenes/076b.jpg,stimuli/scenes/076a.jpg,stimuli/objects/049b.jpg,stimuli/objects/049a.jpg,dist2,dist1,lure,target,0,1,1,1,0,11,11,43,,,,,,,,,,,755.9692623056471,757.0029903259128,757.0029903259128,757.0029903259128,757.0029903259128,None,,,,,,,,,,,,,,,,,,,,,,,,,,,,,,student1,2022-10-21_14h14.29.763,Hippopolis_Learning,2022.2.2,59.852424842396424,
Camponello,stimuli/subj_files/student1_cityB.csv,./stimuli/leipzig.jpg,./stimuli/street_plate2.png,KESELYŰ UTCA,stimuli/objects/003a.jpg,object,2,stimuli/scenes/100a.jpg,stimuli/objects/029a.jpg,stimuli/scenes/100b.jpg,stimuli/objects/029b.jpg,stimuli/scenes/100a.jpg,dist1,lure,dist2,target,0,1,1,1,0,12,12,6,,,,,,,,,,,759.9849718604237,761.0054236408323,761.0054236408323,761.0054236408323,761.0054236408323,None,,,,,,,,,,,,,,,,,,,,,,,,,,,,,,student1,2022-10-21_14h14.29.763,Hippopolis_Learning,2022.2.2,59.852424842396424,
Camponello,stimuli/subj_files/student1_cityB.csv,./stimuli/leipzig.jpg,./stimuli/street_plate2.png,MAJOM UTCA,stimuli/objects/018a.jpg,object,0,stimuli/objects/018a.jpg,stimuli/objects/018a.jpg,stimuli/scenes/092b.jpg,stimuli/objects/018b.jpg,stimuli/scenes/092a.jpg,target,dist2,lure,dist1,0,1,1,1,0,13,13,78,,,,,,,,,,,764.0020227860659,765.0452165976167,765.0452165976167,765.0452165976167,765.0452165976167,None,,,,,,,,,,,,,,,,,,,,,,,,,,,,,,student1,2022-10-21_14h14.29.763,Hippopolis_Learning,2022.2.2,59.852424842396424,
Camponello,stimuli/subj_files/student1_cityB.csv,./stimuli/leipzig.jpg,./stimuli/street_plate2.png,SZÖCSKE UTCA,stimuli/scenes/026a.jpg,scene,2,stimuli/objects/061a.jpg,stimuli/scenes/063a.jpg,stimuli/objects/061a.jpg,stimuli/scenes/063b.jpg,stimuli/objects/061b.jpg,dist1,target,dist2,lure,0,1,1,1,0,14,14,71,,,,,,,,,,,768.0114668067545,769.030045395717,769.030045395717,769.030045395717,769.030045395717,None,,,,,,,,,,,,,,,,,,,,,,,,,,,,,,student1,2022-10-21_14h14.29.763,Hippopolis_Learning,2022.2.2,59.852424842396424,
Camponello,stimuli/subj_files/student1_cityB.csv,./stimuli/leipzig.jpg,./stimuli/street_plate2.png,BANÁN UTCA,stimuli/scenes/045a.jpg,scene,0,stimuli/scenes/045a.jpg,stimuli/scenes/045b.jpg,stimuli/scenes/045a.jpg,stimuli/scenes/112b.jpg,stimuli/scenes/112a.jpg,lure,target,dist2,dist1,0,1,1,1,0,15,15,57,,,,,,,,,,,772.0249187648296,773.0540012847632,773.0540012847632,773.0540012847632,773.0540012847632,None,,,,,,,,,,,,,,,,,,,,,,,,,,,,,,student1,2022-10-21_14h14.29.763,Hippopolis_Learning,2022.2.2,59.852424842396424,
