CityName,StimuliFile,CityImage,StreetSign,Cue,Image,Category,Novelty,UpdateImage,TestImage1,TestImage2,TestImage3,TestImage4,TestImage1Type,TestImage2Type,TestImage3Type,TestImage4Type,CityBlock.thisRepN,CityBlock.thisTrialN,CityBlock.thisN,CityBlock.thisIndex,LearningTrials.thisRepN,LearningTrials.thisTrialN,LearningTrials.thisN,LearningTrials.thisIndex,learning_instructions_text.started,learning_instructions_text.stopped,intro_key.keys,intro_key.rt,intro_key.started,intro_key.stopped,cityname_text.started,cityname_text.stopped,city_image.started,city_image.stopped,fx_cross.started,fx_cross.stopped,plate.started,plate.stopped,city_text.started,city_text.stopped,street_text.started,street_text.stopped,fx_cross_prediction.started,fx_cross_prediction.stopped,plate_updating.started,plate_updating.stopped,city_text_updating.started,city_text_updating.stopped,street_text_updating.started,street_text_updating.stopped,updating_image.started,updating_image.stopped,short_break_text.started,short_break_text.stopped,short_break_key.keys,short_break_key.started,short_break_key.stopped,short_break_key.rt,break_text.started,break_text.stopped,break_key_resp.keys,break_key_resp.rt,break_key_resp.started,break_key_resp.stopped,end_text.started,end_text.stopped,participant,date,expName,psychopyVersion,frameRate,
,,,,,,,,,,,,,,,,,,,,,,,,,76.3237792000873,None,space,14.383805899997242,76.3237792000873,None,,,,,,,,,,,,,,,,,,,,,,,,,,,,,,,,,,,,,student1,2022-10-25_13h56.02.171,Hippopolis_Updating,2021.1.4,60.045418350767946,
Hippopolis,stimuli/subj_files/student1_cityA.csv,./stimuli/frankfurt.jpg,./stimuli/street_plate1.png,FOGAS UTCA,stimuli/scenes/025a.jpg,scene,1,stimuli/scenes/018a.jpg,stimuli/scenes/018b.jpg,stimuli/scenes/064a.jpg,stimuli/scenes/018a.jpg,stimuli/scenes/064b.jpg,lure,dist1,target,dist2,0,0,0,0,0,0,0,38,,,,,,,90.82270510005765,None,90.82270510005765,None,93.73652520007454,None,94.77896820008755,None,94.77896820008755,None,94.77896820008755,None,94.77896820008755,None,97.7600871999748,None,97.7600871999748,None,97.7600871999748,None,97.7600871999748,None,None,None,None,None,None,,,,,,,,,,student1,2022-10-25_13h56.02.171,Hippopolis_Updating,2021.1.4,60.045418350767946,
Hippopolis,stimuli/subj_files/student1_cityA.csv,./stimuli/frankfurt.jpg,./stimuli/street_plate1.png,KULLANCS UTCA,stimuli/objects/089a.jpg,object,0,stimuli/objects/089a.jpg,stimuli/scenes/072a.jpg,stimuli/objects/089a.jpg,stimuli/scenes/072b.jpg,stimuli/objects/089b.jpg,dist1,target,dist2,lure,0,0,0,0,0,1,1,34,,,,,,,,,,,99.74860080005601,None,100.75351950002369,None,100.75351950002369,None,100.75351950002369,None,100.75351950002369,None,103.77910170005634,None,103.77910170005634,None,103.77910170005634,None,103.77910170005634,None,None,None,None,None,None,,,,,,,,,,student1,2022-10-25_13h56.02.171,Hippopolis_Updating,2021.1.4,60.045418350767946,
Hippopolis,stimuli/subj_files/student1_cityA.csv,./stimuli/frankfurt.jpg,./stimuli/street_plate1.png,RÓZSA UTCA,stimuli/objects/091a.jpg,object,0,stimuli/objects/091a.jpg,stimuli/objects/091b.jpg,stimuli/objects/078b.jpg,stimuli/objects/078a.jpg,stimuli/objects/091a.jpg,lure,dist2,dist1,target,0,0,0,0,0,2,2,45,,,,,,,,,,,105.76552110002376,None,106.76572310004849,None,106.76572310004849,None,106.76572310004849,None,106.76572310004849,None,109.76579229999334,None,109.76579229999334,None,109.76579229999334,None,109.76579229999334,None,None,None,None,None,None,,,,,,,,,,student1,2022-10-25_13h56.02.171,Hippopolis_Updating,2021.1.4,60.045418350767946,
Hippopolis,stimuli/subj_files/student1_cityA.csv,./stimuli/frankfurt.jpg,./stimuli/street_plate1.png,KERÉK UTCA,stimuli/scenes/096a.jpg,scene,1,stimuli/scenes/041a.jpg,stimuli/scenes/117a.jpg,stimuli/scenes/041b.jpg,stimuli/scenes/041a.jpg,stimuli/scenes/117b.jpg,dist1,lure,target,dist2,0,0,0,0,0,3,3,20,,,,,,,,,,,111.76515320001636,None,112.7668153999839,None,112.7668153999839,None,112.7668153999839,None,112.7668153999839,None,115.79301360005047,None,115.79301360005047,None,115.79301360005047,None,115.79301360005047,None,None,None,None,None,None,,,,,,,,,,student1,2022-10-25_13h56.02.171,Hippopolis_Updating,2021.1.4,60.045418350767946,
Hippopolis,stimuli/subj_files/student1_cityA.csv,./stimuli/frankfurt.jpg,./stimuli/street_plate1.png,SIVATAG UTCA,stimuli/scenes/016a.jpg,scene,2,stimuli/objects/046a.jpg,stimuli/objects/046b.jpg,stimuli/objects/006a.jpg,stimuli/objects/006b.jpg,stimuli/objects/046a.jpg,lure,dist1,dist2,target,0,0,0,0,0,4,4,23,,,,,,,,,,,117.78201289998833,None,118.78540420008358,None,118.78540420008358,None,118.78540420008358,None,118.78540420008358,None,121.80690490000416,None,121.80690490000416,None,121.80690490000416,None,121.80690490000416,None,None,None,None,None,None,,,,,,,,,,student1,2022-10-25_13h56.02.171,Hippopolis_Updating,2021.1.4,60.045418350767946,
Hippopolis,stimuli/subj_files/student1_cityA.csv,./stimuli/frankfurt.jpg,./stimuli/street_plate1.png,ZSEMLE UTCA,stimuli/objects/115a.jpg,object,1,stimuli/objects/053a.jpg,stimuli/objects/007a.jpg,stimuli/objects/053a.jpg,stimuli/objects/007b.jpg,stimuli/objects/053b.jpg,dist1,target,dist2,lure,0,0,0,0,0,5,5,47,,,,,,,,,,,123.79866660002153,None,124.80010920006316,None,124.80010920006316,None,124.80010920006316,None,124.80010920006316,None,127.8261173000792,None,127.8261173000792,None,127.8261173000792,None,127.8261173000792,None,None,None,None,None,None,,,,,,,,,,student1,2022-10-25_13h56.02.171,Hippopolis_Updating,2021.1.4,60.045418350767946,
Hippopolis,stimuli/subj_files/student1_cityA.csv,./stimuli/frankfurt.jpg,./stimuli/street_plate1.png,KÖTÉL UTCA,stimuli/objects/051a.jpg,object,0,stimuli/objects/051a.jpg,stimuli/scenes/024b.jpg,stimuli/objects/051b.jpg,stimuli/scenes/024a.jpg,stimuli/objects/051a.jpg,dist2,lure,dist1,target,0,0,0,0,0,6,6,7,,,,,,,,,,,129.81460849998984,None,130.8171253000619,None,130.8171253000619,None,130.8171253000619,None,130.8171253000619,None,133.83737930003554,None,133.83737930003554,None,133.83737930003554,None,133.83737930003554,None,None,None,None,None,None,,,,,,,,,,student1,2022-10-25_13h56.02.171,Hippopolis_Updating,2021.1.4,60.045418350767946,
Hippopolis,stimuli/subj_files/student1_cityA.csv,./stimuli/frankfurt.jpg,./stimuli/street_plate1.png,TALICSKA UTCA,stimuli/objects/014a.jpg,object,1,stimuli/objects/108a.jpg,stimuli/objects/109a.jpg,stimuli/objects/109b.jpg,stimuli/objects/108a.jpg,stimuli/objects/108b.jpg,dist1,dist2,target,lure,0,0,0,0,0,7,7,13,,,,,,,,,,,135.83154759998433,None,136.8317071000347,None,136.8317071000347,None,136.8317071000347,None,136.8317071000347,None,139.8403320000507,None,139.8403320000507,None,139.8403320000507,None,139.8403320000507,None,None,None,None,None,None,,,,,,,,,,student1,2022-10-25_13h56.02.171,Hippopolis_Updating,2021.1.4,60.045418350767946,
Hippopolis,stimuli/subj_files/student1_cityA.csv,./stimuli/frankfurt.jpg,./stimuli/street_plate1.png,OROSZLÁN UTCA,stimuli/scenes/072a.jpg,scene,0,stimuli/scenes/072a.jpg,stimuli/scenes/072a.jpg,stimuli/scenes/072b.jpg,stimuli/scenes/027b.jpg,stimuli/scenes/027a.jpg,target,lure,dist2,dist1,0,0,0,0,0,8,8,66,,,,,,,,,,,141.8476961000124,None,142.85053830000106,None,142.85053830000106,None,142.85053830000106,None,142.85053830000106,None,145.86766780004837,None,145.86766780004837,None,145.86766780004837,None,145.86766780004837,None,None,None,None,None,None,,,,,,,,,,student1,2022-10-25_13h56.02.171,Hippopolis_Updating,2021.1.4,60.045418350767946,
Hippopolis,stimuli/subj_files/student1_cityA.csv,./stimuli/frankfurt.jpg,./stimuli/street_plate1.png,KOKTÉL UTCA,stimuli/scenes/008a.jpg,scene,2,stimuli/objects/012a.jpg,stimuli/objects/036b.jpg,stimuli/objects/012b.jpg,stimuli/objects/036a.jpg,stimuli/objects/012a.jpg,dist2,lure,dist1,target,0,0,0,0,0,9,9,46,,,,,,,,,,,147.86456280003767,None,148.86426740000024,None,148.86426740000024,None,148.86426740000024,None,148.86426740000024,None,151.87451120000333,None,151.87451120000333,None,151.87451120000333,None,151.87451120000333,None,None,None,None,None,None,,,,,,,,,,student1,2022-10-25_13h56.02.171,Hippopolis_Updating,2021.1.4,60.045418350767946,
Hippopolis,stimuli/subj_files/student1_cityA.csv,./stimuli/frankfurt.jpg,./stimuli/street_plate1.png,MÁLNA UTCA,stimuli/objects/069a.jpg,object,2,stimuli/scenes/053a.jpg,stimuli/objects/073a.jpg,stimuli/objects/073b.jpg,stimuli/scenes/053b.jpg,stimuli/scenes/053a.jpg,dist1,dist2,lure,target,0,0,0,0,0,10,10,14,,,,,,,,,,,153.88129290007055,None,154.88175399997272,None,154.88175399997272,None,154.88175399997272,None,154.88175399997272,None,157.8901320999721,None,157.8901320999721,None,157.8901320999721,None,157.8901320999721,None,None,None,None,None,None,,,,,,,,,,student1,2022-10-25_13h56.02.171,Hippopolis_Updating,2021.1.4,60.045418350767946,
Hippopolis,stimuli/subj_files/student1_cityA.csv,./stimuli/frankfurt.jpg,./stimuli/street_plate1.png,NARANCS UTCA,stimuli/objects/017a.jpg,object,1,stimuli/objects/075a.jpg,stimuli/objects/075a.jpg,stimuli/scenes/041b.jpg,stimuli/scenes/041a.jpg,stimuli/objects/075b.jpg,target,dist2,dist1,lure,0,0,0,0,0,11,11,76,,,,,,,,,,,159.89791820000391,None,160.8981908999849,None,160.8981908999849,None,160.8981908999849,None,160.8981908999849,None,163.8995436000405,None,163.8995436000405,None,163.8995436000405,None,163.8995436000405,None,None,None,None,None,None,,,,,,,,,,student1,2022-10-25_13h56.02.171,Hippopolis_Updating,2021.1.4,60.045418350767946,
Hippopolis,stimuli/subj_files/student1_cityA.csv,./stimuli/frankfurt.jpg,./stimuli/street_plate1.png,KAKAS UTCA,stimuli/objects/002a.jpg,object,2,stimuli/scenes/074a.jpg,stimuli/scenes/074b.jpg,stimuli/scenes/074a.jpg,stimuli/scenes/070a.jpg,stimuli/scenes/070b.jpg,lure,target,dist1,dist2,0,0,0,0,0,12,12,24,,,,,,,,,,,165.9145872000372,None,166.91448200005107,None,166.91448200005107,None,166.91448200005107,None,166.91448200005107,None,169.92402510007378,None,169.92402510007378,None,169.92402510007378,None,169.92402510007378,None,None,None,None,None,None,,,,,,,,,,student1,2022-10-25_13h56.02.171,Hippopolis_Updating,2021.1.4,60.045418350767946,
Hippopolis,stimuli/subj_files/student1_cityA.csv,./stimuli/frankfurt.jpg,./stimuli/street_plate1.png,HERNYÓ UTCA,stimuli/scenes/066a.jpg,scene,1,stimuli/scenes/037a.jpg,stimuli/scenes/037a.jpg,stimuli/objects/045b.jpg,stimuli/scenes/037b.jpg,stimuli/objects/045a.jpg,target,dist2,lure,dist1,0,0,0,0,0,13,13,5,,,,,,,,,,,171.93062660004944,None,172.9353293000022,None,172.9353293000022,None,172.9353293000022,None,172.9353293000022,None,175.95393000007607,None,175.95393000007607,None,175.95393000007607,None,175.95393000007607,None,None,None,None,None,None,,,,,,,,,,student1,2022-10-25_13h56.02.171,Hippopolis_Updating,2021.1.4,60.045418350767946,
Hippopolis,stimuli/subj_files/student1_cityA.csv,./stimuli/frankfurt.jpg,./stimuli/street_plate1.png,VÖDÖR UTCA,stimuli/scenes/055a.jpg,scene,1,stimuli/scenes/088a.jpg,stimuli/scenes/088b.jpg,stimuli/scenes/088a.jpg,stimuli/scenes/087b.jpg,stimuli/scenes/087a.jpg,lure,target,dist2,dist1,0,0,0,0,0,14,14,56,,,,,,,,,,,177.94727540004533,None,178.94990420003887,None,178.94990420003887,None,178.94990420003887,None,178.94990420003887,None,181.97107109997887,None,181.97107109997887,None,181.97107109997887,None,181.97107109997887,None,None,None,None,None,None,,,,,,,,,,student1,2022-10-25_13h56.02.171,Hippopolis_Updating,2021.1.4,60.045418350767946,
Hippopolis,stimuli/subj_files/student1_cityA.csv,./stimuli/frankfurt.jpg,./stimuli/street_plate1.png,PÁLMAFA UTCA,stimuli/objects/090a.jpg,object,1,stimuli/objects/007a.jpg,stimuli/objects/053a.jpg,stimuli/objects/007a.jpg,stimuli/objects/053b.jpg,stimuli/objects/007b.jpg,dist1,target,dist2,lure,0,0,0,0,0,15,15,12,,,,,,,,,,,183.96378180000465,None,184.96458590007387,None,184.96458590007387,None,184.96458590007387,None,184.96458590007387,None,187.9846334999893,None,187.9846334999893,None,187.9846334999893,None,187.9846334999893,None,None,None,None,None,None,,,,,,,,,,student1,2022-10-25_13h56.02.171,Hippopolis_Updating,2021.1.4,60.045418350767946,
Hippopolis,stimuli/subj_files/student1_cityA.csv,./stimuli/frankfurt.jpg,./stimuli/street_plate1.png,ÁLOM UTCA,stimuli/objects/070a.jpg,object,0,stimuli/objects/070a.jpg,stimuli/objects/070b.jpg,stimuli/objects/114b.jpg,stimuli/objects/114a.jpg,stimuli/objects/070a.jpg,lure,dist2,dist1,target,0,0,0,0,0,16,16,50,,,,,,,,,,,189.98077480006032,None,190.98269880004227,None,190.98269880004227,None,190.98269880004227,None,190.98269880004227,None,193.9973571000155,None,193.9973571000155,None,193.9973571000155,None,193.9973571000155,None,None,None,None,None,None,,,,,,,,,,student1,2022-10-25_13h56.02.171,Hippopolis_Updating,2021.1.4,60.045418350767946,
Hippopolis,stimuli/subj_files/student1_cityA.csv,./stimuli/frankfurt.jpg,./stimuli/street_plate1.png,KÖNYVTÁR UTCA,stimuli/objects/113a.jpg,object,1,stimuli/objects/109a.jpg,stimuli/objects/109a.jpg,stimuli/objects/109b.jpg,stimuli/scenes/067a.jpg,stimuli/scenes/067b.jpg,target,lure,dist1,dist2,0,0,0,0,0,17,17,42,,,,,,,,,,,195.9974913999904,None,196.99718850001227,None,196.99718850001227,None,196.99718850001227,None,196.99718850001227,None,200.0176586000016,None,200.0176586000016,None,200.0176586000016,None,200.0176586000016,None,None,None,None,None,None,,,,,,,,,,student1,2022-10-25_13h56.02.171,Hippopolis_Updating,2021.1.4,60.045418350767946,
Hippopolis,stimuli/subj_files/student1_cityA.csv,./stimuli/frankfurt.jpg,./stimuli/street_plate1.png,ÁRNYÉK UTCA,stimuli/objects/020a.jpg,object,1,stimuli/objects/027a.jpg,stimuli/scenes/004a.jpg,stimuli/objects/027b.jpg,stimuli/objects/027a.jpg,stimuli/scenes/004b.jpg,dist1,lure,target,dist2,0,0,0,0,0,18,18,52,,,,,,,,,,,202.01370280003175,None,203.01466390001588,None,203.01466390001588,None,203.01466390001588,None,203.01466390001588,None,206.0329535000492,None,206.0329535000492,None,206.0329535000492,None,206.0329535000492,None,None,None,None,None,None,,,,,,,,,,student1,2022-10-25_13h56.02.171,Hippopolis_Updating,2021.1.4,60.045418350767946,
Hippopolis,stimuli/subj_files/student1_cityA.csv,./stimuli/frankfurt.jpg,./stimuli/street_plate1.png,BONBON UTCA,stimuli/objects/095a.jpg,object,2,stimuli/scenes/007a.jpg,stimuli/objects/028b.jpg,stimuli/objects/028a.jpg,stimuli/scenes/007a.jpg,stimuli/scenes/007b.jpg,dist2,dist1,target,lure,0,0,0,0,0,19,19,72,,,,,,,,,,,208.03052310005296,None,209.0334898000583,None,209.0334898000583,None,209.0334898000583,None,209.0334898000583,None,212.05507580004632,None,212.05507580004632,None,212.05507580004632,None,212.05507580004632,None,None,None,None,None,None,,,,,,,,,,student1,2022-10-25_13h56.02.171,Hippopolis_Updating,2021.1.4,60.045418350767946,
Hippopolis,stimuli/subj_files/student1_cityA.csv,./stimuli/frankfurt.jpg,./stimuli/street_plate1.png,EGÉR UTCA,stimuli/scenes/071a.jpg,scene,1,stimuli/scenes/116a.jpg,stimuli/scenes/116b.jpg,stimuli/scenes/116a.jpg,stimuli/scenes/009b.jpg,stimuli/scenes/009a.jpg,lure,target,dist2,dist1,0,0,0,0,0,20,20,29,,,,,,,,,,,214.04642849997617,None,215.04698049998842,None,215.04698049998842,None,215.04698049998842,None,215.04698049998842,None,218.06648939999286,None,218.06648939999286,None,218.06648939999286,None,218.06648939999286,None,None,None,None,None,None,,,,,,,,,,student1,2022-10-25_13h56.02.171,Hippopolis_Updating,2021.1.4,60.045418350767946,
Hippopolis,stimuli/subj_files/student1_cityA.csv,./stimuli/frankfurt.jpg,./stimuli/street_plate1.png,KECSKE UTCA,stimuli/scenes/085a.jpg,scene,2,stimuli/objects/022a.jpg,stimuli/objects/022b.jpg,stimuli/objects/022a.jpg,stimuli/scenes/053a.jpg,stimuli/scenes/053b.jpg,lure,target,dist1,dist2,0,0,0,0,0,21,21,6,,,,,,,,,,,220.06377990008332,None,221.06419479998294,None,221.06419479998294,None,221.06419479998294,None,221.06419479998294,None,224.07149370003026,None,224.07149370003026,None,224.07149370003026,None,224.07149370003026,None,None,None,None,None,None,,,,,,,,,,student1,2022-10-25_13h56.02.171,Hippopolis_Updating,2021.1.4,60.045418350767946,
Hippopolis,stimuli/subj_files/student1_cityA.csv,./stimuli/frankfurt.jpg,./stimuli/street_plate1.png,RÁDIÓ UTCA,stimuli/scenes/068a.jpg,scene,1,stimuli/scenes/067a.jpg,stimuli/scenes/018b.jpg,stimuli/scenes/067a.jpg,stimuli/scenes/067b.jpg,stimuli/scenes/018a.jpg,dist2,target,lure,dist1,0,0,0,0,0,22,22,44,,,,,,,,,,,226.0803714999929,None,227.0801943000406,None,227.0801943000406,None,227.0801943000406,None,227.0801943000406,None,230.08579989999998,None,230.08579989999998,None,230.08579989999998,None,230.08579989999998,None,None,None,None,None,None,,,,,,,,,,student1,2022-10-25_13h56.02.171,Hippopolis_Updating,2021.1.4,60.045418350767946,
Hippopolis,stimuli/subj_files/student1_cityA.csv,./stimuli/frankfurt.jpg,./stimuli/street_plate1.png,HEGEDŰ UTCA,stimuli/scenes/113a.jpg,scene,2,stimuli/objects/036a.jpg,stimuli/objects/036b.jpg,stimuli/scenes/059b.jpg,stimuli/scenes/059a.jpg,stimuli/objects/036a.jpg,lure,dist2,dist1,target,0,0,0,0,0,23,23,69,,,,,,,,,,,232.0962535000872,None,233.10081850003917,None,233.10081850003917,None,233.10081850003917,None,233.10081850003917,None,236.1323076999979,None,236.1323076999979,None,236.1323076999979,None,236.1323076999979,None,None,None,None,None,None,,,,,,,,,,student1,2022-10-25_13h56.02.171,Hippopolis_Updating,2021.1.4,60.045418350767946,
Hippopolis,stimuli/subj_files/student1_cityA.csv,./stimuli/frankfurt.jpg,./stimuli/street_plate1.png,KARTON UTCA,stimuli/objects/101a.jpg,object,2,stimuli/scenes/044a.jpg,stimuli/scenes/074a.jpg,stimuli/scenes/044b.jpg,stimuli/scenes/044a.jpg,stimuli/scenes/074b.jpg,dist1,lure,target,dist2,0,0,0,0,0,24,24,8,,,,,,,,,,,238.11351960001048,None,239.11378870008048,None,239.11378870008048,None,239.11378870008048,None,239.11378870008048,None,242.1201511999825,None,242.1201511999825,None,242.1201511999825,None,242.1201511999825,None,None,None,None,None,None,,,,,,,,,,student1,2022-10-25_13h56.02.171,Hippopolis_Updating,2021.1.4,60.045418350767946,
Hippopolis,stimuli/subj_files/student1_cityA.csv,./stimuli/frankfurt.jpg,./stimuli/street_plate1.png,DOMINÓ UTCA,stimuli/scenes/042a.jpg,scene,0,stimuli/scenes/042a.jpg,stimuli/scenes/042a.jpg,stimuli/scenes/042b.jpg,stimuli/objects/070a.jpg,stimuli/objects/070b.jpg,target,lure,dist1,dist2,0,0,0,0,0,25,25,63,,,,,,,,,,,244.13000390003435,None,245.1302861000877,None,245.1302861000877,None,245.1302861000877,None,245.1302861000877,None,248.13313780003227,None,248.13313780003227,None,248.13313780003227,None,248.13313780003227,None,None,None,None,None,None,,,,,,,,,,student1,2022-10-25_13h56.02.171,Hippopolis_Updating,2021.1.4,60.045418350767946,
Hippopolis,stimuli/subj_files/student1_cityA.csv,./stimuli/frankfurt.jpg,./stimuli/street_plate1.png,POGÁCSA UTCA,stimuli/scenes/046a.jpg,scene,0,stimuli/scenes/046a.jpg,stimuli/scenes/042a.jpg,stimuli/scenes/046a.jpg,stimuli/scenes/046b.jpg,stimuli/scenes/042b.jpg,dist1,target,lure,dist2,0,0,0,0,0,26,26,49,,,,,,,,,,,250.14647749997675,None,251.14830070000608,None,251.14830070000608,None,251.14830070000608,None,251.14830070000608,None,254.16723880008794,None,254.16723880008794,None,254.16723880008794,None,254.16723880008794,None,None,None,None,None,None,,,,,,,,,,student1,2022-10-25_13h56.02.171,Hippopolis_Updating,2021.1.4,60.045418350767946,
Hippopolis,stimuli/subj_files/student1_cityA.csv,./stimuli/frankfurt.jpg,./stimuli/street_plate1.png,PADLÓ UTCA,stimuli/objects/100a.jpg,object,0,stimuli/objects/100a.jpg,stimuli/scenes/058a.jpg,stimuli/scenes/058b.jpg,stimuli/objects/100a.jpg,stimuli/objects/100b.jpg,dist1,dist2,target,lure,0,0,0,0,0,27,27,59,,,,,,,,,,,256.1626354000764,None,257.16536330000963,None,257.16536330000963,None,257.16536330000963,None,257.16536330000963,None,260.1905525000766,None,260.1905525000766,None,260.1905525000766,None,260.1905525000766,None,None,None,None,None,None,,,,,,,,,,student1,2022-10-25_13h56.02.171,Hippopolis_Updating,2021.1.4,60.045418350767946,
Hippopolis,stimuli/subj_files/student1_cityA.csv,./stimuli/frankfurt.jpg,./stimuli/street_plate1.png,AJÁNDÉK UTCA,stimuli/scenes/005a.jpg,scene,1,stimuli/scenes/009a.jpg,stimuli/scenes/078b.jpg,stimuli/scenes/078a.jpg,stimuli/scenes/009a.jpg,stimuli/scenes/009b.jpg,dist2,dist1,target,lure,0,0,0,0,0,28,28,28,,,,,,,,,,,262.17967960005626,None,263.19095670001116,None,263.19095670001116,None,263.19095670001116,None,263.19095670001116,None,266.20788880006876,None,266.20788880006876,None,266.20788880006876,None,266.20788880006876,None,None,None,None,None,None,,,,,,,,,,student1,2022-10-25_13h56.02.171,Hippopolis_Updating,2021.1.4,60.045418350767946,
Hippopolis,stimuli/subj_files/student1_cityA.csv,./stimuli/frankfurt.jpg,./stimuli/street_plate1.png,HORDÓ UTCA,stimuli/scenes/095a.jpg,scene,0,stimuli/scenes/095a.jpg,stimuli/scenes/095a.jpg,stimuli/scenes/046a.jpg,stimuli/scenes/095b.jpg,stimuli/scenes/046b.jpg,target,dist1,lure,dist2,0,0,0,0,0,29,29,27,,,,,,,,,,,268.195753899985,None,269.19596330006607,None,269.19596330006607,None,269.19596330006607,None,269.19596330006607,None,272.2003237999743,None,272.2003237999743,None,272.2003237999743,None,272.2003237999743,None,None,None,None,None,None,,,,,,,,,,student1,2022-10-25_13h56.02.171,Hippopolis_Updating,2021.1.4,60.045418350767946,
Hippopolis,stimuli/subj_files/student1_cityA.csv,./stimuli/frankfurt.jpg,./stimuli/street_plate1.png,KIRAKÓ UTCA,stimuli/objects/079a.jpg,object,2,stimuli/scenes/070a.jpg,stimuli/scenes/070a.jpg,stimuli/scenes/070b.jpg,stimuli/objects/043b.jpg,stimuli/objects/043a.jpg,target,lure,dist2,dist1,0,0,0,0,0,30,30,57,,,,,,,,,,,274.21288380003534,None,275.21272910002153,None,275.21272910002153,None,275.21272910002153,None,275.21272910002153,None,278.220410500071,None,278.220410500071,None,278.220410500071,None,278.220410500071,None,None,None,None,None,None,,,,,,,,,,student1,2022-10-25_13h56.02.171,Hippopolis_Updating,2021.1.4,60.045418350767946,
Hippopolis,stimuli/subj_files/student1_cityA.csv,./stimuli/frankfurt.jpg,./stimuli/street_plate1.png,CSAVAR UTCA,stimuli/objects/078a.jpg,object,0,stimuli/objects/078a.jpg,stimuli/objects/078b.jpg,stimuli/objects/024b.jpg,stimuli/objects/078a.jpg,stimuli/objects/024a.jpg,lure,dist2,target,dist1,0,0,0,0,0,31,31,10,,,,,,,,,,,280.22885000007227,None,281.22953750006855,None,281.22953750006855,None,281.22953750006855,None,281.22953750006855,None,284.23123370006215,None,284.23123370006215,None,284.23123370006215,None,284.23123370006215,None,None,None,None,None,None,,,,,,,,,,student1,2022-10-25_13h56.02.171,Hippopolis_Updating,2021.1.4,60.045418350767946,
Hippopolis,stimuli/subj_files/student1_cityA.csv,./stimuli/frankfurt.jpg,./stimuli/street_plate1.png,KERET UTCA,stimuli/scenes/027a.jpg,scene,0,stimuli/scenes/027a.jpg,stimuli/objects/100a.jpg,stimuli/objects/100b.jpg,stimuli/scenes/027a.jpg,stimuli/scenes/027b.jpg,dist1,dist2,target,lure,0,0,0,0,0,32,32,3,,,,,,,,,,,286.24512390000746,None,287.2463486000197,None,287.2463486000197,None,287.2463486000197,None,287.2463486000197,None,290.24776090006344,None,290.24776090006344,None,290.24776090006344,None,290.24776090006344,None,None,None,None,None,None,,,,,,,,,,student1,2022-10-25_13h56.02.171,Hippopolis_Updating,2021.1.4,60.045418350767946,
Hippopolis,stimuli/subj_files/student1_cityA.csv,./stimuli/frankfurt.jpg,./stimuli/street_plate1.png,LAKAT UTCA,stimuli/objects/066a.jpg,object,2,stimuli/scenes/084a.jpg,stimuli/scenes/084b.jpg,stimuli/scenes/034a.jpg,stimuli/scenes/084a.jpg,stimuli/scenes/034b.jpg,lure,dist1,target,dist2,0,0,0,0,0,33,33,58,,,,,,,,,,,292.2624278999865,None,293.26244900003076,None,293.26244900003076,None,293.26244900003076,None,293.26244900003076,None,296.2698190000374,None,296.2698190000374,None,296.2698190000374,None,296.2698190000374,None,None,None,None,None,None,,,,,,,,,,student1,2022-10-25_13h56.02.171,Hippopolis_Updating,2021.1.4,60.045418350767946,
Hippopolis,stimuli/subj_files/student1_cityA.csv,./stimuli/frankfurt.jpg,./stimuli/street_plate1.png,KÖTÉNY UTCA,stimuli/scenes/031a.jpg,scene,1,stimuli/scenes/064a.jpg,stimuli/objects/103a.jpg,stimuli/objects/103b.jpg,stimuli/scenes/064b.jpg,stimuli/scenes/064a.jpg,dist1,dist2,lure,target,0,0,0,0,0,34,34,22,,,,,,,,,,,298.2784649999812,None,299.27882300002966,None,299.27882300002966,None,299.27882300002966,None,299.27882300002966,None,302.29689510003664,None,302.29689510003664,None,302.29689510003664,None,302.29689510003664,None,None,None,None,None,None,,,,,,,,,,student1,2022-10-25_13h56.02.171,Hippopolis_Updating,2021.1.4,60.045418350767946,
Hippopolis,stimuli/subj_files/student1_cityA.csv,./stimuli/frankfurt.jpg,./stimuli/street_plate1.png,PÁFRÁNY UTCA,stimuli/scenes/101a.jpg,scene,0,stimuli/scenes/101a.jpg,stimuli/scenes/101a.jpg,stimuli/scenes/101b.jpg,stimuli/objects/051a.jpg,stimuli/objects/051b.jpg,target,lure,dist1,dist2,0,0,0,0,0,35,35,0,,,,,,,,,,,304.2949501000112,None,305.2956306000706,None,305.2956306000706,None,305.2956306000706,None,305.2956306000706,None,308.3038415000774,None,308.3038415000774,None,308.3038415000774,None,308.3038415000774,None,None,None,None,None,None,,,,,,,,,,student1,2022-10-25_13h56.02.171,Hippopolis_Updating,2021.1.4,60.045418350767946,
Hippopolis,stimuli/subj_files/student1_cityA.csv,./stimuli/frankfurt.jpg,./stimuli/street_plate1.png,HAJÓ UTCA,stimuli/objects/086a.jpg,object,1,stimuli/objects/041a.jpg,stimuli/scenes/014a.jpg,stimuli/scenes/014b.jpg,stimuli/objects/041a.jpg,stimuli/objects/041b.jpg,dist1,dist2,target,lure,0,0,0,0,0,36,36,71,,,,,,,,,,,310.31228020007256,None,311.3125913999975,None,311.3125913999975,None,311.3125913999975,None,311.3125913999975,None,314.3348159000743,None,314.3348159000743,None,314.3348159000743,None,314.3348159000743,None,None,None,None,None,None,,,,,,,,,,student1,2022-10-25_13h56.02.171,Hippopolis_Updating,2021.1.4,60.045418350767946,
Hippopolis,stimuli/subj_files/student1_cityA.csv,./stimuli/frankfurt.jpg,./stimuli/street_plate1.png,AKÁC UTCA,stimuli/scenes/081a.jpg,scene,2,stimuli/objects/055a.jpg,stimuli/objects/055b.jpg,stimuli/objects/107b.jpg,stimuli/objects/107a.jpg,stimuli/objects/055a.jpg,lure,dist2,dist1,target,0,0,0,0,0,37,37,74,,,,,,,,,,,316.3282965000253,None,317.32962059997953,None,317.32962059997953,None,317.32962059997953,None,317.32962059997953,None,320.34789279999677,None,320.34789279999677,None,320.34789279999677,None,320.34789279999677,None,None,None,None,None,None,,,,,,,,,,student1,2022-10-25_13h56.02.171,Hippopolis_Updating,2021.1.4,60.045418350767946,
Hippopolis,stimuli/subj_files/student1_cityA.csv,./stimuli/frankfurt.jpg,./stimuli/street_plate1.png,FIÓK UTCA,stimuli/scenes/002a.jpg,scene,1,stimuli/scenes/014a.jpg,stimuli/scenes/014a.jpg,stimuli/objects/004a.jpg,stimuli/objects/004b.jpg,stimuli/scenes/014b.jpg,target,dist1,dist2,lure,0,0,0,0,0,38,38,73,,,,,,,,,,,322.34472320007626,None,323.34547579998616,None,323.34547579998616,None,323.34547579998616,None,323.34547579998616,None,326.3534756000154,None,326.3534756000154,None,326.3534756000154,None,326.3534756000154,None,None,None,None,None,None,,,,,,,,,,student1,2022-10-25_13h56.02.171,Hippopolis_Updating,2021.1.4,60.045418350767946,
Hippopolis,stimuli/subj_files/student1_cityA.csv,./stimuli/frankfurt.jpg,./stimuli/street_plate1.png,MUNKA UTCA,stimuli/scenes/039a.jpg,scene,2,stimuli/objects/067a.jpg,stimuli/scenes/097a.jpg,stimuli/objects/067b.jpg,stimuli/objects/067a.jpg,stimuli/scenes/097b.jpg,dist1,lure,target,dist2,0,0,0,0,0,39,39,4,,,,,,,,,,,328.3613291999791,None,329.362432599999,None,329.362432599999,None,329.362432599999,None,329.362432599999,None,332.3643056000583,None,332.3643056000583,None,332.3643056000583,None,332.3643056000583,None,None,None,None,None,None,,,,,,,,,,student1,2022-10-25_13h56.02.171,Hippopolis_Updating,2021.1.4,60.045418350767946,
Hippopolis,stimuli/subj_files/student1_cityA.csv,./stimuli/frankfurt.jpg,./stimuli/street_plate1.png,VASALÓ UTCA,stimuli/objects/025a.jpg,object,2,stimuli/scenes/056a.jpg,stimuli/scenes/044a.jpg,stimuli/scenes/056b.jpg,stimuli/scenes/056a.jpg,stimuli/scenes/044b.jpg,dist1,lure,target,dist2,0,0,0,0,0,40,40,70,,,,,,,,,,,334.37801590003073,None,335.378618500079,None,335.378618500079,None,335.378618500079,None,335.378618500079,None,338.3890475999797,None,338.3890475999797,None,338.3890475999797,None,338.3890475999797,None,None,None,None,None,None,,,,,,,,,,student1,2022-10-25_13h56.02.171,Hippopolis_Updating,2021.1.4,60.045418350767946,
Hippopolis,stimuli/subj_files/student1_cityA.csv,./stimuli/frankfurt.jpg,./stimuli/street_plate1.png,TOLLTARTÓ UTCA,stimuli/objects/032a.jpg,object,2,stimuli/scenes/119a.jpg,stimuli/scenes/119a.jpg,stimuli/scenes/104b.jpg,stimuli/scenes/104a.jpg,stimuli/scenes/119b.jpg,target,dist2,dist1,lure,0,0,0,0,0,41,41,67,,,,,,,,,,,340.3945021000691,None,341.39612589997705,None,341.39612589997705,None,341.39612589997705,None,341.39612589997705,None,344.416039200034,None,344.416039200034,None,344.416039200034,None,344.416039200034,None,None,None,None,None,None,,,,,,,,,,student1,2022-10-25_13h56.02.171,Hippopolis_Updating,2021.1.4,60.045418350767946,
Hippopolis,stimuli/subj_files/student1_cityA.csv,./stimuli/frankfurt.jpg,./stimuli/street_plate1.png,KOCKA UTCA,stimuli/objects/062a.jpg,object,0,stimuli/objects/062a.jpg,stimuli/scenes/095b.jpg,stimuli/objects/062a.jpg,stimuli/objects/062b.jpg,stimuli/scenes/095a.jpg,dist2,target,lure,dist1,0,0,0,0,0,42,42,35,,,,,,,,,,,346.4112587000709,None,347.41137059999164,None,347.41137059999164,None,347.41137059999164,None,347.41137059999164,None,350.41158249997534,None,350.41158249997534,None,350.41158249997534,None,350.41158249997534,None,None,None,None,None,None,,,,,,,,,,student1,2022-10-25_13h56.02.171,Hippopolis_Updating,2021.1.4,60.045418350767946,
Hippopolis,stimuli/subj_files/student1_cityA.csv,./stimuli/frankfurt.jpg,./stimuli/street_plate1.png,PIZSAMA UTCA,stimuli/scenes/060a.jpg,scene,2,stimuli/objects/006a.jpg,stimuli/scenes/007b.jpg,stimuli/scenes/007a.jpg,stimuli/objects/006b.jpg,stimuli/objects/006a.jpg,dist2,dist1,lure,target,0,0,0,0,0,43,43,79,,,,,,,,,,,352.4111964000622,None,353.4113312000409,None,353.4113312000409,None,353.4113312000409,None,353.4113312000409,None,356.427765200031,None,356.427765200031,None,356.427765200031,None,356.427765200031,None,None,None,None,None,None,,,,,,,,,,student1,2022-10-25_13h56.02.171,Hippopolis_Updating,2021.1.4,60.045418350767946,
Hippopolis,stimuli/subj_files/student1_cityA.csv,./stimuli/frankfurt.jpg,./stimuli/street_plate1.png,TOJÁS UTCA,stimuli/objects/021a.jpg,object,2,stimuli/scenes/034a.jpg,stimuli/scenes/034a.jpg,stimuli/objects/059a.jpg,stimuli/objects/059b.jpg,stimuli/scenes/034b.jpg,target,dist1,dist2,lure,0,0,0,0,0,44,44,37,,,,,,,,,,,358.4278477000771,None,359.4299853000557,None,359.4299853000557,None,359.4299853000557,None,359.4299853000557,None,362.4610121999867,None,362.4610121999867,None,362.4610121999867,None,362.4610121999867,None,364.44455670006573,None,space,364.44455670006573,None,3.0016504999948665,,,,,,,,,student1,2022-10-25_13h56.02.171,Hippopolis_Updating,2021.1.4,60.045418350767946,
Hippopolis,stimuli/subj_files/student1_cityA.csv,./stimuli/frankfurt.jpg,./stimuli/street_plate1.png,CUKOR UTCA,stimuli/objects/111a.jpg,object,0,stimuli/objects/111a.jpg,stimuli/objects/089b.jpg,stimuli/objects/111b.jpg,stimuli/objects/111a.jpg,stimuli/objects/089a.jpg,dist2,lure,target,dist1,0,0,0,0,0,45,45,30,,,,,,,,,,,367.47730470006354,None,368.47763380000833,None,368.47763380000833,None,368.47763380000833,None,368.47763380000833,None,371.49191780004185,None,371.49191780004185,None,371.49191780004185,None,371.49191780004185,None,None,None,None,None,None,,,,,,,,,,student1,2022-10-25_13h56.02.171,Hippopolis_Updating,2021.1.4,60.045418350767946,
Hippopolis,stimuli/subj_files/student1_cityA.csv,./stimuli/frankfurt.jpg,./stimuli/street_plate1.png,SZOMSZÉD UTCA,stimuli/objects/026a.jpg,object,1,stimuli/objects/004a.jpg,stimuli/objects/027b.jpg,stimuli/objects/004b.jpg,stimuli/objects/004a.jpg,stimuli/objects/027a.jpg,dist2,lure,target,dist1,0,0,0,0,0,46,46,65,,,,,,,,,,,373.4940081000095,None,374.4942157000769,None,374.4942157000769,None,374.4942157000769,None,374.4942157000769,None,377.5129858000437,None,377.5129858000437,None,377.5129858000437,None,377.5129858000437,None,None,None,None,None,None,,,,,,,,,,student1,2022-10-25_13h56.02.171,Hippopolis_Updating,2021.1.4,60.045418350767946,
Hippopolis,stimuli/subj_files/student1_cityA.csv,./stimuli/frankfurt.jpg,./stimuli/street_plate1.png,CSILLAG UTCA,stimuli/scenes/083a.jpg,scene,1,stimuli/scenes/117a.jpg,stimuli/scenes/117a.jpg,stimuli/scenes/117b.jpg,stimuli/objects/041a.jpg,stimuli/objects/041b.jpg,target,lure,dist1,dist2,0,0,0,0,0,47,47,15,,,,,,,,,,,379.510397200007,None,380.5111627000151,None,380.5111627000151,None,380.5111627000151,None,380.5111627000151,None,383.52907060005236,None,383.52907060005236,None,383.52907060005236,None,383.52907060005236,None,None,None,None,None,None,,,,,,,,,,student1,2022-10-25_13h56.02.171,Hippopolis_Updating,2021.1.4,60.045418350767946,
Hippopolis,stimuli/subj_files/student1_cityA.csv,./stimuli/frankfurt.jpg,./stimuli/street_plate1.png,HARMONIKA UTCA,stimuli/scenes/024a.jpg,scene,0,stimuli/scenes/024a.jpg,stimuli/scenes/101b.jpg,stimuli/scenes/024b.jpg,stimuli/scenes/101a.jpg,stimuli/scenes/024a.jpg,dist2,lure,dist1,target,0,0,0,0,0,48,48,25,,,,,,,,,,,385.5275841000257,None,386.52779299998656,None,386.52779299998656,None,386.52779299998656,None,386.52779299998656,None,389.5279357000254,None,389.5279357000254,None,389.5279357000254,None,389.5279357000254,None,None,None,None,None,None,,,,,,,,,,student1,2022-10-25_13h56.02.171,Hippopolis_Updating,2021.1.4,60.045418350767946,
Hippopolis,stimuli/subj_files/student1_cityA.csv,./stimuli/frankfurt.jpg,./stimuli/street_plate1.png,KORONA UTCA,stimuli/scenes/108a.jpg,scene,1,stimuli/scenes/011a.jpg,stimuli/objects/076a.jpg,stimuli/scenes/011b.jpg,stimuli/objects/076b.jpg,stimuli/scenes/011a.jpg,dist1,lure,dist2,target,0,0,0,0,0,49,49,9,,,,,,,,,,,391.5275096000405,None,392.5275709000416,None,392.5275709000416,None,392.5275709000416,None,392.5275709000416,None,395.53651500004344,None,395.53651500004344,None,395.53651500004344,None,395.53651500004344,None,None,None,None,None,None,,,,,,,,,,student1,2022-10-25_13h56.02.171,Hippopolis_Updating,2021.1.4,60.045418350767946,
Hippopolis,stimuli/subj_files/student1_cityA.csv,./stimuli/frankfurt.jpg,./stimuli/street_plate1.png,TERASZ UTCA,stimuli/objects/063a.jpg,object,2,stimuli/scenes/104a.jpg,stimuli/scenes/104a.jpg,stimuli/scenes/056a.jpg,stimuli/scenes/104b.jpg,stimuli/scenes/056b.jpg,target,dist1,lure,dist2,0,0,0,0,0,50,50,48,,,,,,,,,,,397.54352700000163,None,398.5446909000166,None,398.5446909000166,None,398.5446909000166,None,398.5446909000166,None,401.5530252000317,None,401.5530252000317,None,401.5530252000317,None,401.5530252000317,None,None,None,None,None,None,,,,,,,,,,student1,2022-10-25_13h56.02.171,Hippopolis_Updating,2021.1.4,60.045418350767946,
Hippopolis,stimuli/subj_files/student1_cityA.csv,./stimuli/frankfurt.jpg,./stimuli/street_plate1.png,PETÁRDA UTCA,stimuli/objects/009a.jpg,object,0,stimuli/objects/009a.jpg,stimuli/objects/009a.jpg,stimuli/scenes/051a.jpg,stimuli/objects/009b.jpg,stimuli/scenes/051b.jpg,target,dist1,lure,dist2,0,0,0,0,0,51,51,64,,,,,,,,,,,403.5601083000656,None,404.56058270006906,None,404.56058270006906,None,404.56058270006906,None,404.56058270006906,None,407.57182589999866,None,407.57182589999866,None,407.57182589999866,None,407.57182589999866,None,None,None,None,None,None,,,,,,,,,,student1,2022-10-25_13h56.02.171,Hippopolis_Updating,2021.1.4,60.045418350767946,
Hippopolis,stimuli/subj_files/student1_cityA.csv,./stimuli/frankfurt.jpg,./stimuli/street_plate1.png,MUSTÁR UTCA,stimuli/scenes/050a.jpg,scene,0,stimuli/scenes/050a.jpg,stimuli/objects/009a.jpg,stimuli/objects/009b.jpg,stimuli/scenes/050a.jpg,stimuli/scenes/050b.jpg,dist1,dist2,target,lure,0,0,0,0,0,52,52,78,,,,,,,,,,,409.57718929997645,None,410.57739420002326,None,410.57739420002326,None,410.57739420002326,None,410.57739420002326,None,413.57989220006857,None,413.57989220006857,None,413.57989220006857,None,413.57989220006857,None,None,None,None,None,None,,,,,,,,,,student1,2022-10-25_13h56.02.171,Hippopolis_Updating,2021.1.4,60.045418350767946,
Hippopolis,stimuli/subj_files/student1_cityA.csv,./stimuli/frankfurt.jpg,./stimuli/street_plate1.png,PAPAGÁJ UTCA,stimuli/objects/093a.jpg,object,2,stimuli/scenes/097a.jpg,stimuli/scenes/097a.jpg,stimuli/scenes/109b.jpg,stimuli/scenes/109a.jpg,stimuli/scenes/097b.jpg,target,dist2,dist1,lure,0,0,0,0,0,53,53,55,,,,,,,,,,,415.59307479998097,None,416.5960102999816,None,416.5960102999816,None,416.5960102999816,None,416.5960102999816,None,419.6193395999726,None,419.6193395999726,None,419.6193395999726,None,419.6193395999726,None,None,None,None,None,None,,,,,,,,,,student1,2022-10-25_13h56.02.171,Hippopolis_Updating,2021.1.4,60.045418350767946,
Hippopolis,stimuli/subj_files/student1_cityA.csv,./stimuli/frankfurt.jpg,./stimuli/street_plate1.png,HEGESZTŐ UTCA,stimuli/scenes/043a.jpg,scene,0,stimuli/scenes/043a.jpg,stimuli/scenes/043b.jpg,stimuli/scenes/043a.jpg,stimuli/objects/062a.jpg,stimuli/objects/062b.jpg,lure,target,dist1,dist2,0,0,0,0,0,54,54,77,,,,,,,,,,,421.6105137000559,None,422.6149933000561,None,422.6149933000561,None,422.6149933000561,None,422.6149933000561,None,425.6304966000607,None,425.6304966000607,None,425.6304966000607,None,425.6304966000607,None,None,None,None,None,None,,,,,,,,,,student1,2022-10-25_13h56.02.171,Hippopolis_Updating,2021.1.4,60.045418350767946,
Hippopolis,stimuli/subj_files/student1_cityA.csv,./stimuli/frankfurt.jpg,./stimuli/street_plate1.png,TOBOZ UTCA,stimuli/objects/001a.jpg,object,2,stimuli/scenes/059a.jpg,stimuli/scenes/059a.jpg,stimuli/objects/085a.jpg,stimuli/objects/085b.jpg,stimuli/scenes/059b.jpg,target,dist1,dist2,lure,0,0,0,0,0,55,55,40,,,,,,,,,,,427.62698380008806,None,428.629057400045,None,428.629057400045,None,428.629057400045,None,428.629057400045,None,431.6533284999896,None,431.6533284999896,None,431.6533284999896,None,431.6533284999896,None,None,None,None,None,None,,,,,,,,,,student1,2022-10-25_13h56.02.171,Hippopolis_Updating,2021.1.4,60.045418350767946,
Hippopolis,stimuli/subj_files/student1_cityA.csv,./stimuli/frankfurt.jpg,./stimuli/street_plate1.png,PÉKSÉG UTCA,stimuli/scenes/073a.jpg,scene,2,stimuli/objects/059a.jpg,stimuli/objects/059a.jpg,stimuli/objects/046b.jpg,stimuli/objects/059b.jpg,stimuli/objects/046a.jpg,target,dist2,lure,dist1,0,0,0,0,0,56,56,61,,,,,,,,,,,433.64336059999187,None,434.64361140003894,None,434.64361140003894,None,434.64361140003894,None,434.64361140003894,None,437.660816000076,None,437.660816000076,None,437.660816000076,None,437.660816000076,None,None,None,None,None,None,,,,,,,,,,student1,2022-10-25_13h56.02.171,Hippopolis_Updating,2021.1.4,60.045418350767946,
Hippopolis,stimuli/subj_files/student1_cityA.csv,./stimuli/frankfurt.jpg,./stimuli/street_plate1.png,KÖMÉNYMAG UTCA,stimuli/objects/068a.jpg,object,1,stimuli/objects/045a.jpg,stimuli/objects/045a.jpg,stimuli/objects/045b.jpg,stimuli/objects/071a.jpg,stimuli/objects/071b.jpg,target,lure,dist1,dist2,0,0,0,0,0,57,57,18,,,,,,,,,,,439.6595581000438,None,440.66193150007166,None,440.66193150007166,None,440.66193150007166,None,440.66193150007166,None,443.6907062000828,None,443.6907062000828,None,443.6907062000828,None,443.6907062000828,None,None,None,None,None,None,,,,,,,,,,student1,2022-10-25_13h56.02.171,Hippopolis_Updating,2021.1.4,60.045418350767946,
Hippopolis,stimuli/subj_files/student1_cityA.csv,./stimuli/frankfurt.jpg,./stimuli/street_plate1.png,OLDAL UTCA,stimuli/scenes/093a.jpg,scene,2,stimuli/objects/107a.jpg,stimuli/objects/107b.jpg,stimuli/objects/022a.jpg,stimuli/objects/107a.jpg,stimuli/objects/022b.jpg,lure,dist1,target,dist2,0,0,0,0,0,58,58,11,,,,,,,,,,,445.6762019000016,None,446.6763795000734,None,446.6763795000734,None,446.6763795000734,None,446.6763795000734,None,449.6885155000491,None,449.6885155000491,None,449.6885155000491,None,449.6885155000491,None,None,None,None,None,None,,,,,,,,,,student1,2022-10-25_13h56.02.171,Hippopolis_Updating,2021.1.4,60.045418350767946,
Hippopolis,stimuli/subj_files/student1_cityA.csv,./stimuli/frankfurt.jpg,./stimuli/street_plate1.png,LÁNDZSA UTCA,stimuli/scenes/090a.jpg,scene,0,stimuli/scenes/090a.jpg,stimuli/scenes/090a.jpg,stimuli/objects/091b.jpg,stimuli/scenes/090b.jpg,stimuli/objects/091a.jpg,target,dist2,lure,dist1,0,0,0,0,0,59,59,39,,,,,,,,,,,451.6927935000276,None,452.6930735000642,None,452.6930735000642,None,452.6930735000642,None,452.6930735000642,None,455.6934451999841,None,455.6934451999841,None,455.6934451999841,None,455.6934451999841,None,None,None,None,None,None,,,,,,,,,,student1,2022-10-25_13h56.02.171,Hippopolis_Updating,2021.1.4,60.045418350767946,
Hippopolis,stimuli/subj_files/student1_cityA.csv,./stimuli/frankfurt.jpg,./stimuli/street_plate1.png,HÁRFA UTCA,stimuli/objects/083a.jpg,object,2,stimuli/scenes/028a.jpg,stimuli/scenes/028b.jpg,stimuli/objects/012b.jpg,stimuli/objects/012a.jpg,stimuli/scenes/028a.jpg,lure,dist2,dist1,target,0,0,0,0,0,60,60,16,,,,,,,,,,,457.692751100054,None,458.6963051999919,None,458.6963051999919,None,458.6963051999919,None,458.6963051999919,None,461.71435150003526,None,461.71435150003526,None,461.71435150003526,None,461.71435150003526,None,None,None,None,None,None,,,,,,,,,,student1,2022-10-25_13h56.02.171,Hippopolis_Updating,2021.1.4,60.045418350767946,
Hippopolis,stimuli/subj_files/student1_cityA.csv,./stimuli/frankfurt.jpg,./stimuli/street_plate1.png,BAGOLY UTCA,stimuli/scenes/029a.jpg,scene,2,stimuli/objects/028a.jpg,stimuli/objects/028b.jpg,stimuli/objects/028a.jpg,stimuli/scenes/028a.jpg,stimuli/scenes/028b.jpg,lure,target,dist1,dist2,0,0,0,0,0,61,61,21,,,,,,,,,,,463.7096252000192,None,464.7124568000436,None,464.7124568000436,None,464.7124568000436,None,464.7124568000436,None,467.753165800008,None,467.753165800008,None,467.753165800008,None,467.753165800008,None,None,None,None,None,None,,,,,,,,,,student1,2022-10-25_13h56.02.171,Hippopolis_Updating,2021.1.4,60.045418350767946,
Hippopolis,stimuli/subj_files/student1_cityA.csv,./stimuli/frankfurt.jpg,./stimuli/street_plate1.png,MARTINI UTCA,stimuli/objects/060a.jpg,object,1,stimuli/objects/011a.jpg,stimuli/objects/075b.jpg,stimuli/objects/075a.jpg,stimuli/objects/011b.jpg,stimuli/objects/011a.jpg,dist2,dist1,lure,target,0,0,0,0,0,62,62,60,,,,,,,,,,,469.72564930003136,None,470.72893670003396,None,470.72893670003396,None,470.72893670003396,None,470.72893670003396,None,473.76435840001795,None,473.76435840001795,None,473.76435840001795,None,473.76435840001795,None,None,None,None,None,None,,,,,,,,,,student1,2022-10-25_13h56.02.171,Hippopolis_Updating,2021.1.4,60.045418350767946,
Hippopolis,stimuli/subj_files/student1_cityA.csv,./stimuli/frankfurt.jpg,./stimuli/street_plate1.png,TELEP UTCA,stimuli/scenes/048a.jpg,scene,2,stimuli/objects/120a.jpg,stimuli/objects/120a.jpg,stimuli/objects/120b.jpg,stimuli/scenes/119b.jpg,stimuli/scenes/119a.jpg,target,lure,dist2,dist1,0,0,0,0,0,63,63,75,,,,,,,,,,,475.74224200006574,None,476.74300830007996,None,476.74300830007996,None,476.74300830007996,None,476.74300830007996,None,479.75378320005257,None,479.75378320005257,None,479.75378320005257,None,479.75378320005257,None,None,None,None,None,None,,,,,,,,,,student1,2022-10-25_13h56.02.171,Hippopolis_Updating,2021.1.4,60.045418350767946,
Hippopolis,stimuli/subj_files/student1_cityA.csv,./stimuli/frankfurt.jpg,./stimuli/street_plate1.png,FÉNYKÉP UTCA,stimuli/scenes/010a.jpg,scene,1,stimuli/scenes/078a.jpg,stimuli/scenes/088a.jpg,stimuli/scenes/078a.jpg,stimuli/scenes/088b.jpg,stimuli/scenes/078b.jpg,dist1,target,dist2,lure,0,0,0,0,0,64,64,32,,,,,,,,,,,481.75867340003606,None,482.75982060004026,None,482.75982060004026,None,482.75982060004026,None,482.75982060004026,None,485.7675466000801,None,485.7675466000801,None,485.7675466000801,None,485.7675466000801,None,None,None,None,None,None,,,,,,,,,,student1,2022-10-25_13h56.02.171,Hippopolis_Updating,2021.1.4,60.045418350767946,
Hippopolis,stimuli/subj_files/student1_cityA.csv,./stimuli/frankfurt.jpg,./stimuli/street_plate1.png,ÜVEG UTCA,stimuli/scenes/061a.jpg,scene,2,stimuli/objects/085a.jpg,stimuli/objects/085b.jpg,stimuli/scenes/084a.jpg,stimuli/objects/085a.jpg,stimuli/scenes/084b.jpg,lure,dist1,target,dist2,0,0,0,0,0,65,65,19,,,,,,,,,,,487.7753896000795,None,488.7800080999732,None,488.7800080999732,None,488.7800080999732,None,488.7800080999732,None,491.8085511000827,None,491.8085511000827,None,491.8085511000827,None,491.8085511000827,None,None,None,None,None,None,,,,,,,,,,student1,2022-10-25_13h56.02.171,Hippopolis_Updating,2021.1.4,60.045418350767946,
Hippopolis,stimuli/subj_files/student1_cityA.csv,./stimuli/frankfurt.jpg,./stimuli/street_plate1.png,TRIATLON UTCA,stimuli/objects/024a.jpg,object,0,stimuli/objects/024a.jpg,stimuli/objects/024b.jpg,stimuli/objects/080a.jpg,stimuli/objects/024a.jpg,stimuli/objects/080b.jpg,lure,dist1,target,dist2,0,0,0,0,0,66,66,2,,,,,,,,,,,493.79225739999674,None,494.7923085000366,None,494.7923085000366,None,494.7923085000366,None,494.7923085000366,None,497.80720989999827,None,497.80720989999827,None,497.80720989999827,None,497.80720989999827,None,None,None,None,None,None,,,,,,,,,,student1,2022-10-25_13h56.02.171,Hippopolis_Updating,2021.1.4,60.045418350767946,
Hippopolis,stimuli/subj_files/student1_cityA.csv,./stimuli/frankfurt.jpg,./stimuli/street_plate1.png,MOGYORÓ UTCA,stimuli/objects/106a.jpg,object,1,stimuli/objects/103a.jpg,stimuli/scenes/116a.jpg,stimuli/objects/103b.jpg,stimuli/objects/103a.jpg,stimuli/scenes/116b.jpg,dist1,lure,target,dist2,0,0,0,0,0,67,67,54,,,,,,,,,,,499.79193110007327,None,500.7925672000274,None,500.7925672000274,None,500.7925672000274,None,500.7925672000274,None,503.80402630008757,None,503.80402630008757,None,503.80402630008757,None,503.80402630008757,None,None,None,None,None,None,,,,,,,,,,student1,2022-10-25_13h56.02.171,Hippopolis_Updating,2021.1.4,60.045418350767946,
Hippopolis,stimuli/subj_files/student1_cityA.csv,./stimuli/frankfurt.jpg,./stimuli/street_plate1.png,KORONG UTCA,stimuli/scenes/065a.jpg,scene,1,stimuli/scenes/004a.jpg,stimuli/scenes/004a.jpg,stimuli/scenes/011b.jpg,stimuli/scenes/011a.jpg,stimuli/scenes/004b.jpg,target,dist2,dist1,lure,0,0,0,0,0,68,68,53,,,,,,,,,,,505.8088762999978,None,506.80867539998144,None,506.80867539998144,None,506.80867539998144,None,506.80867539998144,None,509.8179117999971,None,509.8179117999971,None,509.8179117999971,None,509.8179117999971,None,None,None,None,None,None,,,,,,,,,,student1,2022-10-25_13h56.02.171,Hippopolis_Updating,2021.1.4,60.045418350767946,
Hippopolis,stimuli/subj_files/student1_cityA.csv,./stimuli/frankfurt.jpg,./stimuli/street_plate1.png,LIGET UTCA,stimuli/objects/038a.jpg,object,2,stimuli/scenes/109a.jpg,stimuli/scenes/109a.jpg,stimuli/objects/055a.jpg,stimuli/scenes/109b.jpg,stimuli/objects/055b.jpg,target,dist1,lure,dist2,0,0,0,0,0,69,69,62,,,,,,,,,,,511.82548590004444,None,512.8253126000054,None,512.8253126000054,None,512.8253126000054,None,512.8253126000054,None,515.8425947000505,None,515.8425947000505,None,515.8425947000505,None,515.8425947000505,None,None,None,None,None,None,,,,,,,,,,student1,2022-10-25_13h56.02.171,Hippopolis_Updating,2021.1.4,60.045418350767946,
Hippopolis,stimuli/subj_files/student1_cityA.csv,./stimuli/frankfurt.jpg,./stimuli/street_plate1.png,PAPUCS UTCA,stimuli/scenes/051a.jpg,scene,0,stimuli/scenes/051a.jpg,stimuli/scenes/051b.jpg,stimuli/scenes/051a.jpg,stimuli/scenes/090a.jpg,stimuli/scenes/090b.jpg,lure,target,dist1,dist2,0,0,0,0,0,70,70,68,,,,,,,,,,,517.8420457000611,None,518.8421384000685,None,518.8421384000685,None,518.8421384000685,None,518.8421384000685,None,521.8425363000715,None,521.8425363000715,None,521.8425363000715,None,521.8425363000715,None,None,None,None,None,None,,,,,,,,,,student1,2022-10-25_13h56.02.171,Hippopolis_Updating,2021.1.4,60.045418350767946,
Hippopolis,stimuli/subj_files/student1_cityA.csv,./stimuli/frankfurt.jpg,./stimuli/street_plate1.png,FÓKA UTCA,stimuli/scenes/058a.jpg,scene,0,stimuli/scenes/058a.jpg,stimuli/scenes/058a.jpg,stimuli/scenes/058b.jpg,stimuli/objects/111b.jpg,stimuli/objects/111a.jpg,target,lure,dist2,dist1,0,0,0,0,0,71,71,51,,,,,,,,,,,523.8413248000434,None,524.8424837000202,None,524.8424837000202,None,524.8424837000202,None,524.8424837000202,None,527.8425258999923,None,527.8425258999923,None,527.8425258999923,None,527.8425258999923,None,None,None,None,None,None,,,,,,,,,,student1,2022-10-25_13h56.02.171,Hippopolis_Updating,2021.1.4,60.045418350767946,
Hippopolis,stimuli/subj_files/student1_cityA.csv,./stimuli/frankfurt.jpg,./stimuli/street_plate1.png,MOCSÁR UTCA,stimuli/objects/080a.jpg,object,0,stimuli/objects/080a.jpg,stimuli/objects/080b.jpg,stimuli/objects/080a.jpg,stimuli/scenes/043b.jpg,stimuli/scenes/043a.jpg,lure,target,dist2,dist1,0,0,0,0,0,72,72,17,,,,,,,,,,,529.8419616000028,None,530.8421757000033,None,530.8421757000033,None,530.8421757000033,None,530.8421757000033,None,533.8556109999772,None,533.8556109999772,None,533.8556109999772,None,533.8556109999772,None,None,None,None,None,None,,,,,,,,,,student1,2022-10-25_13h56.02.171,Hippopolis_Updating,2021.1.4,60.045418350767946,
Hippopolis,stimuli/subj_files/student1_cityA.csv,./stimuli/frankfurt.jpg,./stimuli/street_plate1.png,SZIKLA UTCA,stimuli/scenes/111a.jpg,scene,2,stimuli/objects/073a.jpg,stimuli/objects/120b.jpg,stimuli/objects/120a.jpg,stimuli/objects/073a.jpg,stimuli/objects/073b.jpg,dist2,dist1,target,lure,0,0,0,0,0,73,73,1,,,,,,,,,,,535.8584738000063,None,536.8581879000412,None,536.8581879000412,None,536.8581879000412,None,536.8581879000412,None,539.8694147000788,None,539.8694147000788,None,539.8694147000788,None,539.8694147000788,None,None,None,None,None,None,,,,,,,,,,student1,2022-10-25_13h56.02.171,Hippopolis_Updating,2021.1.4,60.045418350767946,
Hippopolis,stimuli/subj_files/student1_cityA.csv,./stimuli/frankfurt.jpg,./stimuli/street_plate1.png,MOTOR UTCA,stimuli/objects/097a.jpg,object,1,stimuli/objects/071a.jpg,stimuli/objects/015b.jpg,stimuli/objects/071b.jpg,stimuli/objects/071a.jpg,stimuli/objects/015a.jpg,dist2,lure,target,dist1,0,0,0,0,0,74,74,36,,,,,,,,,,,541.8746471999912,None,542.8749683999922,None,542.8749683999922,None,542.8749683999922,None,542.8749683999922,None,545.8880479000509,None,545.8880479000509,None,545.8880479000509,None,545.8880479000509,None,None,None,None,None,None,,,,,,,,,,student1,2022-10-25_13h56.02.171,Hippopolis_Updating,2021.1.4,60.045418350767946,
Hippopolis,stimuli/subj_files/student1_cityA.csv,./stimuli/frankfurt.jpg,./stimuli/street_plate1.png,BÖGRE UTCA,stimuli/objects/050a.jpg,object,1,stimuli/objects/076a.jpg,stimuli/scenes/037a.jpg,stimuli/objects/076a.jpg,stimuli/objects/076b.jpg,stimuli/scenes/037b.jpg,dist1,target,lure,dist2,0,0,0,0,0,75,75,41,,,,,,,,,,,547.8917536999797,None,548.891976700048,None,548.891976700048,None,548.891976700048,None,548.891976700048,None,551.8922780000139,None,551.8922780000139,None,551.8922780000139,None,551.8922780000139,None,None,None,None,None,None,,,,,,,,,,student1,2022-10-25_13h56.02.171,Hippopolis_Updating,2021.1.4,60.045418350767946,
Hippopolis,stimuli/subj_files/student1_cityA.csv,./stimuli/frankfurt.jpg,./stimuli/street_plate1.png,CITROM UTCA,stimuli/scenes/036a.jpg,scene,2,stimuli/objects/043a.jpg,stimuli/objects/043b.jpg,stimuli/objects/067a.jpg,stimuli/objects/043a.jpg,stimuli/objects/067b.jpg,lure,dist1,target,dist2,0,0,0,0,0,76,76,26,,,,,,,,,,,553.8916105000535,None,554.8952159000328,None,554.8952159000328,None,554.8952159000328,None,554.8952159000328,None,557.9258709000424,None,557.9258709000424,None,557.9258709000424,None,557.9258709000424,None,None,None,None,None,None,,,,,,,,,,student1,2022-10-25_13h56.02.171,Hippopolis_Updating,2021.1.4,60.045418350767946,
Hippopolis,stimuli/subj_files/student1_cityA.csv,./stimuli/frankfurt.jpg,./stimuli/street_plate1.png,PULÓVER UTCA,stimuli/objects/114a.jpg,object,0,stimuli/objects/114a.jpg,stimuli/scenes/050b.jpg,stimuli/scenes/050a.jpg,stimuli/objects/114b.jpg,stimuli/objects/114a.jpg,dist2,dist1,lure,target,0,0,0,0,0,77,77,43,,,,,,,,,,,559.9080243000062,None,560.9085426999955,None,560.9085426999955,None,560.9085426999955,None,560.9085426999955,None,563.9108866000315,None,563.9108866000315,None,563.9108866000315,None,563.9108866000315,None,None,None,None,None,None,,,,,,,,,,student1,2022-10-25_13h56.02.171,Hippopolis_Updating,2021.1.4,60.045418350767946,
Hippopolis,stimuli/subj_files/student1_cityA.csv,./stimuli/frankfurt.jpg,./stimuli/street_plate1.png,BOLYGÓ UTCA,stimuli/scenes/118a.jpg,scene,1,stimuli/scenes/087a.jpg,stimuli/objects/011a.jpg,stimuli/scenes/087b.jpg,stimuli/objects/011b.jpg,stimuli/scenes/087a.jpg,dist1,lure,dist2,target,0,0,0,0,0,78,78,31,,,,,,,,,,,565.9247705000453,None,566.9244831000688,None,566.9244831000688,None,566.9244831000688,None,566.9244831000688,None,569.9335573000135,None,569.9335573000135,None,569.9335573000135,None,569.9335573000135,None,None,None,None,None,None,,,,,,,,,,student1,2022-10-25_13h56.02.171,Hippopolis_Updating,2021.1.4,60.045418350767946,
Hippopolis,stimuli/subj_files/student1_cityA.csv,./stimuli/frankfurt.jpg,./stimuli/street_plate1.png,LÉTRA UTCA,stimuli/objects/047a.jpg,object,1,stimuli/objects/015a.jpg,stimuli/objects/108b.jpg,stimuli/objects/015b.jpg,stimuli/objects/108a.jpg,stimuli/objects/015a.jpg,dist2,lure,dist1,target,0,0,0,0,0,79,79,33,,,,,,,,,,,571.9410290999804,None,572.9410397000611,None,572.9410397000611,None,572.9410397000611,None,572.9410397000611,None,575.9509750000434,None,575.9509750000434,None,575.9509750000434,None,575.9509750000434,None,None,None,None,None,None,,,,,,,,,,student1,2022-10-25_13h56.02.171,Hippopolis_Updating,2021.1.4,60.045418350767946,
Camponello,stimuli/subj_files/student1_cityB.csv,./stimuli/leipzig.jpg,./stimuli/street_plate2.png,SZILVA UTCA,stimuli/objects/105a.jpg,object,0,stimuli/objects/105a.jpg,stimuli/objects/049b.jpg,stimuli/objects/105b.jpg,stimuli/objects/049a.jpg,stimuli/objects/105a.jpg,dist2,lure,dist1,target,0,1,1,1,0,0,0,36,,,,,,,584.4879206999904,None,584.4879206999904,None,587.477290000068,None,588.4848402000498,None,588.4848402000498,None,588.4848402000498,None,588.4848402000498,None,591.4843320000218,None,591.4843320000218,None,591.4843320000218,None,591.4843320000218,None,None,None,None,None,None,,577.958013500087,None,space,6.472946099936962,577.958013500087,None,,,student1,2022-10-25_13h56.02.171,Hippopolis_Updating,2021.1.4,60.045418350767946,
Camponello,stimuli/subj_files/student1_cityB.csv,./stimuli/leipzig.jpg,./stimuli/street_plate2.png,KOCSI UTCA,stimuli/scenes/114a.jpg,scene,0,stimuli/scenes/114a.jpg,stimuli/objects/082b.jpg,stimuli/scenes/114b.jpg,stimuli/scenes/114a.jpg,stimuli/objects/082a.jpg,dist2,lure,target,dist1,0,1,1,1,0,1,1,69,,,,,,,,,,,593.4737353000091,None,594.4739834000356,None,594.4739834000356,None,594.4739834000356,None,594.4739834000356,None,597.4798830000218,None,597.4798830000218,None,597.4798830000218,None,597.4798830000218,None,None,None,None,None,None,,,,,,,,,,student1,2022-10-25_13h56.02.171,Hippopolis_Updating,2021.1.4,60.045418350767946,
Camponello,stimuli/subj_files/student1_cityB.csv,./stimuli/leipzig.jpg,./stimuli/street_plate2.png,KÁRTYA UTCA,stimuli/scenes/076a.jpg,scene,0,stimuli/scenes/076a.jpg,stimuli/objects/008a.jpg,stimuli/scenes/076b.jpg,stimuli/scenes/076a.jpg,stimuli/objects/008b.jpg,dist1,lure,target,dist2,0,1,1,1,0,2,2,64,,,,,,,,,,,599.4900301999878,None,600.490944600082,None,600.490944600082,None,600.490944600082,None,600.490944600082,None,603.4933864000486,None,603.4933864000486,None,603.4933864000486,None,603.4933864000486,None,None,None,None,None,None,,,,,,,,,,student1,2022-10-25_13h56.02.171,Hippopolis_Updating,2021.1.4,60.045418350767946,
Camponello,stimuli/subj_files/student1_cityB.csv,./stimuli/leipzig.jpg,./stimuli/street_plate2.png,TÜKÖR UTCA,stimuli/scenes/006a.jpg,scene,0,stimuli/scenes/006a.jpg,stimuli/objects/116b.jpg,stimuli/objects/116a.jpg,stimuli/scenes/006a.jpg,stimuli/scenes/006b.jpg,dist2,dist1,target,lure,0,1,1,1,0,3,3,25,,,,,,,,,,,605.507282000035,None,606.5076729999855,None,606.5076729999855,None,606.5076729999855,None,606.5076729999855,None,609.5104309000308,None,609.5104309000308,None,609.5104309000308,None,609.5104309000308,None,None,None,None,None,None,,,,,,,,,,student1,2022-10-25_13h56.02.171,Hippopolis_Updating,2021.1.4,60.045418350767946,
Camponello,stimuli/subj_files/student1_cityB.csv,./stimuli/leipzig.jpg,./stimuli/street_plate2.png,FÜZET UTCA,stimuli/scenes/047a.jpg,scene,1,stimuli/scenes/012a.jpg,stimuli/scenes/012b.jpg,stimuli/objects/010b.jpg,stimuli/scenes/012a.jpg,stimuli/objects/010a.jpg,lure,dist2,target,dist1,0,1,1,1,0,4,4,56,,,,,,,,,,,611.5237939000363,None,612.5242919999873,None,612.5242919999873,None,612.5242919999873,None,612.5242919999873,None,615.5330259000184,None,615.5330259000184,None,615.5330259000184,None,615.5330259000184,None,None,None,None,None,None,,,,,,,,,,student1,2022-10-25_13h56.02.171,Hippopolis_Updating,2021.1.4,60.045418350767946,
Camponello,stimuli/subj_files/student1_cityB.csv,./stimuli/leipzig.jpg,./stimuli/street_plate2.png,FÉSŰ UTCA,stimuli/objects/084a.jpg,object,0,stimuli/objects/084a.jpg,stimuli/objects/118b.jpg,stimuli/objects/118a.jpg,stimuli/objects/084a.jpg,stimuli/objects/084b.jpg,dist2,dist1,target,lure,0,1,1,1,0,5,5,23,,,,,,,,,,,617.5399401000468,None,618.5406528000021,None,618.5406528000021,None,618.5406528000021,None,618.5406528000021,None,621.5508113000542,None,621.5508113000542,None,621.5508113000542,None,621.5508113000542,None,None,None,None,None,None,,,,,,,,,,student1,2022-10-25_13h56.02.171,Hippopolis_Updating,2021.1.4,60.045418350767946,
Camponello,stimuli/subj_files/student1_cityB.csv,./stimuli/leipzig.jpg,./stimuli/street_plate2.png,KUTYA UTCA,stimuli/scenes/030a.jpg,scene,0,stimuli/scenes/030a.jpg,stimuli/scenes/030b.jpg,stimuli/scenes/052b.jpg,stimuli/scenes/052a.jpg,stimuli/scenes/030a.jpg,lure,dist2,dist1,target,0,1,1,1,0,6,6,35,,,,,,,,,,,623.556443599984,None,624.5579971000552,None,624.5579971000552,None,624.5579971000552,None,624.5579971000552,None,627.5625751999905,None,627.5625751999905,None,627.5625751999905,None,627.5625751999905,None,None,None,None,None,None,,,,,,,,,,student1,2022-10-25_13h56.02.171,Hippopolis_Updating,2021.1.4,60.045418350767946,
Camponello,stimuli/subj_files/student1_cityB.csv,./stimuli/leipzig.jpg,./stimuli/street_plate2.png,LABDA UTCA,stimuli/objects/082a.jpg,object,0,stimuli/objects/082a.jpg,stimuli/scenes/049a.jpg,stimuli/scenes/049b.jpg,stimuli/objects/082b.jpg,stimuli/objects/082a.jpg,dist1,dist2,lure,target,0,1,1,1,0,7,7,72,,,,,,,,,,,629.5736397000728,None,630.5739684000146,None,630.5739684000146,None,630.5739684000146,None,630.5739684000146,None,633.5742646000581,None,633.5742646000581,None,633.5742646000581,None,633.5742646000581,None,None,None,None,None,None,,,,,,,,,,student1,2022-10-25_13h56.02.171,Hippopolis_Updating,2021.1.4,60.045418350767946,
Camponello,stimuli/subj_files/student1_cityB.csv,./stimuli/leipzig.jpg,./stimuli/street_plate2.png,KATONA UTCA,stimuli/objects/077a.jpg,object,0,stimuli/objects/077a.jpg,stimuli/objects/077a.jpg,stimuli/scenes/115a.jpg,stimuli/scenes/115b.jpg,stimuli/objects/077b.jpg,target,dist1,dist2,lure,0,1,1,1,0,8,8,74,,,,,,,,,,,635.573509800015,None,636.5733479000628,None,636.5733479000628,None,636.5733479000628,None,636.5733479000628,None,639.5817515000235,None,639.5817515000235,None,639.5817515000235,None,639.5817515000235,None,None,None,None,None,None,,,,,,,,,,student1,2022-10-25_13h56.02.171,Hippopolis_Updating,2021.1.4,60.045418350767946,
Camponello,stimuli/subj_files/student1_cityB.csv,./stimuli/leipzig.jpg,./stimuli/street_plate2.png,ASZTAL UTCA,stimuli/scenes/120a.jpg,scene,2,stimuli/objects/035a.jpg,stimuli/scenes/079b.jpg,stimuli/scenes/079a.jpg,stimuli/objects/035b.jpg,stimuli/objects/035a.jpg,dist2,dist1,lure,target,0,1,1,1,0,9,9,24,,,,,,,,,,,641.5900353000034,None,642.5907046999782,None,642.5907046999782,None,642.5907046999782,None,642.5907046999782,None,645.6010104999878,None,645.6010104999878,None,645.6010104999878,None,645.6010104999878,None,None,None,None,None,None,,,,,,,,,,student1,2022-10-25_13h56.02.171,Hippopolis_Updating,2021.1.4,60.045418350767946,
Camponello,stimuli/subj_files/student1_cityB.csv,./stimuli/leipzig.jpg,./stimuli/street_plate2.png,VÁSÁR UTCA,stimuli/scenes/089a.jpg,scene,0,stimuli/scenes/089a.jpg,stimuli/scenes/089a.jpg,stimuli/scenes/089b.jpg,stimuli/scenes/082b.jpg,stimuli/scenes/082a.jpg,target,lure,dist2,dist1,0,1,1,1,0,10,10,41,,,,,,,,,,,647.6066415000241,None,648.6065110000782,None,648.6065110000782,None,648.6065110000782,None,648.6065110000782,None,651.610300600063,None,651.610300600063,None,651.610300600063,None,651.610300600063,None,None,None,None,None,None,,,,,,,,,,student1,2022-10-25_13h56.02.171,Hippopolis_Updating,2021.1.4,60.045418350767946,
Camponello,stimuli/subj_files/student1_cityB.csv,./stimuli/leipzig.jpg,./stimuli/street_plate2.png,TOLMÁCS UTCA,stimuli/scenes/082a.jpg,scene,0,stimuli/scenes/082a.jpg,stimuli/scenes/082b.jpg,stimuli/objects/081b.jpg,stimuli/objects/081a.jpg,stimuli/scenes/082a.jpg,lure,dist2,dist1,target,0,1,1,1,0,11,11,2,,,,,,,,,,,653.623253100086,None,654.6233878000639,None,654.6233878000639,None,654.6233878000639,None,654.6233878000639,None,657.6238537000027,None,657.6238537000027,None,657.6238537000027,None,657.6238537000027,None,None,None,None,None,None,,,,,,,,,,student1,2022-10-25_13h56.02.171,Hippopolis_Updating,2021.1.4,60.045418350767946,
Camponello,stimuli/subj_files/student1_cityB.csv,./stimuli/leipzig.jpg,./stimuli/street_plate2.png,ZÁSZLÓ UTCA,stimuli/scenes/103a.jpg,scene,2,stimuli/objects/037a.jpg,stimuli/scenes/102b.jpg,stimuli/objects/037b.jpg,stimuli/scenes/102a.jpg,stimuli/objects/037a.jpg,dist2,lure,dist1,target,0,1,1,1,0,12,12,60,,,,,,,,,,,659.6223813000834,None,660.623033800046,None,660.623033800046,None,660.623033800046,None,660.623033800046,None,663.6441022000508,None,663.6441022000508,None,663.6441022000508,None,663.6441022000508,None,None,None,None,None,None,,,,,,,,,,student1,2022-10-25_13h56.02.171,Hippopolis_Updating,2021.1.4,60.045418350767946,
Camponello,stimuli/subj_files/student1_cityB.csv,./stimuli/leipzig.jpg,./stimuli/street_plate2.png,ZONGORA UTCA,stimuli/objects/034a.jpg,object,0,stimuli/objects/034a.jpg,stimuli/objects/034a.jpg,stimuli/objects/034b.jpg,stimuli/objects/016b.jpg,stimuli/objects/016a.jpg,target,lure,dist2,dist1,0,1,1,1,0,13,13,31,,,,,,,,,,,665.6391793000512,None,666.6393995999824,None,666.6393995999824,None,666.6393995999824,None,666.6393995999824,None,669.658624600037,None,669.658624600037,None,669.658624600037,None,669.658624600037,None,None,None,None,None,None,,,,,,,,,,student1,2022-10-25_13h56.02.171,Hippopolis_Updating,2021.1.4,60.045418350767946,
Camponello,stimuli/subj_files/student1_cityB.csv,./stimuli/leipzig.jpg,./stimuli/street_plate2.png,KRÉTA UTCA,stimuli/scenes/091a.jpg,scene,0,stimuli/scenes/091a.jpg,stimuli/scenes/098b.jpg,stimuli/scenes/091b.jpg,stimuli/scenes/098a.jpg,stimuli/scenes/091a.jpg,dist2,lure,dist1,target,0,1,1,1,0,14,14,21,,,,,,,,,,,671.6561779000331,None,672.6560877000447,None,672.6560877000447,None,672.6560877000447,None,672.6560877000447,None,675.6601194000104,None,675.6601194000104,None,675.6601194000104,None,675.6601194000104,None,None,None,None,None,None,,,,,,,,,,student1,2022-10-25_13h56.02.171,Hippopolis_Updating,2021.1.4,60.045418350767946,
Camponello,stimuli/subj_files/student1_cityB.csv,./stimuli/leipzig.jpg,./stimuli/street_plate2.png,MANDARIN UTCA,stimuli/scenes/075a.jpg,scene,0,stimuli/scenes/075a.jpg,stimuli/objects/072a.jpg,stimuli/objects/072b.jpg,stimuli/scenes/075b.jpg,stimuli/scenes/075a.jpg,dist1,dist2,lure,target,0,1,1,1,0,15,15,37,,,,,,,,,,,677.6720442000078,None,678.6725479000015,None,678.6725479000015,None,678.6725479000015,None,678.6725479000015,None,681.6766821000492,None,681.6766821000492,None,681.6766821000492,None,681.6766821000492,None,None,None,None,None,None,,,,,,,,,,student1,2022-10-25_13h56.02.171,Hippopolis_Updating,2021.1.4,60.045418350767946,
Camponello,stimuli/subj_files/student1_cityB.csv,./stimuli/leipzig.jpg,./stimuli/street_plate2.png,KÓKUSZ UTCA,stimuli/scenes/052a.jpg,scene,0,stimuli/scenes/052a.jpg,stimuli/scenes/052a.jpg,stimuli/objects/077b.jpg,stimuli/objects/077a.jpg,stimuli/scenes/052b.jpg,target,dist2,dist1,lure,0,1,1,1,0,16,16,19,,,,,,,,,,,683.6893892000662,None,684.6898147000466,None,684.6898147000466,None,684.6898147000466,None,684.6898147000466,None,687.6897170000011,None,687.6897170000011,None,687.6897170000011,None,687.6897170000011,None,None,None,None,None,None,,,,,,,,,,student1,2022-10-25_13h56.02.171,Hippopolis_Updating,2021.1.4,60.045418350767946,
Camponello,stimuli/subj_files/student1_cityB.csv,./stimuli/leipzig.jpg,./stimuli/street_plate2.png,FÉSZEK UTCA,stimuli/objects/042a.jpg,object,1,stimuli/objects/044a.jpg,stimuli/scenes/020b.jpg,stimuli/objects/044a.jpg,stimuli/scenes/020a.jpg,stimuli/objects/044b.jpg,dist2,target,dist1,lure,0,1,1,1,0,17,17,10,,,,,,,,,,,689.6891907000681,None,690.688920799992,None,690.688920799992,None,690.688920799992,None,690.688920799992,None,693.7103427000111,None,693.7103427000111,None,693.7103427000111,None,693.7103427000111,None,None,None,None,None,None,,,,,,,,,,student1,2022-10-25_13h56.02.171,Hippopolis_Updating,2021.1.4,60.045418350767946,
Camponello,stimuli/subj_files/student1_cityB.csv,./stimuli/leipzig.jpg,./stimuli/street_plate2.png,SÜTEMÉNY UTCA,stimuli/objects/074a.jpg,object,2,stimuli/scenes/102a.jpg,stimuli/objects/061b.jpg,stimuli/objects/061a.jpg,stimuli/scenes/102a.jpg,stimuli/scenes/102b.jpg,dist2,dist1,target,lure,0,1,1,1,0,18,18,32,,,,,,,,,,,695.7057890000287,None,696.7059185000835,None,696.7059185000835,None,696.7059185000835,None,696.7059185000835,None,699.715880600037,None,699.715880600037,None,699.715880600037,None,699.715880600037,None,None,None,None,None,None,,,,,,,,,,student1,2022-10-25_13h56.02.171,Hippopolis_Updating,2021.1.4,60.045418350767946,
Camponello,stimuli/subj_files/student1_cityB.csv,./stimuli/leipzig.jpg,./stimuli/street_plate2.png,FEJSZE UTCA,stimuli/objects/065a.jpg,object,0,stimuli/objects/065a.jpg,stimuli/scenes/075b.jpg,stimuli/objects/065b.jpg,stimuli/objects/065a.jpg,stimuli/scenes/075a.jpg,dist2,lure,target,dist1,0,1,1,1,0,19,19,9,,,,,,,,,,,701.7223449000157,None,702.7248009999748,None,702.7248009999748,None,702.7248009999748,None,702.7248009999748,None,705.7393015000271,None,705.7393015000271,None,705.7393015000271,None,705.7393015000271,None,None,None,None,None,None,,,,,,,,,,student1,2022-10-25_13h56.02.171,Hippopolis_Updating,2021.1.4,60.045418350767946,
Camponello,stimuli/subj_files/student1_cityB.csv,./stimuli/leipzig.jpg,./stimuli/street_plate2.png,SZAPPAN UTCA,stimuli/objects/023a.jpg,object,1,stimuli/objects/087a.jpg,stimuli/scenes/012b.jpg,stimuli/objects/087b.jpg,stimuli/objects/087a.jpg,stimuli/scenes/012a.jpg,dist2,lure,target,dist1,0,1,1,1,0,20,20,7,,,,,,,,,,,707.7383549000369,None,708.7388228999916,None,708.7388228999916,None,708.7388228999916,None,708.7388228999916,None,711.748374100076,None,711.748374100076,None,711.748374100076,None,711.748374100076,None,None,None,None,None,None,,,,,,,,,,student1,2022-10-25_13h56.02.171,Hippopolis_Updating,2021.1.4,60.045418350767946,
Camponello,stimuli/subj_files/student1_cityB.csv,./stimuli/leipzig.jpg,./stimuli/street_plate2.png,LEGELŐ UTCA,stimuli/objects/030a.jpg,object,0,stimuli/objects/030a.jpg,stimuli/objects/039a.jpg,stimuli/objects/030a.jpg,stimuli/objects/030b.jpg,stimuli/objects/039b.jpg,dist1,target,lure,dist2,0,1,1,1,0,21,21,70,,,,,,,,,,,713.7554179000435,None,714.7557789999992,None,714.7557789999992,None,714.7557789999992,None,714.7557789999992,None,717.7622002999997,None,717.7622002999997,None,717.7622002999997,None,717.7622002999997,None,None,None,None,None,None,,,,,,,,,,student1,2022-10-25_13h56.02.171,Hippopolis_Updating,2021.1.4,60.045418350767946,
Camponello,stimuli/subj_files/student1_cityB.csv,./stimuli/leipzig.jpg,./stimuli/street_plate2.png,TENISZ UTCA,stimuli/objects/102a.jpg,object,0,stimuli/objects/102a.jpg,stimuli/objects/102b.jpg,stimuli/objects/102a.jpg,stimuli/scenes/038a.jpg,stimuli/scenes/038b.jpg,lure,target,dist1,dist2,0,1,1,1,0,22,22,75,,,,,,,,,,,719.7715515000746,None,720.7720142999897,None,720.7720142999897,None,720.7720142999897,None,720.7720142999897,None,723.7829711000668,None,723.7829711000668,None,723.7829711000668,None,723.7829711000668,None,None,None,None,None,None,,,,,,,,,,student1,2022-10-25_13h56.02.171,Hippopolis_Updating,2021.1.4,60.045418350767946,
Camponello,stimuli/subj_files/student1_cityB.csv,./stimuli/leipzig.jpg,./stimuli/street_plate2.png,TÁNYÉR UTCA,stimuli/objects/118a.jpg,object,0,stimuli/objects/118a.jpg,stimuli/objects/102b.jpg,stimuli/objects/102a.jpg,stimuli/objects/118b.jpg,stimuli/objects/118a.jpg,dist2,dist1,lure,target,0,1,1,1,0,23,23,28,,,,,,,,,,,725.7886305000866,None,726.7884495999897,None,726.7884495999897,None,726.7884495999897,None,726.7884495999897,None,729.7934190999949,None,729.7934190999949,None,729.7934190999949,None,729.7934190999949,None,None,None,None,None,None,,,,,,,,,,student1,2022-10-25_13h56.02.171,Hippopolis_Updating,2021.1.4,60.045418350767946,
Camponello,stimuli/subj_files/student1_cityB.csv,./stimuli/leipzig.jpg,./stimuli/street_plate2.png,TISZTÁS UTCA,stimuli/objects/116a.jpg,object,0,stimuli/objects/116a.jpg,stimuli/objects/058a.jpg,stimuli/objects/116a.jpg,stimuli/objects/116b.jpg,stimuli/objects/058b.jpg,dist1,target,lure,dist2,0,1,1,1,0,24,24,18,,,,,,,,,,,731.805206399993,None,732.805074700038,None,732.805074700038,None,732.805074700038,None,732.805074700038,None,735.812603599974,None,735.812603599974,None,735.812603599974,None,735.812603599974,None,None,None,None,None,None,,,,,,,,,,student1,2022-10-25_13h56.02.171,Hippopolis_Updating,2021.1.4,60.045418350767946,
Camponello,stimuli/subj_files/student1_cityB.csv,./stimuli/leipzig.jpg,./stimuli/street_plate2.png,KALAPÁCS UTCA,stimuli/scenes/049a.jpg,scene,0,stimuli/scenes/049a.jpg,stimuli/objects/112b.jpg,stimuli/scenes/049a.jpg,stimuli/objects/112a.jpg,stimuli/scenes/049b.jpg,dist2,target,dist1,lure,0,1,1,1,0,25,25,3,,,,,,,,,,,737.821853499976,None,738.8219295999734,None,738.8219295999734,None,738.8219295999734,None,738.8219295999734,None,741.8270513999742,None,741.8270513999742,None,741.8270513999742,None,741.8270513999742,None,None,None,None,None,None,,,,,,,,,,student1,2022-10-25_13h56.02.171,Hippopolis_Updating,2021.1.4,60.045418350767946,
Camponello,stimuli/subj_files/student1_cityB.csv,./stimuli/leipzig.jpg,./stimuli/street_plate2.png,KAKAÓ UTCA,stimuli/objects/099a.jpg,object,1,stimuli/objects/119a.jpg,stimuli/scenes/086a.jpg,stimuli/objects/119a.jpg,stimuli/scenes/086b.jpg,stimuli/objects/119b.jpg,dist1,target,dist2,lure,0,1,1,1,0,26,26,0,,,,,,,,,,,743.8382886999752,None,744.8383721000282,None,744.8383721000282,None,744.8383721000282,None,744.8383721000282,None,747.8607627999736,None,747.8607627999736,None,747.8607627999736,None,747.8607627999736,None,None,None,None,None,None,,,,,,,,,,student1,2022-10-25_13h56.02.171,Hippopolis_Updating,2021.1.4,60.045418350767946,
Camponello,stimuli/subj_files/student1_cityB.csv,./stimuli/leipzig.jpg,./stimuli/street_plate2.png,VITORLA UTCA,stimuli/scenes/110a.jpg,scene,1,stimuli/scenes/062a.jpg,stimuli/scenes/107a.jpg,stimuli/scenes/107b.jpg,stimuli/scenes/062b.jpg,stimuli/scenes/062a.jpg,dist1,dist2,lure,target,0,1,1,1,0,27,27,45,,,,,,,,,,,749.8543984000571,None,750.854790900019,None,750.854790900019,None,750.854790900019,None,750.854790900019,None,753.8628098000772,None,753.8628098000772,None,753.8628098000772,None,753.8628098000772,None,None,None,None,None,None,,,,,,,,,,student1,2022-10-25_13h56.02.171,Hippopolis_Updating,2021.1.4,60.045418350767946,
Camponello,stimuli/subj_files/student1_cityB.csv,./stimuli/leipzig.jpg,./stimuli/street_plate2.png,MÁRVÁNY UTCA,stimuli/scenes/023a.jpg,scene,0,stimuli/scenes/023a.jpg,stimuli/objects/030a.jpg,stimuli/scenes/023b.jpg,stimuli/objects/030b.jpg,stimuli/scenes/023a.jpg,dist1,lure,dist2,target,0,1,1,1,0,28,28,58,,,,,,,,,,,755.8714344999753,None,756.8724214000395,None,756.8724214000395,None,756.8724214000395,None,756.8724214000395,None,759.8746975000249,None,759.8746975000249,None,759.8746975000249,None,759.8746975000249,None,None,None,None,None,None,,,,,,,,,,student1,2022-10-25_13h56.02.171,Hippopolis_Updating,2021.1.4,60.045418350767946,
Camponello,stimuli/subj_files/student1_cityB.csv,./stimuli/leipzig.jpg,./stimuli/street_plate2.png,TERÍTŐ UTCA,stimuli/objects/098a.jpg,object,1,stimuli/objects/096a.jpg,stimuli/objects/096b.jpg,stimuli/objects/096a.jpg,stimuli/objects/013b.jpg,stimuli/objects/013a.jpg,lure,target,dist2,dist1,0,1,1,1,0,29,29,39,,,,,,,,,,,761.8881698000478,None,762.8900333000347,None,762.8900333000347,None,762.8900333000347,None,762.8900333000347,None,765.9207056000596,None,765.9207056000596,None,765.9207056000596,None,765.9207056000596,None,None,None,None,None,None,,,,,,,,,,student1,2022-10-25_13h56.02.171,Hippopolis_Updating,2021.1.4,60.045418350767946,
Camponello,stimuli/subj_files/student1_cityB.csv,./stimuli/leipzig.jpg,./stimuli/street_plate2.png,TORONY UTCA,stimuli/scenes/094a.jpg,scene,2,stimuli/objects/054a.jpg,stimuli/scenes/001a.jpg,stimuli/scenes/001b.jpg,stimuli/objects/054b.jpg,stimuli/objects/054a.jpg,dist1,dist2,lure,target,0,1,1,1,0,30,30,62,,,,,,,,,,,767.9041298000375,None,768.9047149000689,None,768.9047149000689,None,768.9047149000689,None,768.9047149000689,None,771.9183123999974,None,771.9183123999974,None,771.9183123999974,None,771.9183123999974,None,None,None,None,None,None,,,,,,,,,,student1,2022-10-25_13h56.02.171,Hippopolis_Updating,2021.1.4,60.045418350767946,
Camponello,stimuli/subj_files/student1_cityB.csv,./stimuli/leipzig.jpg,./stimuli/street_plate2.png,REPÜLŐ UTCA,stimuli/scenes/098a.jpg,scene,0,stimuli/scenes/098a.jpg,stimuli/scenes/013a.jpg,stimuli/scenes/013b.jpg,stimuli/scenes/098a.jpg,stimuli/scenes/098b.jpg,dist1,dist2,target,lure,0,1,1,1,0,31,31,66,,,,,,,,,,,773.9206599000609,None,774.9211571000051,None,774.9211571000051,None,774.9211571000051,None,774.9211571000051,None,777.9256567000411,None,777.9256567000411,None,777.9256567000411,None,777.9256567000411,None,None,None,None,None,None,,,,,,,,,,student1,2022-10-25_13h56.02.171,Hippopolis_Updating,2021.1.4,60.045418350767946,
Camponello,stimuli/subj_files/student1_cityB.csv,./stimuli/leipzig.jpg,./stimuli/street_plate2.png,SZAXOFON UTCA,stimuli/objects/117a.jpg,object,0,stimuli/objects/117a.jpg,stimuli/scenes/021a.jpg,stimuli/objects/117a.jpg,stimuli/objects/117b.jpg,stimuli/scenes/021b.jpg,dist1,target,lure,dist2,0,1,1,1,0,32,32,20,,,,,,,,,,,779.9378347999882,None,780.9407661000732,None,780.9407661000732,None,780.9407661000732,None,780.9407661000732,None,783.9598743000533,None,783.9598743000533,None,783.9598743000533,None,783.9598743000533,None,None,None,None,None,None,,,,,,,,,,student1,2022-10-25_13h56.02.171,Hippopolis_Updating,2021.1.4,60.045418350767946,
Camponello,stimuli/subj_files/student1_cityB.csv,./stimuli/leipzig.jpg,./stimuli/street_plate2.png,LEMEZ UTCA,stimuli/scenes/022a.jpg,scene,0,stimuli/scenes/022a.jpg,stimuli/scenes/077b.jpg,stimuli/scenes/022a.jpg,stimuli/scenes/022b.jpg,stimuli/scenes/077a.jpg,dist2,target,lure,dist1,0,1,1,1,0,33,33,13,,,,,,,,,,,785.9543864000589,None,786.9542141000275,None,786.9542141000275,None,786.9542141000275,None,786.9542141000275,None,789.9576828000136,None,789.9576828000136,None,789.9576828000136,None,789.9576828000136,None,None,None,None,None,None,,,,,,,,,,student1,2022-10-25_13h56.02.171,Hippopolis_Updating,2021.1.4,60.045418350767946,
Camponello,stimuli/subj_files/student1_cityB.csv,./stimuli/leipzig.jpg,./stimuli/street_plate2.png,SIRÁLY UTCA,stimuli/objects/081a.jpg,object,0,stimuli/objects/081a.jpg,stimuli/objects/081a.jpg,stimuli/objects/081b.jpg,stimuli/scenes/019a.jpg,stimuli/scenes/019b.jpg,target,lure,dist1,dist2,0,1,1,1,0,34,34,50,,,,,,,,,,,791.9708522000583,None,792.9712093999842,None,792.9712093999842,None,792.9712093999842,None,792.9712093999842,None,795.9844112000428,None,795.9844112000428,None,795.9844112000428,None,795.9844112000428,None,None,None,None,None,None,,,,,,,,,,student1,2022-10-25_13h56.02.171,Hippopolis_Updating,2021.1.4,60.045418350767946,
Camponello,stimuli/subj_files/student1_cityB.csv,./stimuli/leipzig.jpg,./stimuli/street_plate2.png,HENTES UTCA,stimuli/scenes/092a.jpg,scene,0,stimuli/scenes/092a.jpg,stimuli/scenes/114b.jpg,stimuli/scenes/114a.jpg,stimuli/scenes/092a.jpg,stimuli/scenes/092b.jpg,dist2,dist1,target,lure,0,1,1,1,0,35,35,46,,,,,,,,,,,797.9874932999955,None,798.9881228000158,None,798.9881228000158,None,798.9881228000158,None,798.9881228000158,None,801.9926527000498,None,801.9926527000498,None,801.9926527000498,None,801.9926527000498,None,None,None,None,None,None,,,,,,,,,,student1,2022-10-25_13h56.02.171,Hippopolis_Updating,2021.1.4,60.045418350767946,
Camponello,stimuli/subj_files/student1_cityB.csv,./stimuli/leipzig.jpg,./stimuli/street_plate2.png,BÚJÓCSKA UTCA,stimuli/scenes/015a.jpg,scene,1,stimuli/scenes/086a.jpg,stimuli/scenes/105b.jpg,stimuli/scenes/086a.jpg,stimuli/scenes/105a.jpg,stimuli/scenes/086b.jpg,dist2,target,dist1,lure,0,1,1,1,0,36,36,48,,,,,,,,,,,804.0036465000594,None,805.0077041999903,None,805.0077041999903,None,805.0077041999903,None,805.0077041999903,None,808.030133799999,None,808.030133799999,None,808.030133799999,None,808.030133799999,None,None,None,None,None,None,,,,,,,,,,student1,2022-10-25_13h56.02.171,Hippopolis_Updating,2021.1.4,60.045418350767946,
Camponello,stimuli/subj_files/student1_cityB.csv,./stimuli/leipzig.jpg,./stimuli/street_plate2.png,LOVAGLÁS UTCA,stimuli/objects/019a.jpg,object,0,stimuli/objects/019a.jpg,stimuli/objects/019b.jpg,stimuli/objects/019a.jpg,stimuli/scenes/017b.jpg,stimuli/scenes/017a.jpg,lure,target,dist2,dist1,0,1,1,1,0,37,37,53,,,,,,,,,,,810.0205495000118,None,811.0212173999753,None,811.0212173999753,None,811.0212173999753,None,811.0212173999753,None,814.0354759000475,None,814.0354759000475,None,814.0354759000475,None,814.0354759000475,None,None,None,None,None,None,,,,,,,,,,student1,2022-10-25_13h56.02.171,Hippopolis_Updating,2021.1.4,60.045418350767946,
Camponello,stimuli/subj_files/student1_cityB.csv,./stimuli/leipzig.jpg,./stimuli/street_plate2.png,ÁLLOMÁS UTCA,stimuli/scenes/069a.jpg,scene,0,stimuli/scenes/069a.jpg,stimuli/scenes/106a.jpg,stimuli/scenes/106b.jpg,stimuli/scenes/069b.jpg,stimuli/scenes/069a.jpg,dist1,dist2,lure,target,0,1,1,1,0,38,38,42,,,,,,,,,,,816.0368294999935,None,817.0372980000684,None,817.0372980000684,None,817.0372980000684,None,817.0372980000684,None,820.0376143000321,None,820.0376143000321,None,820.0376143000321,None,820.0376143000321,None,None,None,None,None,None,,,,,,,,,,student1,2022-10-25_13h56.02.171,Hippopolis_Updating,2021.1.4,60.045418350767946,
Camponello,stimuli/subj_files/student1_cityB.csv,./stimuli/leipzig.jpg,./stimuli/street_plate2.png,KESZTYŰ UTCA,stimuli/scenes/040a.jpg,scene,1,stimuli/scenes/105a.jpg,stimuli/objects/096b.jpg,stimuli/scenes/105a.jpg,stimuli/scenes/105b.jpg,stimuli/objects/096a.jpg,dist2,target,lure,dist1,0,1,1,1,0,39,39,16,,,,,,,,,,,822.0366936000064,None,823.0364974000258,None,823.0364974000258,None,823.0364974000258,None,823.0364974000258,None,826.0427521000383,None,826.0427521000383,None,826.0427521000383,None,826.0427521000383,None,None,None,None,None,None,,,,,,,,,,student1,2022-10-25_13h56.02.171,Hippopolis_Updating,2021.1.4,60.045418350767946,
Camponello,stimuli/subj_files/student1_cityB.csv,./stimuli/leipzig.jpg,./stimuli/street_plate2.png,HARCSA UTCA,stimuli/scenes/080a.jpg,scene,2,stimuli/objects/029a.jpg,stimuli/scenes/054b.jpg,stimuli/scenes/054a.jpg,stimuli/objects/029b.jpg,stimuli/objects/029a.jpg,dist2,dist1,lure,target,0,1,1,1,0,40,40,59,,,,,,,,,,,828.0531647000462,None,829.0533870999934,None,829.0533870999934,None,829.0533870999934,None,829.0533870999934,None,832.0622378999833,None,832.0622378999833,None,832.0622378999833,None,832.0622378999833,None,None,None,None,None,None,,,,,,,,,,student1,2022-10-25_13h56.02.171,Hippopolis_Updating,2021.1.4,60.045418350767946,
Camponello,stimuli/subj_files/student1_cityB.csv,./stimuli/leipzig.jpg,./stimuli/street_plate2.png,KÍGYÓ UTCA,stimuli/scenes/032a.jpg,scene,0,stimuli/scenes/032a.jpg,stimuli/scenes/032a.jpg,stimuli/objects/088a.jpg,stimuli/scenes/032b.jpg,stimuli/objects/088b.jpg,target,dist1,lure,dist2,0,1,1,1,0,41,41,76,,,,,,,,,,,834.069912099978,None,835.0701376000652,None,835.0701376000652,None,835.0701376000652,None,835.0701376000652,None,838.0817564000608,None,838.0817564000608,None,838.0817564000608,None,838.0817564000608,None,None,None,None,None,None,,,,,,,,,,student1,2022-10-25_13h56.02.171,Hippopolis_Updating,2021.1.4,60.045418350767946,
Camponello,stimuli/subj_files/student1_cityB.csv,./stimuli/leipzig.jpg,./stimuli/street_plate2.png,KESELYŰ UTCA,stimuli/objects/003a.jpg,object,2,stimuli/scenes/100a.jpg,stimuli/objects/029a.jpg,stimuli/scenes/100b.jpg,stimuli/objects/029b.jpg,stimuli/scenes/100a.jpg,dist1,lure,dist2,target,0,1,1,1,0,42,42,6,,,,,,,,,,,840.0869034000207,None,841.0866285000229,None,841.0866285000229,None,841.0866285000229,None,841.0866285000229,None,844.094723300077,None,844.094723300077,None,844.094723300077,None,844.094723300077,None,None,None,None,None,None,,,,,,,,,,student1,2022-10-25_13h56.02.171,Hippopolis_Updating,2021.1.4,60.045418350767946,
Camponello,stimuli/subj_files/student1_cityB.csv,./stimuli/leipzig.jpg,./stimuli/street_plate2.png,SUGÁR UTCA,stimuli/objects/094a.jpg,object,0,stimuli/objects/094a.jpg,stimuli/objects/094b.jpg,stimuli/objects/064b.jpg,stimuli/objects/064a.jpg,stimuli/objects/094a.jpg,lure,dist2,dist1,target,0,1,1,1,0,43,43,40,,,,,,,,,,,846.1027912000427,None,847.1032912000082,None,847.1032912000082,None,847.1032912000082,None,847.1032912000082,None,850.11303950008,None,850.11303950008,None,850.11303950008,None,850.11303950008,None,None,None,None,None,None,,,,,,,,,,student1,2022-10-25_13h56.02.171,Hippopolis_Updating,2021.1.4,60.045418350767946,
Camponello,stimuli/subj_files/student1_cityB.csv,./stimuli/leipzig.jpg,./stimuli/street_plate2.png,VIHAR UTCA,stimuli/objects/048a.jpg,object,2,stimuli/scenes/054a.jpg,stimuli/scenes/054b.jpg,stimuli/scenes/100b.jpg,stimuli/scenes/054a.jpg,stimuli/scenes/100a.jpg,lure,dist2,target,dist1,0,1,1,1,0,44,44,65,,,,,,,,,,,852.1194576000562,None,853.1198809000198,None,853.1198809000198,None,853.1198809000198,None,853.1198809000198,None,856.1340831000125,None,856.1340831000125,None,856.1340831000125,None,856.1340831000125,None,858.1366945999907,None,space,858.1366945999907,None,3.891143099986948,,,,,,,,,student1,2022-10-25_13h56.02.171,Hippopolis_Updating,2021.1.4,60.045418350767946,
Camponello,stimuli/subj_files/student1_cityB.csv,./stimuli/leipzig.jpg,./stimuli/street_plate2.png,TELEFON UTCA,stimuli/scenes/017a.jpg,scene,0,stimuli/scenes/017a.jpg,stimuli/objects/094b.jpg,stimuli/scenes/017b.jpg,stimuli/scenes/017a.jpg,stimuli/objects/094a.jpg,dist2,lure,target,dist1,0,1,1,1,0,45,45,27,,,,,,,,,,,862.0528479000786,None,863.0534225000301,None,863.0534225000301,None,863.0534225000301,None,863.0534225000301,None,866.056353699998,None,866.056353699998,None,866.056353699998,None,866.056353699998,None,None,None,None,None,None,,,,,,,,,,student1,2022-10-25_13h56.02.171,Hippopolis_Updating,2021.1.4,60.045418350767946,
Camponello,stimuli/subj_files/student1_cityB.csv,./stimuli/leipzig.jpg,./stimuli/street_plate2.png,SZŐLŐ UTCA,stimuli/scenes/099a.jpg,scene,0,stimuli/scenes/099a.jpg,stimuli/objects/105a.jpg,stimuli/scenes/099a.jpg,stimuli/scenes/099b.jpg,stimuli/objects/105b.jpg,dist1,target,lure,dist2,0,1,1,1,0,46,46,55,,,,,,,,,,,868.0695398000535,None,869.0716756000184,None,869.0716756000184,None,869.0716756000184,None,869.0716756000184,None,872.0933474000776,None,872.0933474000776,None,872.0933474000776,None,872.0933474000776,None,None,None,None,None,None,,,,,,,,,,student1,2022-10-25_13h56.02.171,Hippopolis_Updating,2021.1.4,60.045418350767946,
Camponello,stimuli/subj_files/student1_cityB.csv,./stimuli/leipzig.jpg,./stimuli/street_plate2.png,TIGRIS UTCA,stimuli/scenes/021a.jpg,scene,0,stimuli/scenes/021a.jpg,stimuli/scenes/022b.jpg,stimuli/scenes/021a.jpg,stimuli/scenes/021b.jpg,stimuli/scenes/022a.jpg,dist2,target,lure,dist1,0,1,1,1,0,47,47,68,,,,,,,,,,,874.0857853000052,None,875.0895320000127,None,875.0895320000127,None,875.0895320000127,None,875.0895320000127,None,878.1107701000292,None,878.1107701000292,None,878.1107701000292,None,878.1107701000292,None,None,None,None,None,None,,,,,,,,,,student1,2022-10-25_13h56.02.171,Hippopolis_Updating,2021.1.4,60.045418350767946,
Camponello,stimuli/subj_files/student1_cityB.csv,./stimuli/leipzig.jpg,./stimuli/street_plate2.png,GYŰRŰ UTCA,stimuli/objects/056a.jpg,object,1,stimuli/objects/013a.jpg,stimuli/objects/013b.jpg,stimuli/objects/087b.jpg,stimuli/objects/013a.jpg,stimuli/objects/087a.jpg,lure,dist2,target,dist1,0,1,1,1,0,48,48,22,,,,,,,,,,,880.1026690000435,None,881.102558100014,None,881.102558100014,None,881.102558100014,None,881.102558100014,None,884.1201974999858,None,884.1201974999858,None,884.1201974999858,None,884.1201974999858,None,None,None,None,None,None,,,,,,,,,,student1,2022-10-25_13h56.02.171,Hippopolis_Updating,2021.1.4,60.045418350767946,
Camponello,stimuli/subj_files/student1_cityB.csv,./stimuli/leipzig.jpg,./stimuli/street_plate2.png,RIBIZLI UTCA,stimuli/objects/088a.jpg,object,0,stimuli/objects/088a.jpg,stimuli/objects/088b.jpg,stimuli/objects/065a.jpg,stimuli/objects/088a.jpg,stimuli/objects/065b.jpg,lure,dist1,target,dist2,0,1,1,1,0,49,49,34,,,,,,,,,,,886.1191892999923,None,887.1197864999995,None,887.1197864999995,None,887.1197864999995,None,887.1197864999995,None,890.1302144000074,None,890.1302144000074,None,890.1302144000074,None,890.1302144000074,None,None,None,None,None,None,,,,,,,,,,student1,2022-10-25_13h56.02.171,Hippopolis_Updating,2021.1.4,60.045418350767946,
Camponello,stimuli/subj_files/student1_cityB.csv,./stimuli/leipzig.jpg,./stimuli/street_plate2.png,TULIPÁN UTCA,stimuli/objects/058a.jpg,object,0,stimuli/objects/058a.jpg,stimuli/objects/117a.jpg,stimuli/objects/117b.jpg,stimuli/objects/058b.jpg,stimuli/objects/058a.jpg,dist1,dist2,lure,target,0,1,1,1,0,50,50,1,,,,,,,,,,,892.1352416999871,None,893.1356792000588,None,893.1356792000588,None,893.1356792000588,None,893.1356792000588,None,896.1483943000203,None,896.1483943000203,None,896.1483943000203,None,896.1483943000203,None,None,None,None,None,None,,,,,,,,,,student1,2022-10-25_13h56.02.171,Hippopolis_Updating,2021.1.4,60.045418350767946,
Camponello,stimuli/subj_files/student1_cityB.csv,./stimuli/leipzig.jpg,./stimuli/street_plate2.png,SZOBOR UTCA,stimuli/objects/031a.jpg,object,1,stimuli/objects/010a.jpg,stimuli/objects/010a.jpg,stimuli/objects/044b.jpg,stimuli/objects/044a.jpg,stimuli/objects/010b.jpg,target,dist2,dist1,lure,0,1,1,1,0,51,51,79,,,,,,,,,,,898.1518803000217,None,899.152591500082,None,899.152591500082,None,899.152591500082,None,899.152591500082,None,902.1632088000188,None,902.1632088000188,None,902.1632088000188,None,902.1632088000188,None,None,None,None,None,None,,,,,,,,,,student1,2022-10-25_13h56.02.171,Hippopolis_Updating,2021.1.4,60.045418350767946,
Camponello,stimuli/subj_files/student1_cityB.csv,./stimuli/leipzig.jpg,./stimuli/street_plate2.png,BETON UTCA,stimuli/objects/104a.jpg,object,2,stimuli/scenes/063a.jpg,stimuli/scenes/063b.jpg,stimuli/scenes/063a.jpg,stimuli/objects/054a.jpg,stimuli/objects/054b.jpg,lure,target,dist1,dist2,0,1,1,1,0,52,52,52,,,,,,,,,,,904.1686731000664,None,905.1686974000186,None,905.1686974000186,None,905.1686974000186,None,905.1686974000186,None,908.1760719000595,None,908.1760719000595,None,908.1760719000595,None,908.1760719000595,None,None,None,None,None,None,,,,,,,,,,student1,2022-10-25_13h56.02.171,Hippopolis_Updating,2021.1.4,60.045418350767946,
Camponello,stimuli/subj_files/student1_cityB.csv,./stimuli/leipzig.jpg,./stimuli/street_plate2.png,PAPRIKA UTCA,stimuli/objects/033a.jpg,object,0,stimuli/objects/033a.jpg,stimuli/scenes/023a.jpg,stimuli/objects/033b.jpg,stimuli/scenes/023b.jpg,stimuli/objects/033a.jpg,dist1,lure,dist2,target,0,1,1,1,0,53,53,30,,,,,,,,,,,910.1851351000369,None,911.1859352000756,None,911.1859352000756,None,911.1859352000756,None,911.1859352000756,None,914.1862935000099,None,914.1862935000099,None,914.1862935000099,None,914.1862935000099,None,None,None,None,None,None,,,,,,,,,,student1,2022-10-25_13h56.02.171,Hippopolis_Updating,2021.1.4,60.045418350767946,
Camponello,stimuli/subj_files/student1_cityB.csv,./stimuli/leipzig.jpg,./stimuli/street_plate2.png,BANÁN UTCA,stimuli/scenes/045a.jpg,scene,0,stimuli/scenes/045a.jpg,stimuli/scenes/045b.jpg,stimuli/scenes/045a.jpg,stimuli/scenes/112b.jpg,stimuli/scenes/112a.jpg,lure,target,dist2,dist1,0,1,1,1,0,54,54,57,,,,,,,,,,,916.1848374999827,None,917.1857412999962,None,917.1857412999962,None,917.1857412999962,None,917.1857412999962,None,920.1900100000203,None,920.1900100000203,None,920.1900100000203,None,920.1900100000203,None,None,None,None,None,None,,,,,,,,,,student1,2022-10-25_13h56.02.171,Hippopolis_Updating,2021.1.4,60.045418350767946,
Camponello,stimuli/subj_files/student1_cityB.csv,./stimuli/leipzig.jpg,./stimuli/street_plate2.png,SZÖCSKE UTCA,stimuli/scenes/026a.jpg,scene,2,stimuli/objects/061a.jpg,stimuli/scenes/063a.jpg,stimuli/objects/061a.jpg,stimuli/scenes/063b.jpg,stimuli/objects/061b.jpg,dist1,target,dist2,lure,0,1,1,1,0,55,55,71,,,,,,,,,,,922.2021500000264,None,923.2045804000227,None,923.2045804000227,None,923.2045804000227,None,923.2045804000227,None,926.2298297000816,None,926.2298297000816,None,926.2298297000816,None,926.2298297000816,None,None,None,None,None,None,,,,,,,,,,student1,2022-10-25_13h56.02.171,Hippopolis_Updating,2021.1.4,60.045418350767946,
Camponello,stimuli/subj_files/student1_cityB.csv,./stimuli/leipzig.jpg,./stimuli/street_plate2.png,HORGONY UTCA,stimuli/objects/039a.jpg,object,0,stimuli/objects/039a.jpg,stimuli/objects/039b.jpg,stimuli/objects/039a.jpg,stimuli/objects/092b.jpg,stimuli/objects/092a.jpg,lure,target,dist2,dist1,0,1,1,1,0,56,56,26,,,,,,,,,,,928.2186379000777,None,929.2195127999876,None,929.2195127999876,None,929.2195127999876,None,929.2195127999876,None,932.2356119999895,None,932.2356119999895,None,932.2356119999895,None,932.2356119999895,None,None,None,None,None,None,,,,,,,,,,student1,2022-10-25_13h56.02.171,Hippopolis_Updating,2021.1.4,60.045418350767946,
Camponello,stimuli/subj_files/student1_cityB.csv,./stimuli/leipzig.jpg,./stimuli/street_plate2.png,ORVOS UTCA,stimuli/objects/016a.jpg,object,0,stimuli/objects/016a.jpg,stimuli/scenes/089a.jpg,stimuli/scenes/089b.jpg,stimuli/objects/016a.jpg,stimuli/objects/016b.jpg,dist1,dist2,target,lure,0,1,1,1,0,57,57,4,,,,,,,,,,,934.2354016000172,None,935.2355767000699,None,935.2355767000699,None,935.2355767000699,None,935.2355767000699,None,938.2419409999857,None,938.2419409999857,None,938.2419409999857,None,938.2419409999857,None,None,None,None,None,None,,,,,,,,,,student1,2022-10-25_13h56.02.171,Hippopolis_Updating,2021.1.4,60.045418350767946,
Camponello,stimuli/subj_files/student1_cityB.csv,./stimuli/leipzig.jpg,./stimuli/street_plate2.png,SÜTŐ UTCA,stimuli/scenes/038a.jpg,scene,0,stimuli/scenes/038a.jpg,stimuli/scenes/038b.jpg,stimuli/objects/033b.jpg,stimuli/objects/033a.jpg,stimuli/scenes/038a.jpg,lure,dist2,dist1,target,0,1,1,1,0,58,58,5,,,,,,,,,,,940.2517034000484,None,941.2516928000841,None,941.2516928000841,None,941.2516928000841,None,941.2516928000841,None,944.2523448000429,None,944.2523448000429,None,944.2523448000429,None,944.2523448000429,None,None,None,None,None,None,,,,,,,,,,student1,2022-10-25_13h56.02.171,Hippopolis_Updating,2021.1.4,60.045418350767946,
Camponello,stimuli/subj_files/student1_cityB.csv,./stimuli/leipzig.jpg,./stimuli/street_plate2.png,MENTA UTCA,stimuli/objects/092a.jpg,object,0,stimuli/objects/092a.jpg,stimuli/scenes/069a.jpg,stimuli/scenes/069b.jpg,stimuli/objects/092a.jpg,stimuli/objects/092b.jpg,dist1,dist2,target,lure,0,1,1,1,0,59,59,67,,,,,,,,,,,946.2513099000789,None,947.2514588000486,None,947.2514588000486,None,947.2514588000486,None,947.2514588000486,None,950.2634509999771,None,950.2634509999771,None,950.2634509999771,None,950.2634509999771,None,None,None,None,None,None,,,,,,,,,,student1,2022-10-25_13h56.02.171,Hippopolis_Updating,2021.1.4,60.045418350767946,
Camponello,stimuli/subj_files/student1_cityB.csv,./stimuli/leipzig.jpg,./stimuli/street_plate2.png,SZALVÉTA UTCA,stimuli/objects/072a.jpg,object,0,stimuli/objects/072a.jpg,stimuli/scenes/045b.jpg,stimuli/scenes/045a.jpg,stimuli/objects/072b.jpg,stimuli/objects/072a.jpg,dist2,dist1,lure,target,0,1,1,1,0,60,60,54,,,,,,,,,,,952.2682151000481,None,953.2723153000697,None,953.2723153000697,None,953.2723153000697,None,953.2723153000697,None,956.2924262000015,None,956.2924262000015,None,956.2924262000015,None,956.2924262000015,None,None,None,None,None,None,,,,,,,,,,student1,2022-10-25_13h56.02.171,Hippopolis_Updating,2021.1.4,60.045418350767946,
Camponello,stimuli/subj_files/student1_cityB.csv,./stimuli/leipzig.jpg,./stimuli/street_plate2.png,TÁSKA UTCA,stimuli/objects/110a.jpg,object,2,stimuli/scenes/079a.jpg,stimuli/scenes/079a.jpg,stimuli/objects/037b.jpg,stimuli/objects/037a.jpg,stimuli/scenes/079b.jpg,target,dist2,dist1,lure,0,1,1,1,0,61,61,33,,,,,,,,,,,958.2847610000754,None,959.2845118000405,None,959.2845118000405,None,959.2845118000405,None,959.2845118000405,None,962.2948949000565,None,962.2948949000565,None,962.2948949000565,None,962.2948949000565,None,None,None,None,None,None,,,,,,,,,,student1,2022-10-25_13h56.02.171,Hippopolis_Updating,2021.1.4,60.045418350767946,
Camponello,stimuli/subj_files/student1_cityB.csv,./stimuli/leipzig.jpg,./stimuli/street_plate2.png,MAJOM UTCA,stimuli/objects/018a.jpg,object,0,stimuli/objects/018a.jpg,stimuli/objects/018a.jpg,stimuli/scenes/092b.jpg,stimuli/objects/018b.jpg,stimuli/scenes/092a.jpg,target,dist2,lure,dist1,0,1,1,1,0,62,62,78,,,,,,,,,,,964.3008631999837,None,965.3013818999752,None,965.3013818999752,None,965.3013818999752,None,965.3013818999752,None,968.3161130000371,None,968.3161130000371,None,968.3161130000371,None,968.3161130000371,None,None,None,None,None,None,,,,,,,,,,student1,2022-10-25_13h56.02.171,Hippopolis_Updating,2021.1.4,60.045418350767946,
Camponello,stimuli/subj_files/student1_cityB.csv,./stimuli/leipzig.jpg,./stimuli/street_plate2.png,BOHÓC UTCA,stimuli/objects/064a.jpg,object,0,stimuli/objects/064a.jpg,stimuli/objects/040b.jpg,stimuli/objects/040a.jpg,stimuli/objects/064a.jpg,stimuli/objects/064b.jpg,dist2,dist1,target,lure,0,1,1,1,0,63,63,17,,,,,,,,,,,970.3173909999896,None,971.3177570999833,None,971.3177570999833,None,971.3177570999833,None,971.3177570999833,None,974.3230469999835,None,974.3230469999835,None,974.3230469999835,None,974.3230469999835,None,None,None,None,None,None,,,,,,,,,,student1,2022-10-25_13h56.02.171,Hippopolis_Updating,2021.1.4,60.045418350767946,
Camponello,stimuli/subj_files/student1_cityB.csv,./stimuli/leipzig.jpg,./stimuli/street_plate2.png,SZŐNYEG UTCA,stimuli/objects/040a.jpg,object,0,stimuli/objects/040a.jpg,stimuli/objects/040a.jpg,stimuli/objects/040b.jpg,stimuli/objects/019b.jpg,stimuli/objects/019a.jpg,target,lure,dist2,dist1,0,1,1,1,0,64,64,29,,,,,,,,,,,976.3339800999966,None,977.3345215000445,None,977.3345215000445,None,977.3345215000445,None,977.3345215000445,None,980.3485791999847,None,980.3485791999847,None,980.3485791999847,None,980.3485791999847,None,None,None,None,None,None,,,,,,,,,,student1,2022-10-25_13h56.02.171,Hippopolis_Updating,2021.1.4,60.045418350767946,
Camponello,stimuli/subj_files/student1_cityB.csv,./stimuli/leipzig.jpg,./stimuli/street_plate2.png,TÉRKÉP UTCA,stimuli/scenes/013a.jpg,scene,0,stimuli/scenes/013a.jpg,stimuli/scenes/006b.jpg,stimuli/scenes/006a.jpg,stimuli/scenes/013a.jpg,stimuli/scenes/013b.jpg,dist2,dist1,target,lure,0,1,1,1,0,65,65,63,,,,,,,,,,,982.3505038000876,None,983.3513683000347,None,983.3513683000347,None,983.3513683000347,None,983.3513683000347,None,986.3548472999828,None,986.3548472999828,None,986.3548472999828,None,986.3548472999828,None,None,None,None,None,None,,,,,,,,,,student1,2022-10-25_13h56.02.171,Hippopolis_Updating,2021.1.4,60.045418350767946,
Camponello,stimuli/subj_files/student1_cityB.csv,./stimuli/leipzig.jpg,./stimuli/street_plate2.png,SAJTÓ UTCA,stimuli/scenes/112a.jpg,scene,0,stimuli/scenes/112a.jpg,stimuli/objects/018a.jpg,stimuli/scenes/112b.jpg,stimuli/scenes/112a.jpg,stimuli/objects/018b.jpg,dist1,lure,target,dist2,0,1,1,1,0,66,66,15,,,,,,,,,,,988.367439600057,None,989.3681664000032,None,989.3681664000032,None,989.3681664000032,None,989.3681664000032,None,992.376183000044,None,992.376183000044,None,992.376183000044,None,992.376183000044,None,None,None,None,None,None,,,,,,,,,,student1,2022-10-25_13h56.02.171,Hippopolis_Updating,2021.1.4,60.045418350767946,
Camponello,stimuli/subj_files/student1_cityB.csv,./stimuli/leipzig.jpg,./stimuli/street_plate2.png,PÁRNA UTCA,stimuli/objects/112a.jpg,object,0,stimuli/objects/112a.jpg,stimuli/objects/112b.jpg,stimuli/scenes/032b.jpg,stimuli/scenes/032a.jpg,stimuli/objects/112a.jpg,lure,dist2,dist1,target,0,1,1,1,0,67,67,77,,,,,,,,,,,994.383785400074,None,995.3842727000592,None,995.3842727000592,None,995.3842727000592,None,995.3842727000592,None,998.3911318000173,None,998.3911318000173,None,998.3911318000173,None,998.3911318000173,None,None,None,None,None,None,,,,,,,,,,student1,2022-10-25_13h56.02.171,Hippopolis_Updating,2021.1.4,60.045418350767946,
Camponello,stimuli/subj_files/student1_cityB.csv,./stimuli/leipzig.jpg,./stimuli/street_plate2.png,KANÁL UTCA,stimuli/scenes/057a.jpg,scene,1,stimuli/scenes/020a.jpg,stimuli/scenes/020b.jpg,stimuli/scenes/020a.jpg,stimuli/scenes/062a.jpg,stimuli/scenes/062b.jpg,lure,target,dist1,dist2,0,1,1,1,0,68,68,14,,,,,,,,,,,1000.4005084000528,None,1001.4010373000056,None,1001.4010373000056,None,1001.4010373000056,None,1001.4010373000056,None,1004.4100293000229,None,1004.4100293000229,None,1004.4100293000229,None,1004.4100293000229,None,None,None,None,None,None,,,,,,,,,,student1,2022-10-25_13h56.02.171,Hippopolis_Updating,2021.1.4,60.045418350767946,
Camponello,stimuli/subj_files/student1_cityB.csv,./stimuli/leipzig.jpg,./stimuli/street_plate2.png,POLIP UTCA,stimuli/scenes/077a.jpg,scene,0,stimuli/scenes/077a.jpg,stimuli/scenes/077b.jpg,stimuli/scenes/077a.jpg,stimuli/scenes/091b.jpg,stimuli/scenes/091a.jpg,lure,target,dist2,dist1,0,1,1,1,0,69,69,49,,,,,,,,,,,1006.4173487999942,None,1007.4178148000501,None,1007.4178148000501,None,1007.4178148000501,None,1007.4178148000501,None,1010.4263955000788,None,1010.4263955000788,None,1010.4263955000788,None,1010.4263955000788,None,None,None,None,None,None,,,,,,,,,,student1,2022-10-25_13h56.02.171,Hippopolis_Updating,2021.1.4,60.045418350767946,
Camponello,stimuli/subj_files/student1_cityB.csv,./stimuli/leipzig.jpg,./stimuli/street_plate2.png,MOSODA UTCA,stimuli/objects/052a.jpg,object,0,stimuli/objects/052a.jpg,stimuli/objects/052b.jpg,stimuli/scenes/035a.jpg,stimuli/objects/052a.jpg,stimuli/scenes/035b.jpg,lure,dist1,target,dist2,0,1,1,1,0,70,70,51,,,,,,,,,,,1012.433776000049,None,1013.4338394000661,None,1013.4338394000661,None,1013.4338394000661,None,1013.4338394000661,None,1016.4470935000572,None,1016.4470935000572,None,1016.4470935000572,None,1016.4470935000572,None,None,None,None,None,None,,,,,,,,,,student1,2022-10-25_13h56.02.171,Hippopolis_Updating,2021.1.4,60.045418350767946,
Camponello,stimuli/subj_files/student1_cityB.csv,./stimuli/leipzig.jpg,./stimuli/street_plate2.png,ZEBRA UTCA,stimuli/scenes/106a.jpg,scene,0,stimuli/scenes/106a.jpg,stimuli/scenes/030a.jpg,stimuli/scenes/106a.jpg,stimuli/scenes/106b.jpg,stimuli/scenes/030b.jpg,dist1,target,lure,dist2,0,1,1,1,0,71,71,12,,,,,,,,,,,1018.4499164000154,None,1019.4508635000093,None,1019.4508635000093,None,1019.4508635000093,None,1019.4508635000093,None,1022.4570688999956,None,1022.4570688999956,None,1022.4570688999956,None,1022.4570688999956,None,None,None,None,None,None,,,,,,,,,,student1,2022-10-25_13h56.02.171,Hippopolis_Updating,2021.1.4,60.045418350767946,
