CityName,StimuliFile,CityImage,StreetSign,Cue,Image,Category,Novelty,UpdateImage,TestImage1,TestImage2,TestImage3,TestImage4,TestImage1Type,TestImage2Type,TestImage3Type,TestImage4Type,CityBlock.thisRepN,CityBlock.thisTrialN,CityBlock.thisN,CityBlock.thisIndex,LearningTrials.thisRepN,LearningTrials.thisTrialN,LearningTrials.thisN,LearningTrials.thisIndex,learning_instructions_text.started,learning_instructions_text.stopped,intro_key.keys,intro_key.rt,intro_key.started,intro_key.stopped,cityname_text.started,cityname_text.stopped,city_image.started,city_image.stopped,fx_cross.started,fx_cross.stopped,plate.started,plate.stopped,city_text.started,city_text.stopped,street_text.started,street_text.stopped,fx_cross_prediction.started,fx_cross_prediction.stopped,plate_updating.started,plate_updating.stopped,city_text_updating.started,city_text_updating.stopped,street_text_updating.started,street_text_updating.stopped,updating_image.started,updating_image.stopped,short_break_text.started,short_break_text.stopped,short_break_key.keys,short_break_key.started,short_break_key.stopped,short_break_key.rt,break_text.started,break_text.stopped,break_key_resp.keys,break_key_resp.rt,break_key_resp.started,break_key_resp.stopped,end_text.started,end_text.stopped,participant,date,expName,psychopyVersion,frameRate,
,,,,,,,,,,,,,,,,,,,,,,,,,14.017861799977254,None,space,3.3805204999807756,14.017861799977254,None,,,,,,,,,,,,,,,,,,,,,,,,,,,,,,,,,,,,,student1,2022-10-20_15h53.50.167,Hippopolis_Updating,2021.1.4,59.97451083430298,
Hippopolis,stimuli/subj_files/student1_cityA.csv,./stimuli/frankfurt.jpg,./stimuli/street_plate1.png,EGÉR UTCA,stimuli/scenes/071a.jpg,scene,1,stimuli/scenes/116a.jpg,stimuli/scenes/116b.jpg,stimuli/scenes/116a.jpg,stimuli/scenes/009b.jpg,stimuli/scenes/009a.jpg,lure,target,dist2,dist1,0,0,0,0,0,0,0,29,,,,,,,17.49711450000177,None,17.49711450000177,None,20.41989759998978,None,21.444304299977375,None,21.444304299977375,None,21.444304299977375,None,21.444304299977375,None,24.450603799981764,None,24.450603799981764,None,24.450603799981764,None,24.450603799981764,None,None,None,None,None,None,,,,,,,,,,student1,2022-10-20_15h53.50.167,Hippopolis_Updating,2021.1.4,59.97451083430298,
Hippopolis,stimuli/subj_files/student1_cityA.csv,./stimuli/frankfurt.jpg,./stimuli/street_plate1.png,ZSEMLE UTCA,stimuli/objects/115a.jpg,object,1,stimuli/objects/053a.jpg,stimuli/objects/007a.jpg,stimuli/objects/053a.jpg,stimuli/objects/007b.jpg,stimuli/objects/053b.jpg,dist1,target,dist2,lure,0,0,0,0,0,1,1,47,,,,,,,,,,,26.4326317999803,None,27.43756009999197,None,27.43756009999197,None,27.43756009999197,None,27.43756009999197,None,30.461754599993583,None,30.461754599993583,None,30.461754599993583,None,30.461754599993583,None,None,None,None,None,None,,,,,,,,,,student1,2022-10-20_15h53.50.167,Hippopolis_Updating,2021.1.4,59.97451083430298,
Hippopolis,stimuli/subj_files/student1_cityA.csv,./stimuli/frankfurt.jpg,./stimuli/street_plate1.png,TOLLTARTÓ UTCA,stimuli/objects/032a.jpg,object,2,stimuli/scenes/119a.jpg,stimuli/scenes/119a.jpg,stimuli/scenes/104b.jpg,stimuli/scenes/104a.jpg,stimuli/scenes/119b.jpg,target,dist2,dist1,lure,0,0,0,0,0,2,2,67,,,,,,,,,,,32.44867709997925,None,33.450254700001096,None,33.450254700001096,None,33.450254700001096,None,33.450254700001096,None,36.479854199977126,None,36.479854199977126,None,36.479854199977126,None,36.479854199977126,None,None,None,None,None,None,,,,,,,,,,student1,2022-10-20_15h53.50.167,Hippopolis_Updating,2021.1.4,59.97451083430298,
Hippopolis,stimuli/subj_files/student1_cityA.csv,./stimuli/frankfurt.jpg,./stimuli/street_plate1.png,KOKTÉL UTCA,stimuli/scenes/008a.jpg,scene,2,stimuli/objects/012a.jpg,stimuli/objects/036b.jpg,stimuli/objects/012b.jpg,stimuli/objects/036a.jpg,stimuli/objects/012a.jpg,dist2,lure,dist1,target,0,0,0,0,0,3,3,46,,,,,,,,,,,38.46573749999516,None,39.46580340000219,None,39.46580340000219,None,39.46580340000219,None,39.46580340000219,None,42.487089799979,None,42.487089799979,None,42.487089799979,None,42.487089799979,None,None,None,None,None,None,,,,,,,,,,student1,2022-10-20_15h53.50.167,Hippopolis_Updating,2021.1.4,59.97451083430298,
Hippopolis,stimuli/subj_files/student1_cityA.csv,./stimuli/frankfurt.jpg,./stimuli/street_plate1.png,KORONG UTCA,stimuli/scenes/065a.jpg,scene,1,stimuli/scenes/004a.jpg,stimuli/scenes/004a.jpg,stimuli/scenes/011b.jpg,stimuli/scenes/011a.jpg,stimuli/scenes/004b.jpg,target,dist2,dist1,lure,0,0,0,0,0,4,4,53,,,,,,,,,,,44.481939699995564,None,45.4839480999799,None,45.4839480999799,None,45.4839480999799,None,45.4839480999799,None,48.514076299994485,None,48.514076299994485,None,48.514076299994485,None,48.514076299994485,None,None,None,None,None,None,,,,,,,,,,student1,2022-10-20_15h53.50.167,Hippopolis_Updating,2021.1.4,59.97451083430298,
Hippopolis,stimuli/subj_files/student1_cityA.csv,./stimuli/frankfurt.jpg,./stimuli/street_plate1.png,TOJÁS UTCA,stimuli/objects/021a.jpg,object,2,stimuli/scenes/034a.jpg,stimuli/scenes/034a.jpg,stimuli/objects/059a.jpg,stimuli/objects/059b.jpg,stimuli/scenes/034b.jpg,target,dist1,dist2,lure,0,0,0,0,0,5,5,37,,,,,,,,,,,50.49839890000294,None,51.5010335999832,None,51.5010335999832,None,51.5010335999832,None,51.5010335999832,None,54.52641849999782,None,54.52641849999782,None,54.52641849999782,None,54.52641849999782,None,None,None,None,None,None,,,,,,,,,,student1,2022-10-20_15h53.50.167,Hippopolis_Updating,2021.1.4,59.97451083430298,
Hippopolis,stimuli/subj_files/student1_cityA.csv,./stimuli/frankfurt.jpg,./stimuli/street_plate1.png,HEGEDŰ UTCA,stimuli/scenes/113a.jpg,scene,2,stimuli/objects/036a.jpg,stimuli/objects/036b.jpg,stimuli/scenes/059b.jpg,stimuli/scenes/059a.jpg,stimuli/objects/036a.jpg,lure,dist2,dist1,target,0,0,0,0,0,6,6,69,,,,,,,,,,,56.51475069997832,None,57.517660099983914,None,57.517660099983914,None,57.517660099983914,None,57.517660099983914,None,60.545831099996576,None,60.545831099996576,None,60.545831099996576,None,60.545831099996576,None,None,None,None,None,None,,,,,,,,,,student1,2022-10-20_15h53.50.167,Hippopolis_Updating,2021.1.4,59.97451083430298,
Hippopolis,stimuli/subj_files/student1_cityA.csv,./stimuli/frankfurt.jpg,./stimuli/street_plate1.png,KIRAKÓ UTCA,stimuli/objects/079a.jpg,object,2,stimuli/scenes/070a.jpg,stimuli/scenes/070a.jpg,stimuli/scenes/070b.jpg,stimuli/objects/043b.jpg,stimuli/objects/043a.jpg,target,lure,dist2,dist1,0,0,0,0,0,7,7,57,,,,,,,,,,,62.53125899998122,None,63.53177319999668,None,63.53177319999668,None,63.53177319999668,None,63.53177319999668,None,66.54778900000383,None,66.54778900000383,None,66.54778900000383,None,66.54778900000383,None,None,None,None,None,None,,,,,,,,,,student1,2022-10-20_15h53.50.167,Hippopolis_Updating,2021.1.4,59.97451083430298,
Hippopolis,stimuli/subj_files/student1_cityA.csv,./stimuli/frankfurt.jpg,./stimuli/street_plate1.png,ÜVEG UTCA,stimuli/scenes/061a.jpg,scene,2,stimuli/objects/085a.jpg,stimuli/objects/085b.jpg,stimuli/scenes/084a.jpg,stimuli/objects/085a.jpg,stimuli/scenes/084b.jpg,lure,dist1,target,dist2,0,0,0,0,0,8,8,19,,,,,,,,,,,68.54814989998704,None,69.54964519999339,None,69.54964519999339,None,69.54964519999339,None,69.54964519999339,None,72.56807320000371,None,72.56807320000371,None,72.56807320000371,None,72.56807320000371,None,None,None,None,None,None,,,,,,,,,,student1,2022-10-20_15h53.50.167,Hippopolis_Updating,2021.1.4,59.97451083430298,
Hippopolis,stimuli/subj_files/student1_cityA.csv,./stimuli/frankfurt.jpg,./stimuli/street_plate1.png,CITROM UTCA,stimuli/scenes/036a.jpg,scene,2,stimuli/objects/043a.jpg,stimuli/objects/043b.jpg,stimuli/objects/067a.jpg,stimuli/objects/043a.jpg,stimuli/objects/067b.jpg,lure,dist1,target,dist2,0,0,0,0,0,9,9,26,,,,,,,,,,,74.56461420000414,None,75.56504099999438,None,75.56504099999438,None,75.56504099999438,None,75.56504099999438,None,78.58483899998828,None,78.58483899998828,None,78.58483899998828,None,78.58483899998828,None,None,None,None,None,None,,,,,,,,,,student1,2022-10-20_15h53.50.167,Hippopolis_Updating,2021.1.4,59.97451083430298,
Hippopolis,stimuli/subj_files/student1_cityA.csv,./stimuli/frankfurt.jpg,./stimuli/street_plate1.png,KÖTÉL UTCA,stimuli/objects/051a.jpg,object,0,stimuli/objects/051a.jpg,stimuli/scenes/024b.jpg,stimuli/objects/051b.jpg,stimuli/scenes/024a.jpg,stimuli/objects/051a.jpg,dist2,lure,dist1,target,0,0,0,0,0,10,10,7,,,,,,,,,,,80.5811507999897,None,81.58129859998007,None,81.58129859998007,None,81.58129859998007,None,81.58129859998007,None,84.58257489997777,None,84.58257489997777,None,84.58257489997777,None,84.58257489997777,None,None,None,None,None,None,,,,,,,,,,student1,2022-10-20_15h53.50.167,Hippopolis_Updating,2021.1.4,59.97451083430298,
Hippopolis,stimuli/subj_files/student1_cityA.csv,./stimuli/frankfurt.jpg,./stimuli/street_plate1.png,LÉTRA UTCA,stimuli/objects/047a.jpg,object,1,stimuli/objects/015a.jpg,stimuli/objects/108b.jpg,stimuli/objects/015b.jpg,stimuli/objects/108a.jpg,stimuli/objects/015a.jpg,dist2,lure,dist1,target,0,0,0,0,0,11,11,33,,,,,,,,,,,86.59766179998405,None,87.59873519997927,None,87.59873519997927,None,87.59873519997927,None,87.59873519997927,None,90.61541979998583,None,90.61541979998583,None,90.61541979998583,None,90.61541979998583,None,None,None,None,None,None,,,,,,,,,,student1,2022-10-20_15h53.50.167,Hippopolis_Updating,2021.1.4,59.97451083430298,
Hippopolis,stimuli/subj_files/student1_cityA.csv,./stimuli/frankfurt.jpg,./stimuli/street_plate1.png,MOTOR UTCA,stimuli/objects/097a.jpg,object,1,stimuli/objects/071a.jpg,stimuli/objects/015b.jpg,stimuli/objects/071b.jpg,stimuli/objects/071a.jpg,stimuli/objects/015a.jpg,dist2,lure,target,dist1,0,0,0,0,0,12,12,36,,,,,,,,,,,92.61436749997665,None,93.61473509998177,None,93.61473509998177,None,93.61473509998177,None,93.61473509998177,None,96.63246629998321,None,96.63246629998321,None,96.63246629998321,None,96.63246629998321,None,None,None,None,None,None,,,,,,,,,,student1,2022-10-20_15h53.50.167,Hippopolis_Updating,2021.1.4,59.97451083430298,
Hippopolis,stimuli/subj_files/student1_cityA.csv,./stimuli/frankfurt.jpg,./stimuli/street_plate1.png,CUKOR UTCA,stimuli/objects/111a.jpg,object,0,stimuli/objects/111a.jpg,stimuli/objects/089b.jpg,stimuli/objects/111b.jpg,stimuli/objects/111a.jpg,stimuli/objects/089a.jpg,dist2,lure,target,dist1,0,0,0,0,0,13,13,30,,,,,,,,,,,98.63089149998268,None,99.6313537999813,None,99.6313537999813,None,99.6313537999813,None,99.6313537999813,None,102.64593969998532,None,102.64593969998532,None,102.64593969998532,None,102.64593969998532,None,None,None,None,None,None,,,,,,,,,,student1,2022-10-20_15h53.50.167,Hippopolis_Updating,2021.1.4,59.97451083430298,
Hippopolis,stimuli/subj_files/student1_cityA.csv,./stimuli/frankfurt.jpg,./stimuli/street_plate1.png,KÖNYVTÁR UTCA,stimuli/objects/113a.jpg,object,1,stimuli/objects/109a.jpg,stimuli/objects/109a.jpg,stimuli/objects/109b.jpg,stimuli/scenes/067a.jpg,stimuli/scenes/067b.jpg,target,lure,dist1,dist2,0,0,0,0,0,14,14,42,,,,,,,,,,,104.64749529998517,None,105.65067589998944,None,105.65067589998944,None,105.65067589998944,None,105.65067589998944,None,108.6822881999833,None,108.6822881999833,None,108.6822881999833,None,108.6822881999833,None,None,None,None,None,None,,,,,,,,,,student1,2022-10-20_15h53.50.167,Hippopolis_Updating,2021.1.4,59.97451083430298,
Hippopolis,stimuli/subj_files/student1_cityA.csv,./stimuli/frankfurt.jpg,./stimuli/street_plate1.png,FOGAS UTCA,stimuli/scenes/025a.jpg,scene,1,stimuli/scenes/018a.jpg,stimuli/scenes/018b.jpg,stimuli/scenes/064a.jpg,stimuli/scenes/018a.jpg,stimuli/scenes/064b.jpg,lure,dist1,target,dist2,0,0,0,0,0,15,15,38,,,,,,,,,,,110.66393169999355,None,111.66464519998408,None,111.66464519998408,None,111.66464519998408,None,111.66464519998408,None,114.67810289998306,None,114.67810289998306,None,114.67810289998306,None,114.67810289998306,None,None,None,None,None,None,,,,,,,,,,student1,2022-10-20_15h53.50.167,Hippopolis_Updating,2021.1.4,59.97451083430298,
Hippopolis,stimuli/subj_files/student1_cityA.csv,./stimuli/frankfurt.jpg,./stimuli/street_plate1.png,FIÓK UTCA,stimuli/scenes/002a.jpg,scene,1,stimuli/scenes/014a.jpg,stimuli/scenes/014a.jpg,stimuli/objects/004a.jpg,stimuli/objects/004b.jpg,stimuli/scenes/014b.jpg,target,dist1,dist2,lure,0,0,0,0,0,16,16,73,,,,,,,,,,,116.68057619998581,None,117.68105650000507,None,117.68105650000507,None,117.68105650000507,None,117.68105650000507,None,120.69627230000333,None,120.69627230000333,None,120.69627230000333,None,120.69627230000333,None,None,None,None,None,None,,,,,,,,,,student1,2022-10-20_15h53.50.167,Hippopolis_Updating,2021.1.4,59.97451083430298,
Hippopolis,stimuli/subj_files/student1_cityA.csv,./stimuli/frankfurt.jpg,./stimuli/street_plate1.png,OLDAL UTCA,stimuli/scenes/093a.jpg,scene,2,stimuli/objects/107a.jpg,stimuli/objects/107b.jpg,stimuli/objects/022a.jpg,stimuli/objects/107a.jpg,stimuli/objects/022b.jpg,lure,dist1,target,dist2,0,0,0,0,0,17,17,11,,,,,,,,,,,122.69754249998368,None,123.69768660000409,None,123.69768660000409,None,123.69768660000409,None,123.69768660000409,None,126.71583329999703,None,126.71583329999703,None,126.71583329999703,None,126.71583329999703,None,None,None,None,None,None,,,,,,,,,,student1,2022-10-20_15h53.50.167,Hippopolis_Updating,2021.1.4,59.97451083430298,
Hippopolis,stimuli/subj_files/student1_cityA.csv,./stimuli/frankfurt.jpg,./stimuli/street_plate1.png,KERET UTCA,stimuli/scenes/027a.jpg,scene,0,stimuli/scenes/027a.jpg,stimuli/objects/100a.jpg,stimuli/objects/100b.jpg,stimuli/scenes/027a.jpg,stimuli/scenes/027b.jpg,dist1,dist2,target,lure,0,0,0,0,0,18,18,3,,,,,,,,,,,128.71366589999525,None,129.71466040000087,None,129.71466040000087,None,129.71466040000087,None,129.71466040000087,None,132.71574159999727,None,132.71574159999727,None,132.71574159999727,None,132.71574159999727,None,None,None,None,None,None,,,,,,,,,,student1,2022-10-20_15h53.50.167,Hippopolis_Updating,2021.1.4,59.97451083430298,
Hippopolis,stimuli/subj_files/student1_cityA.csv,./stimuli/frankfurt.jpg,./stimuli/street_plate1.png,KAKAS UTCA,stimuli/objects/002a.jpg,object,2,stimuli/scenes/074a.jpg,stimuli/scenes/074b.jpg,stimuli/scenes/074a.jpg,stimuli/scenes/070a.jpg,stimuli/scenes/070b.jpg,lure,target,dist1,dist2,0,0,0,0,0,19,19,24,,,,,,,,,,,134.73073409998324,None,135.7306482999993,None,135.7306482999993,None,135.7306482999993,None,135.7306482999993,None,138.74309259999427,None,138.74309259999427,None,138.74309259999427,None,138.74309259999427,None,None,None,None,None,None,,,,,,,,,,student1,2022-10-20_15h53.50.167,Hippopolis_Updating,2021.1.4,59.97451083430298,
Hippopolis,stimuli/subj_files/student1_cityA.csv,./stimuli/frankfurt.jpg,./stimuli/street_plate1.png,KARTON UTCA,stimuli/objects/101a.jpg,object,2,stimuli/scenes/044a.jpg,stimuli/scenes/074a.jpg,stimuli/scenes/044b.jpg,stimuli/scenes/044a.jpg,stimuli/scenes/074b.jpg,dist1,lure,target,dist2,0,0,0,0,0,20,20,8,,,,,,,,,,,140.74688269998296,None,141.7476997000049,None,141.7476997000049,None,141.7476997000049,None,141.7476997000049,None,144.76428109998233,None,144.76428109998233,None,144.76428109998233,None,144.76428109998233,None,None,None,None,None,None,,,,,,,,,,student1,2022-10-20_15h53.50.167,Hippopolis_Updating,2021.1.4,59.97451083430298,
Hippopolis,stimuli/subj_files/student1_cityA.csv,./stimuli/frankfurt.jpg,./stimuli/street_plate1.png,OROSZLÁN UTCA,stimuli/scenes/072a.jpg,scene,0,stimuli/scenes/072a.jpg,stimuli/scenes/072a.jpg,stimuli/scenes/072b.jpg,stimuli/scenes/027b.jpg,stimuli/scenes/027a.jpg,target,lure,dist2,dist1,0,0,0,0,0,21,21,66,,,,,,,,,,,146.76338590000523,None,147.76377959997626,None,147.76377959997626,None,147.76377959997626,None,147.76377959997626,None,150.76682140000048,None,150.76682140000048,None,150.76682140000048,None,150.76682140000048,None,None,None,None,None,None,,,,,,,,,,student1,2022-10-20_15h53.50.167,Hippopolis_Updating,2021.1.4,59.97451083430298,
Hippopolis,stimuli/subj_files/student1_cityA.csv,./stimuli/frankfurt.jpg,./stimuli/street_plate1.png,CSAVAR UTCA,stimuli/objects/078a.jpg,object,0,stimuli/objects/078a.jpg,stimuli/objects/078b.jpg,stimuli/objects/024b.jpg,stimuli/objects/078a.jpg,stimuli/objects/024a.jpg,lure,dist2,target,dist1,0,0,0,0,0,22,22,10,,,,,,,,,,,152.7799931000045,None,153.78084439999657,None,153.78084439999657,None,153.78084439999657,None,153.78084439999657,None,156.7802714999998,None,156.7802714999998,None,156.7802714999998,None,156.7802714999998,None,None,None,None,None,None,,,,,,,,,,student1,2022-10-20_15h53.50.167,Hippopolis_Updating,2021.1.4,59.97451083430298,
Hippopolis,stimuli/subj_files/student1_cityA.csv,./stimuli/frankfurt.jpg,./stimuli/street_plate1.png,LIGET UTCA,stimuli/objects/038a.jpg,object,2,stimuli/scenes/109a.jpg,stimuli/scenes/109a.jpg,stimuli/objects/055a.jpg,stimuli/scenes/109b.jpg,stimuli/objects/055b.jpg,target,dist1,lure,dist2,0,0,0,0,0,23,23,62,,,,,,,,,,,158.77982450000127,None,159.78076369999326,None,159.78076369999326,None,159.78076369999326,None,159.78076369999326,None,162.79925859998912,None,162.79925859998912,None,162.79925859998912,None,162.79925859998912,None,None,None,None,None,None,,,,,,,,,,student1,2022-10-20_15h53.50.167,Hippopolis_Updating,2021.1.4,59.97451083430298,
Hippopolis,stimuli/subj_files/student1_cityA.csv,./stimuli/frankfurt.jpg,./stimuli/street_plate1.png,BÖGRE UTCA,stimuli/objects/050a.jpg,object,1,stimuli/objects/076a.jpg,stimuli/scenes/037a.jpg,stimuli/objects/076a.jpg,stimuli/objects/076b.jpg,stimuli/scenes/037b.jpg,dist1,target,lure,dist2,0,0,0,0,0,24,24,41,,,,,,,,,,,164.79647259999183,None,165.8034119999793,None,165.8034119999793,None,165.8034119999793,None,165.8034119999793,None,168.83186559999012,None,168.83186559999012,None,168.83186559999012,None,168.83186559999012,None,None,None,None,None,None,,,,,,,,,,student1,2022-10-20_15h53.50.167,Hippopolis_Updating,2021.1.4,59.97451083430298,
Hippopolis,stimuli/subj_files/student1_cityA.csv,./stimuli/frankfurt.jpg,./stimuli/street_plate1.png,HAJÓ UTCA,stimuli/objects/086a.jpg,object,1,stimuli/objects/041a.jpg,stimuli/scenes/014a.jpg,stimuli/scenes/014b.jpg,stimuli/objects/041a.jpg,stimuli/objects/041b.jpg,dist1,dist2,target,lure,0,0,0,0,0,25,25,71,,,,,,,,,,,170.8128802999854,None,171.81339269998716,None,171.81339269998716,None,171.81339269998716,None,171.81339269998716,None,174.8309634999896,None,174.8309634999896,None,174.8309634999896,None,174.8309634999896,None,None,None,None,None,None,,,,,,,,,,student1,2022-10-20_15h53.50.167,Hippopolis_Updating,2021.1.4,59.97451083430298,
Hippopolis,stimuli/subj_files/student1_cityA.csv,./stimuli/frankfurt.jpg,./stimuli/street_plate1.png,TALICSKA UTCA,stimuli/objects/014a.jpg,object,1,stimuli/objects/108a.jpg,stimuli/objects/109a.jpg,stimuli/objects/109b.jpg,stimuli/objects/108a.jpg,stimuli/objects/108b.jpg,dist1,dist2,target,lure,0,0,0,0,0,26,26,13,,,,,,,,,,,176.8295855000033,None,177.83051989998785,None,177.83051989998785,None,177.83051989998785,None,177.83051989998785,None,180.85054189999937,None,180.85054189999937,None,180.85054189999937,None,180.85054189999937,None,None,None,None,None,None,,,,,,,,,,student1,2022-10-20_15h53.50.167,Hippopolis_Updating,2021.1.4,59.97451083430298,
Hippopolis,stimuli/subj_files/student1_cityA.csv,./stimuli/frankfurt.jpg,./stimuli/street_plate1.png,PÁFRÁNY UTCA,stimuli/scenes/101a.jpg,scene,0,stimuli/scenes/101a.jpg,stimuli/scenes/101a.jpg,stimuli/scenes/101b.jpg,stimuli/objects/051a.jpg,stimuli/objects/051b.jpg,target,lure,dist1,dist2,0,0,0,0,0,27,27,0,,,,,,,,,,,182.84612420000485,None,183.84657110000262,None,183.84657110000262,None,183.84657110000262,None,183.84657110000262,None,186.85296259997995,None,186.85296259997995,None,186.85296259997995,None,186.85296259997995,None,None,None,None,None,None,,,,,,,,,,student1,2022-10-20_15h53.50.167,Hippopolis_Updating,2021.1.4,59.97451083430298,
Hippopolis,stimuli/subj_files/student1_cityA.csv,./stimuli/frankfurt.jpg,./stimuli/street_plate1.png,KECSKE UTCA,stimuli/scenes/085a.jpg,scene,2,stimuli/objects/022a.jpg,stimuli/objects/022b.jpg,stimuli/objects/022a.jpg,stimuli/scenes/053a.jpg,stimuli/scenes/053b.jpg,lure,target,dist1,dist2,0,0,0,0,0,28,28,6,,,,,,,,,,,188.86259109998355,None,189.8628494000004,None,189.8628494000004,None,189.8628494000004,None,189.8628494000004,None,192.91311389999464,None,192.91311389999464,None,192.91311389999464,None,192.91311389999464,None,None,None,None,None,None,,,,,,,,,,student1,2022-10-20_15h53.50.167,Hippopolis_Updating,2021.1.4,59.97451083430298,
Hippopolis,stimuli/subj_files/student1_cityA.csv,./stimuli/frankfurt.jpg,./stimuli/street_plate1.png,HARMONIKA UTCA,stimuli/scenes/024a.jpg,scene,0,stimuli/scenes/024a.jpg,stimuli/scenes/101b.jpg,stimuli/scenes/024b.jpg,stimuli/scenes/101a.jpg,stimuli/scenes/024a.jpg,dist2,lure,dist1,target,0,0,0,0,0,29,29,25,,,,,,,,,,,194.87922169998637,None,195.88090379998903,None,195.88090379998903,None,195.88090379998903,None,195.88090379998903,None,198.8998526999785,None,198.8998526999785,None,198.8998526999785,None,198.8998526999785,None,None,None,None,None,None,,,,,,,,,,student1,2022-10-20_15h53.50.167,Hippopolis_Updating,2021.1.4,59.97451083430298,
Hippopolis,stimuli/subj_files/student1_cityA.csv,./stimuli/frankfurt.jpg,./stimuli/street_plate1.png,PETÁRDA UTCA,stimuli/objects/009a.jpg,object,0,stimuli/objects/009a.jpg,stimuli/objects/009a.jpg,stimuli/scenes/051a.jpg,stimuli/objects/009b.jpg,stimuli/scenes/051b.jpg,target,dist1,lure,dist2,0,0,0,0,0,30,30,64,,,,,,,,,,,200.8957252999826,None,201.89610289997654,None,201.89610289997654,None,201.89610289997654,None,201.89610289997654,None,204.90139279997675,None,204.90139279997675,None,204.90139279997675,None,204.90139279997675,None,None,None,None,None,None,,,,,,,,,,student1,2022-10-20_15h53.50.167,Hippopolis_Updating,2021.1.4,59.97451083430298,
Hippopolis,stimuli/subj_files/student1_cityA.csv,./stimuli/frankfurt.jpg,./stimuli/street_plate1.png,KÖMÉNYMAG UTCA,stimuli/objects/068a.jpg,object,1,stimuli/objects/045a.jpg,stimuli/objects/045a.jpg,stimuli/objects/045b.jpg,stimuli/objects/071a.jpg,stimuli/objects/071b.jpg,target,lure,dist1,dist2,0,0,0,0,0,31,31,18,,,,,,,,,,,206.912341999996,None,207.91321909998078,None,207.91321909998078,None,207.91321909998078,None,207.91321909998078,None,210.93803639998077,None,210.93803639998077,None,210.93803639998077,None,210.93803639998077,None,None,None,None,None,None,,,,,,,,,,student1,2022-10-20_15h53.50.167,Hippopolis_Updating,2021.1.4,59.97451083430298,
Hippopolis,stimuli/subj_files/student1_cityA.csv,./stimuli/frankfurt.jpg,./stimuli/street_plate1.png,KERÉK UTCA,stimuli/scenes/096a.jpg,scene,1,stimuli/scenes/041a.jpg,stimuli/scenes/117a.jpg,stimuli/scenes/041b.jpg,stimuli/scenes/041a.jpg,stimuli/scenes/117b.jpg,dist1,lure,target,dist2,0,0,0,0,0,32,32,20,,,,,,,,,,,212.9294569999911,None,213.92957720000413,None,213.92957720000413,None,213.92957720000413,None,213.92957720000413,None,216.94249560000026,None,216.94249560000026,None,216.94249560000026,None,216.94249560000026,None,None,None,None,None,None,,,,,,,,,,student1,2022-10-20_15h53.50.167,Hippopolis_Updating,2021.1.4,59.97451083430298,
Hippopolis,stimuli/subj_files/student1_cityA.csv,./stimuli/frankfurt.jpg,./stimuli/street_plate1.png,PIZSAMA UTCA,stimuli/scenes/060a.jpg,scene,2,stimuli/objects/006a.jpg,stimuli/scenes/007b.jpg,stimuli/scenes/007a.jpg,stimuli/objects/006b.jpg,stimuli/objects/006a.jpg,dist2,dist1,lure,target,0,0,0,0,0,33,33,79,,,,,,,,,,,218.94520039999043,None,219.94912529998692,None,219.94912529998692,None,219.94912529998692,None,219.94912529998692,None,222.9822220999922,None,222.9822220999922,None,222.9822220999922,None,222.9822220999922,None,None,None,None,None,None,,,,,,,,,,student1,2022-10-20_15h53.50.167,Hippopolis_Updating,2021.1.4,59.97451083430298,
Hippopolis,stimuli/subj_files/student1_cityA.csv,./stimuli/frankfurt.jpg,./stimuli/street_plate1.png,HORDÓ UTCA,stimuli/scenes/095a.jpg,scene,0,stimuli/scenes/095a.jpg,stimuli/scenes/095a.jpg,stimuli/scenes/046a.jpg,stimuli/scenes/095b.jpg,stimuli/scenes/046b.jpg,target,dist1,lure,dist2,0,0,0,0,0,34,34,27,,,,,,,,,,,224.9621191000042,None,225.96254359997693,None,225.96254359997693,None,225.96254359997693,None,225.96254359997693,None,228.96677349999663,None,228.96677349999663,None,228.96677349999663,None,228.96677349999663,None,None,None,None,None,None,,,,,,,,,,student1,2022-10-20_15h53.50.167,Hippopolis_Updating,2021.1.4,59.97451083430298,
Hippopolis,stimuli/subj_files/student1_cityA.csv,./stimuli/frankfurt.jpg,./stimuli/street_plate1.png,KOCKA UTCA,stimuli/objects/062a.jpg,object,0,stimuli/objects/062a.jpg,stimuli/scenes/095b.jpg,stimuli/objects/062a.jpg,stimuli/objects/062b.jpg,stimuli/scenes/095a.jpg,dist2,target,lure,dist1,0,0,0,0,0,35,35,35,,,,,,,,,,,230.9785551999812,None,231.97918999998365,None,231.97918999998365,None,231.97918999998365,None,231.97918999998365,None,234.98013660000288,None,234.98013660000288,None,234.98013660000288,None,234.98013660000288,None,None,None,None,None,None,,,,,,,,,,student1,2022-10-20_15h53.50.167,Hippopolis_Updating,2021.1.4,59.97451083430298,
Hippopolis,stimuli/subj_files/student1_cityA.csv,./stimuli/frankfurt.jpg,./stimuli/street_plate1.png,RÁDIÓ UTCA,stimuli/scenes/068a.jpg,scene,1,stimuli/scenes/067a.jpg,stimuli/scenes/018b.jpg,stimuli/scenes/067a.jpg,stimuli/scenes/067b.jpg,stimuli/scenes/018a.jpg,dist2,target,lure,dist1,0,0,0,0,0,36,36,44,,,,,,,,,,,236.97883859998547,None,237.9799240999855,None,237.9799240999855,None,237.9799240999855,None,237.9799240999855,None,240.9984173999983,None,240.9984173999983,None,240.9984173999983,None,240.9984173999983,None,None,None,None,None,None,,,,,,,,,,student1,2022-10-20_15h53.50.167,Hippopolis_Updating,2021.1.4,59.97451083430298,
Hippopolis,stimuli/subj_files/student1_cityA.csv,./stimuli/frankfurt.jpg,./stimuli/street_plate1.png,MUSTÁR UTCA,stimuli/scenes/050a.jpg,scene,0,stimuli/scenes/050a.jpg,stimuli/objects/009a.jpg,stimuli/objects/009b.jpg,stimuli/scenes/050a.jpg,stimuli/scenes/050b.jpg,dist1,dist2,target,lure,0,0,0,0,0,37,37,78,,,,,,,,,,,242.99539139997796,None,243.99598049998167,None,243.99598049998167,None,243.99598049998167,None,243.99598049998167,None,246.99701739999,None,246.99701739999,None,246.99701739999,None,246.99701739999,None,None,None,None,None,None,,,,,,,,,,student1,2022-10-20_15h53.50.167,Hippopolis_Updating,2021.1.4,59.97451083430298,
Hippopolis,stimuli/subj_files/student1_cityA.csv,./stimuli/frankfurt.jpg,./stimuli/street_plate1.png,MARTINI UTCA,stimuli/objects/060a.jpg,object,1,stimuli/objects/011a.jpg,stimuli/objects/075b.jpg,stimuli/objects/075a.jpg,stimuli/objects/011b.jpg,stimuli/objects/011a.jpg,dist2,dist1,lure,target,0,0,0,0,0,38,38,60,,,,,,,,,,,249.0116736999771,None,250.0121880999941,None,250.0121880999941,None,250.0121880999941,None,250.0121880999941,None,253.02786599998944,None,253.02786599998944,None,253.02786599998944,None,253.02786599998944,None,None,None,None,None,None,,,,,,,,,,student1,2022-10-20_15h53.50.167,Hippopolis_Updating,2021.1.4,59.97451083430298,
Hippopolis,stimuli/subj_files/student1_cityA.csv,./stimuli/frankfurt.jpg,./stimuli/street_plate1.png,ÁRNYÉK UTCA,stimuli/objects/020a.jpg,object,1,stimuli/objects/027a.jpg,stimuli/scenes/004a.jpg,stimuli/objects/027b.jpg,stimuli/objects/027a.jpg,stimuli/scenes/004b.jpg,dist1,lure,target,dist2,0,0,0,0,0,39,39,52,,,,,,,,,,,255.02820109997992,None,256.0287166000053,None,256.0287166000053,None,256.0287166000053,None,256.0287166000053,None,259.0483910999901,None,259.0483910999901,None,259.0483910999901,None,259.0483910999901,None,None,None,None,None,None,,,,,,,,,,student1,2022-10-20_15h53.50.167,Hippopolis_Updating,2021.1.4,59.97451083430298,
Hippopolis,stimuli/subj_files/student1_cityA.csv,./stimuli/frankfurt.jpg,./stimuli/street_plate1.png,LÁNDZSA UTCA,stimuli/scenes/090a.jpg,scene,0,stimuli/scenes/090a.jpg,stimuli/scenes/090a.jpg,stimuli/objects/091b.jpg,stimuli/scenes/090b.jpg,stimuli/objects/091a.jpg,target,dist2,lure,dist1,0,0,0,0,0,40,40,39,,,,,,,,,,,261.04526220000116,None,262.0458584000007,None,262.0458584000007,None,262.0458584000007,None,262.0458584000007,None,265.0454390999803,None,265.0454390999803,None,265.0454390999803,None,265.0454390999803,None,None,None,None,None,None,,,,,,,,,,student1,2022-10-20_15h53.50.167,Hippopolis_Updating,2021.1.4,59.97451083430298,
Hippopolis,stimuli/subj_files/student1_cityA.csv,./stimuli/frankfurt.jpg,./stimuli/street_plate1.png,HERNYÓ UTCA,stimuli/scenes/066a.jpg,scene,1,stimuli/scenes/037a.jpg,stimuli/scenes/037a.jpg,stimuli/objects/045b.jpg,stimuli/scenes/037b.jpg,stimuli/objects/045a.jpg,target,dist2,lure,dist1,0,0,0,0,0,41,41,5,,,,,,,,,,,267.04447599998093,None,268.045086099999,None,268.045086099999,None,268.045086099999,None,268.045086099999,None,271.0554775999917,None,271.0554775999917,None,271.0554775999917,None,271.0554775999917,None,None,None,None,None,None,,,,,,,,,,student1,2022-10-20_15h53.50.167,Hippopolis_Updating,2021.1.4,59.97451083430298,
Hippopolis,stimuli/subj_files/student1_cityA.csv,./stimuli/frankfurt.jpg,./stimuli/street_plate1.png,BONBON UTCA,stimuli/objects/095a.jpg,object,2,stimuli/scenes/007a.jpg,stimuli/objects/028b.jpg,stimuli/objects/028a.jpg,stimuli/scenes/007a.jpg,stimuli/scenes/007b.jpg,dist2,dist1,target,lure,0,0,0,0,0,42,42,72,,,,,,,,,,,273.0612714999879,None,274.0622417999839,None,274.0622417999839,None,274.0622417999839,None,274.0622417999839,None,277.07356689998414,None,277.07356689998414,None,277.07356689998414,None,277.07356689998414,None,None,None,None,None,None,,,,,,,,,,student1,2022-10-20_15h53.50.167,Hippopolis_Updating,2021.1.4,59.97451083430298,
Hippopolis,stimuli/subj_files/student1_cityA.csv,./stimuli/frankfurt.jpg,./stimuli/street_plate1.png,HEGESZTŐ UTCA,stimuli/scenes/043a.jpg,scene,0,stimuli/scenes/043a.jpg,stimuli/scenes/043b.jpg,stimuli/scenes/043a.jpg,stimuli/objects/062a.jpg,stimuli/objects/062b.jpg,lure,target,dist1,dist2,0,0,0,0,0,43,43,77,,,,,,,,,,,279.0781991999829,None,280.0816439999908,None,280.0816439999908,None,280.0816439999908,None,280.0816439999908,None,283.1005688000005,None,283.1005688000005,None,283.1005688000005,None,283.1005688000005,None,None,None,None,None,None,,,,,,,,,,student1,2022-10-20_15h53.50.167,Hippopolis_Updating,2021.1.4,59.97451083430298,
Hippopolis,stimuli/subj_files/student1_cityA.csv,./stimuli/frankfurt.jpg,./stimuli/street_plate1.png,SZIKLA UTCA,stimuli/scenes/111a.jpg,scene,2,stimuli/objects/073a.jpg,stimuli/objects/120b.jpg,stimuli/objects/120a.jpg,stimuli/objects/073a.jpg,stimuli/objects/073b.jpg,dist2,dist1,target,lure,0,0,0,0,0,44,44,1,,,,,,,,,,,285.0942422999942,None,286.09467140000197,None,286.09467140000197,None,286.09467140000197,None,286.09467140000197,None,289.11569559999043,None,289.11569559999043,None,289.11569559999043,None,289.11569559999043,None,291.1110719999997,None,space,291.1110719999997,None,1.930366699991282,,,,,,,,,student1,2022-10-20_15h53.50.167,Hippopolis_Updating,2021.1.4,59.97451083430298,
Hippopolis,stimuli/subj_files/student1_cityA.csv,./stimuli/frankfurt.jpg,./stimuli/street_plate1.png,POGÁCSA UTCA,stimuli/scenes/046a.jpg,scene,0,stimuli/scenes/046a.jpg,stimuli/scenes/042a.jpg,stimuli/scenes/046a.jpg,stimuli/scenes/046b.jpg,stimuli/scenes/042b.jpg,dist1,target,lure,dist2,0,0,0,0,0,45,45,49,,,,,,,,,,,293.06086699999287,None,294.06175679998705,None,294.06175679998705,None,294.06175679998705,None,294.06175679998705,None,297.06626949997735,None,297.06626949997735,None,297.06626949997735,None,297.06626949997735,None,None,None,None,None,None,,,,,,,,,,student1,2022-10-20_15h53.50.167,Hippopolis_Updating,2021.1.4,59.97451083430298,
Hippopolis,stimuli/subj_files/student1_cityA.csv,./stimuli/frankfurt.jpg,./stimuli/street_plate1.png,TELEP UTCA,stimuli/scenes/048a.jpg,scene,2,stimuli/objects/120a.jpg,stimuli/objects/120a.jpg,stimuli/objects/120b.jpg,stimuli/scenes/119b.jpg,stimuli/scenes/119a.jpg,target,lure,dist2,dist1,0,0,0,0,0,46,46,75,,,,,,,,,,,299.0778356999799,None,300.07878280000295,None,300.07878280000295,None,300.07878280000295,None,300.07878280000295,None,303.102449900005,None,303.102449900005,None,303.102449900005,None,303.102449900005,None,None,None,None,None,None,,,,,,,,,,student1,2022-10-20_15h53.50.167,Hippopolis_Updating,2021.1.4,59.97451083430298,
Hippopolis,stimuli/subj_files/student1_cityA.csv,./stimuli/frankfurt.jpg,./stimuli/street_plate1.png,MOCSÁR UTCA,stimuli/objects/080a.jpg,object,0,stimuli/objects/080a.jpg,stimuli/objects/080b.jpg,stimuli/objects/080a.jpg,stimuli/scenes/043b.jpg,stimuli/scenes/043a.jpg,lure,target,dist2,dist1,0,0,0,0,0,47,47,17,,,,,,,,,,,305.09386579997954,None,306.09462049999274,None,306.09462049999274,None,306.09462049999274,None,306.09462049999274,None,309.10147359999246,None,309.10147359999246,None,309.10147359999246,None,309.10147359999246,None,None,None,None,None,None,,,,,,,,,,student1,2022-10-20_15h53.50.167,Hippopolis_Updating,2021.1.4,59.97451083430298,
Hippopolis,stimuli/subj_files/student1_cityA.csv,./stimuli/frankfurt.jpg,./stimuli/street_plate1.png,NARANCS UTCA,stimuli/objects/017a.jpg,object,1,stimuli/objects/075a.jpg,stimuli/objects/075a.jpg,stimuli/scenes/041b.jpg,stimuli/scenes/041a.jpg,stimuli/objects/075b.jpg,target,dist2,dist1,lure,0,0,0,0,0,48,48,76,,,,,,,,,,,311.11019609999494,None,312.11154199999874,None,312.11154199999874,None,312.11154199999874,None,312.11154199999874,None,315.13081269999384,None,315.13081269999384,None,315.13081269999384,None,315.13081269999384,None,None,None,None,None,None,,,,,,,,,,student1,2022-10-20_15h53.50.167,Hippopolis_Updating,2021.1.4,59.97451083430298,
Hippopolis,stimuli/subj_files/student1_cityA.csv,./stimuli/frankfurt.jpg,./stimuli/street_plate1.png,FÉNYKÉP UTCA,stimuli/scenes/010a.jpg,scene,1,stimuli/scenes/078a.jpg,stimuli/scenes/088a.jpg,stimuli/scenes/078a.jpg,stimuli/scenes/088b.jpg,stimuli/scenes/078b.jpg,dist1,target,dist2,lure,0,0,0,0,0,49,49,32,,,,,,,,,,,317.1273855000036,None,318.1275080999767,None,318.1275080999767,None,318.1275080999767,None,318.1275080999767,None,321.1391455999983,None,321.1391455999983,None,321.1391455999983,None,321.1391455999983,None,None,None,None,None,None,,,,,,,,,,student1,2022-10-20_15h53.50.167,Hippopolis_Updating,2021.1.4,59.97451083430298,
Hippopolis,stimuli/subj_files/student1_cityA.csv,./stimuli/frankfurt.jpg,./stimuli/street_plate1.png,CSILLAG UTCA,stimuli/scenes/083a.jpg,scene,1,stimuli/scenes/117a.jpg,stimuli/scenes/117a.jpg,stimuli/scenes/117b.jpg,stimuli/objects/041a.jpg,stimuli/objects/041b.jpg,target,lure,dist1,dist2,0,0,0,0,0,50,50,15,,,,,,,,,,,323.14362249997794,None,324.1446753999917,None,324.1446753999917,None,324.1446753999917,None,324.1446753999917,None,327.1598136999819,None,327.1598136999819,None,327.1598136999819,None,327.1598136999819,None,None,None,None,None,None,,,,,,,,,,student1,2022-10-20_15h53.50.167,Hippopolis_Updating,2021.1.4,59.97451083430298,
Hippopolis,stimuli/subj_files/student1_cityA.csv,./stimuli/frankfurt.jpg,./stimuli/street_plate1.png,SIVATAG UTCA,stimuli/scenes/016a.jpg,scene,2,stimuli/objects/046a.jpg,stimuli/objects/046b.jpg,stimuli/objects/006a.jpg,stimuli/objects/006b.jpg,stimuli/objects/046a.jpg,lure,dist1,dist2,target,0,0,0,0,0,51,51,23,,,,,,,,,,,329.16031109998585,None,330.1604651999951,None,330.1604651999951,None,330.1604651999951,None,330.1604651999951,None,333.1783668999851,None,333.1783668999851,None,333.1783668999851,None,333.1783668999851,None,None,None,None,None,None,,,,,,,,,,student1,2022-10-20_15h53.50.167,Hippopolis_Updating,2021.1.4,59.97451083430298,
Hippopolis,stimuli/subj_files/student1_cityA.csv,./stimuli/frankfurt.jpg,./stimuli/street_plate1.png,SZOMSZÉD UTCA,stimuli/objects/026a.jpg,object,1,stimuli/objects/004a.jpg,stimuli/objects/027b.jpg,stimuli/objects/004b.jpg,stimuli/objects/004a.jpg,stimuli/objects/027a.jpg,dist2,lure,target,dist1,0,0,0,0,0,52,52,65,,,,,,,,,,,335.177165400004,None,336.17785529998946,None,336.17785529998946,None,336.17785529998946,None,336.17785529998946,None,339.1938967999886,None,339.1938967999886,None,339.1938967999886,None,339.1938967999886,None,None,None,None,None,None,,,,,,,,,,student1,2022-10-20_15h53.50.167,Hippopolis_Updating,2021.1.4,59.97451083430298,
Hippopolis,stimuli/subj_files/student1_cityA.csv,./stimuli/frankfurt.jpg,./stimuli/street_plate1.png,ÁLOM UTCA,stimuli/objects/070a.jpg,object,0,stimuli/objects/070a.jpg,stimuli/objects/070b.jpg,stimuli/objects/114b.jpg,stimuli/objects/114a.jpg,stimuli/objects/070a.jpg,lure,dist2,dist1,target,0,0,0,0,0,53,53,50,,,,,,,,,,,341.1933086999925,None,342.19426970000495,None,342.19426970000495,None,342.19426970000495,None,342.19426970000495,None,345.1971258999838,None,345.1971258999838,None,345.1971258999838,None,345.1971258999838,None,None,None,None,None,None,,,,,,,,,,student1,2022-10-20_15h53.50.167,Hippopolis_Updating,2021.1.4,59.97451083430298,
Hippopolis,stimuli/subj_files/student1_cityA.csv,./stimuli/frankfurt.jpg,./stimuli/street_plate1.png,AKÁC UTCA,stimuli/scenes/081a.jpg,scene,2,stimuli/objects/055a.jpg,stimuli/objects/055b.jpg,stimuli/objects/107b.jpg,stimuli/objects/107a.jpg,stimuli/objects/055a.jpg,lure,dist2,dist1,target,0,0,0,0,0,54,54,74,,,,,,,,,,,347.20970350000425,None,348.2103050999867,None,348.2103050999867,None,348.2103050999867,None,348.2103050999867,None,351.22457900000154,None,351.22457900000154,None,351.22457900000154,None,351.22457900000154,None,None,None,None,None,None,,,,,,,,,,student1,2022-10-20_15h53.50.167,Hippopolis_Updating,2021.1.4,59.97451083430298,
Hippopolis,stimuli/subj_files/student1_cityA.csv,./stimuli/frankfurt.jpg,./stimuli/street_plate1.png,VÖDÖR UTCA,stimuli/scenes/055a.jpg,scene,1,stimuli/scenes/088a.jpg,stimuli/scenes/088b.jpg,stimuli/scenes/088a.jpg,stimuli/scenes/087b.jpg,stimuli/scenes/087a.jpg,lure,target,dist2,dist1,0,0,0,0,0,55,55,56,,,,,,,,,,,353.2263521999994,None,354.22734290000517,None,354.22734290000517,None,354.22734290000517,None,354.22734290000517,None,357.243638999993,None,357.243638999993,None,357.243638999993,None,357.243638999993,None,None,None,None,None,None,,,,,,,,,,student1,2022-10-20_15h53.50.167,Hippopolis_Updating,2021.1.4,59.97451083430298,
Hippopolis,stimuli/subj_files/student1_cityA.csv,./stimuli/frankfurt.jpg,./stimuli/street_plate1.png,TRIATLON UTCA,stimuli/objects/024a.jpg,object,0,stimuli/objects/024a.jpg,stimuli/objects/024b.jpg,stimuli/objects/080a.jpg,stimuli/objects/024a.jpg,stimuli/objects/080b.jpg,lure,dist1,target,dist2,0,0,0,0,0,56,56,2,,,,,,,,,,,359.24312969998573,None,360.2438259999908,None,360.2438259999908,None,360.2438259999908,None,360.2438259999908,None,363.2459896999935,None,363.2459896999935,None,363.2459896999935,None,363.2459896999935,None,None,None,None,None,None,,,,,,,,,,student1,2022-10-20_15h53.50.167,Hippopolis_Updating,2021.1.4,59.97451083430298,
Hippopolis,stimuli/subj_files/student1_cityA.csv,./stimuli/frankfurt.jpg,./stimuli/street_plate1.png,PULÓVER UTCA,stimuli/objects/114a.jpg,object,0,stimuli/objects/114a.jpg,stimuli/scenes/050b.jpg,stimuli/scenes/050a.jpg,stimuli/objects/114b.jpg,stimuli/objects/114a.jpg,dist2,dist1,lure,target,0,0,0,0,0,57,57,43,,,,,,,,,,,365.25993369999924,None,366.2600884999847,None,366.2600884999847,None,366.2600884999847,None,366.2600884999847,None,369.26940329998615,None,369.26940329998615,None,369.26940329998615,None,369.26940329998615,None,None,None,None,None,None,,,,,,,,,,student1,2022-10-20_15h53.50.167,Hippopolis_Updating,2021.1.4,59.97451083430298,
Hippopolis,stimuli/subj_files/student1_cityA.csv,./stimuli/frankfurt.jpg,./stimuli/street_plate1.png,AJÁNDÉK UTCA,stimuli/scenes/005a.jpg,scene,1,stimuli/scenes/009a.jpg,stimuli/scenes/078b.jpg,stimuli/scenes/078a.jpg,stimuli/scenes/009a.jpg,stimuli/scenes/009b.jpg,dist2,dist1,target,lure,0,0,0,0,0,58,58,28,,,,,,,,,,,371.27616149999085,None,372.2771791999985,None,372.2771791999985,None,372.2771791999985,None,372.2771791999985,None,375.2933922999946,None,375.2933922999946,None,375.2933922999946,None,375.2933922999946,None,None,None,None,None,None,,,,,,,,,,student1,2022-10-20_15h53.50.167,Hippopolis_Updating,2021.1.4,59.97451083430298,
Hippopolis,stimuli/subj_files/student1_cityA.csv,./stimuli/frankfurt.jpg,./stimuli/street_plate1.png,FÓKA UTCA,stimuli/scenes/058a.jpg,scene,0,stimuli/scenes/058a.jpg,stimuli/scenes/058a.jpg,stimuli/scenes/058b.jpg,stimuli/objects/111b.jpg,stimuli/objects/111a.jpg,target,lure,dist2,dist1,0,0,0,0,0,59,59,51,,,,,,,,,,,377.2925847999868,None,378.2931386999844,None,378.2931386999844,None,378.2931386999844,None,378.2931386999844,None,381.29371450000326,None,381.29371450000326,None,381.29371450000326,None,381.29371450000326,None,None,None,None,None,None,,,,,,,,,,student1,2022-10-20_15h53.50.167,Hippopolis_Updating,2021.1.4,59.97451083430298,
Hippopolis,stimuli/subj_files/student1_cityA.csv,./stimuli/frankfurt.jpg,./stimuli/street_plate1.png,LAKAT UTCA,stimuli/objects/066a.jpg,object,2,stimuli/scenes/084a.jpg,stimuli/scenes/084b.jpg,stimuli/scenes/034a.jpg,stimuli/scenes/084a.jpg,stimuli/scenes/034b.jpg,lure,dist1,target,dist2,0,0,0,0,0,60,60,58,,,,,,,,,,,383.2926824000024,None,384.2933858000033,None,384.2933858000033,None,384.2933858000033,None,384.2933858000033,None,387.30876829999033,None,387.30876829999033,None,387.30876829999033,None,387.30876829999033,None,None,None,None,None,None,,,,,,,,,,student1,2022-10-20_15h53.50.167,Hippopolis_Updating,2021.1.4,59.97451083430298,
Hippopolis,stimuli/subj_files/student1_cityA.csv,./stimuli/frankfurt.jpg,./stimuli/street_plate1.png,RÓZSA UTCA,stimuli/objects/091a.jpg,object,0,stimuli/objects/091a.jpg,stimuli/objects/091b.jpg,stimuli/objects/078b.jpg,stimuli/objects/078a.jpg,stimuli/objects/091a.jpg,lure,dist2,dist1,target,0,0,0,0,0,61,61,45,,,,,,,,,,,389.3095934999874,None,390.310253499978,None,390.310253499978,None,390.310253499978,None,390.310253499978,None,393.3147464999929,None,393.3147464999929,None,393.3147464999929,None,393.3147464999929,None,None,None,None,None,None,,,,,,,,,,student1,2022-10-20_15h53.50.167,Hippopolis_Updating,2021.1.4,59.97451083430298,
Hippopolis,stimuli/subj_files/student1_cityA.csv,./stimuli/frankfurt.jpg,./stimuli/street_plate1.png,BAGOLY UTCA,stimuli/scenes/029a.jpg,scene,2,stimuli/objects/028a.jpg,stimuli/objects/028b.jpg,stimuli/objects/028a.jpg,stimuli/scenes/028a.jpg,stimuli/scenes/028b.jpg,lure,target,dist1,dist2,0,0,0,0,0,62,62,21,,,,,,,,,,,395.3256212999986,None,396.3260090999829,None,396.3260090999829,None,396.3260090999829,None,396.3260090999829,None,399.34244919999037,None,399.34244919999037,None,399.34244919999037,None,399.34244919999037,None,None,None,None,None,None,,,,,,,,,,student1,2022-10-20_15h53.50.167,Hippopolis_Updating,2021.1.4,59.97451083430298,
Hippopolis,stimuli/subj_files/student1_cityA.csv,./stimuli/frankfurt.jpg,./stimuli/street_plate1.png,MUNKA UTCA,stimuli/scenes/039a.jpg,scene,2,stimuli/objects/067a.jpg,stimuli/scenes/097a.jpg,stimuli/objects/067b.jpg,stimuli/objects/067a.jpg,stimuli/scenes/097b.jpg,dist1,lure,target,dist2,0,0,0,0,0,63,63,4,,,,,,,,,,,401.3421315999876,None,402.3428544999915,None,402.3428544999915,None,402.3428544999915,None,402.3428544999915,None,405.3573361999879,None,405.3573361999879,None,405.3573361999879,None,405.3573361999879,None,None,None,None,None,None,,,,,,,,,,student1,2022-10-20_15h53.50.167,Hippopolis_Updating,2021.1.4,59.97451083430298,
Hippopolis,stimuli/subj_files/student1_cityA.csv,./stimuli/frankfurt.jpg,./stimuli/street_plate1.png,KÖTÉNY UTCA,stimuli/scenes/031a.jpg,scene,1,stimuli/scenes/064a.jpg,stimuli/objects/103a.jpg,stimuli/objects/103b.jpg,stimuli/scenes/064b.jpg,stimuli/scenes/064a.jpg,dist1,dist2,lure,target,0,0,0,0,0,64,64,22,,,,,,,,,,,407.3587523000024,None,408.35916449999786,None,408.35916449999786,None,408.35916449999786,None,408.35916449999786,None,411.3714853999845,None,411.3714853999845,None,411.3714853999845,None,411.3714853999845,None,None,None,None,None,None,,,,,,,,,,student1,2022-10-20_15h53.50.167,Hippopolis_Updating,2021.1.4,59.97451083430298,
Hippopolis,stimuli/subj_files/student1_cityA.csv,./stimuli/frankfurt.jpg,./stimuli/street_plate1.png,TOBOZ UTCA,stimuli/objects/001a.jpg,object,2,stimuli/scenes/059a.jpg,stimuli/scenes/059a.jpg,stimuli/objects/085a.jpg,stimuli/objects/085b.jpg,stimuli/scenes/059b.jpg,target,dist1,dist2,lure,0,0,0,0,0,65,65,40,,,,,,,,,,,413.3760234999936,None,414.37587509999867,None,414.37587509999867,None,414.37587509999867,None,414.37587509999867,None,417.38794190000044,None,417.38794190000044,None,417.38794190000044,None,417.38794190000044,None,None,None,None,None,None,,,,,,,,,,student1,2022-10-20_15h53.50.167,Hippopolis_Updating,2021.1.4,59.97451083430298,
Hippopolis,stimuli/subj_files/student1_cityA.csv,./stimuli/frankfurt.jpg,./stimuli/street_plate1.png,BOLYGÓ UTCA,stimuli/scenes/118a.jpg,scene,1,stimuli/scenes/087a.jpg,stimuli/objects/011a.jpg,stimuli/scenes/087b.jpg,stimuli/objects/011b.jpg,stimuli/scenes/087a.jpg,dist1,lure,dist2,target,0,0,0,0,0,66,66,31,,,,,,,,,,,419.3920048,None,420.3925415999838,None,420.3925415999838,None,420.3925415999838,None,420.3925415999838,None,423.4056052999804,None,423.4056052999804,None,423.4056052999804,None,423.4056052999804,None,None,None,None,None,None,,,,,,,,,,student1,2022-10-20_15h53.50.167,Hippopolis_Updating,2021.1.4,59.97451083430298,
Hippopolis,stimuli/subj_files/student1_cityA.csv,./stimuli/frankfurt.jpg,./stimuli/street_plate1.png,VASALÓ UTCA,stimuli/objects/025a.jpg,object,2,stimuli/scenes/056a.jpg,stimuli/scenes/044a.jpg,stimuli/scenes/056b.jpg,stimuli/scenes/056a.jpg,stimuli/scenes/044b.jpg,dist1,lure,target,dist2,0,0,0,0,0,67,67,70,,,,,,,,,,,425.40844649999053,None,426.4095059999963,None,426.4095059999963,None,426.4095059999963,None,426.4095059999963,None,429.4235836000007,None,429.4235836000007,None,429.4235836000007,None,429.4235836000007,None,None,None,None,None,None,,,,,,,,,,student1,2022-10-20_15h53.50.167,Hippopolis_Updating,2021.1.4,59.97451083430298,
Hippopolis,stimuli/subj_files/student1_cityA.csv,./stimuli/frankfurt.jpg,./stimuli/street_plate1.png,KULLANCS UTCA,stimuli/objects/089a.jpg,object,0,stimuli/objects/089a.jpg,stimuli/scenes/072a.jpg,stimuli/objects/089a.jpg,stimuli/scenes/072b.jpg,stimuli/objects/089b.jpg,dist1,target,dist2,lure,0,0,0,0,0,68,68,34,,,,,,,,,,,431.4249972999969,None,432.42596559997764,None,432.42596559997764,None,432.42596559997764,None,432.42596559997764,None,435.43401609998546,None,435.43401609998546,None,435.43401609998546,None,435.43401609998546,None,None,None,None,None,None,,,,,,,,,,student1,2022-10-20_15h53.50.167,Hippopolis_Updating,2021.1.4,59.97451083430298,
Hippopolis,stimuli/subj_files/student1_cityA.csv,./stimuli/frankfurt.jpg,./stimuli/street_plate1.png,KORONA UTCA,stimuli/scenes/108a.jpg,scene,1,stimuli/scenes/011a.jpg,stimuli/objects/076a.jpg,stimuli/scenes/011b.jpg,stimuli/objects/076b.jpg,stimuli/scenes/011a.jpg,dist1,lure,dist2,target,0,0,0,0,0,69,69,9,,,,,,,,,,,437.44167830000515,None,438.44253519998165,None,438.44253519998165,None,438.44253519998165,None,438.44253519998165,None,441.45498819998465,None,441.45498819998465,None,441.45498819998465,None,441.45498819998465,None,None,None,None,None,None,,,,,,,,,,student1,2022-10-20_15h53.50.167,Hippopolis_Updating,2021.1.4,59.97451083430298,
Hippopolis,stimuli/subj_files/student1_cityA.csv,./stimuli/frankfurt.jpg,./stimuli/street_plate1.png,DOMINÓ UTCA,stimuli/scenes/042a.jpg,scene,0,stimuli/scenes/042a.jpg,stimuli/scenes/042a.jpg,stimuli/scenes/042b.jpg,stimuli/objects/070a.jpg,stimuli/objects/070b.jpg,target,lure,dist1,dist2,0,0,0,0,0,70,70,63,,,,,,,,,,,443.4581113999884,None,444.4586355999927,None,444.4586355999927,None,444.4586355999927,None,444.4586355999927,None,447.4613669999817,None,447.4613669999817,None,447.4613669999817,None,447.4613669999817,None,None,None,None,None,None,,,,,,,,,,student1,2022-10-20_15h53.50.167,Hippopolis_Updating,2021.1.4,59.97451083430298,
Hippopolis,stimuli/subj_files/student1_cityA.csv,./stimuli/frankfurt.jpg,./stimuli/street_plate1.png,MÁLNA UTCA,stimuli/objects/069a.jpg,object,2,stimuli/scenes/053a.jpg,stimuli/objects/073a.jpg,stimuli/objects/073b.jpg,stimuli/scenes/053b.jpg,stimuli/scenes/053a.jpg,dist1,dist2,lure,target,0,0,0,0,0,71,71,14,,,,,,,,,,,449.4746802999871,None,450.475440899987,None,450.475440899987,None,450.475440899987,None,450.475440899987,None,453.4898214999994,None,453.4898214999994,None,453.4898214999994,None,453.4898214999994,None,None,None,None,None,None,,,,,,,,,,student1,2022-10-20_15h53.50.167,Hippopolis_Updating,2021.1.4,59.97451083430298,
Hippopolis,stimuli/subj_files/student1_cityA.csv,./stimuli/frankfurt.jpg,./stimuli/street_plate1.png,MOGYORÓ UTCA,stimuli/objects/106a.jpg,object,1,stimuli/objects/103a.jpg,stimuli/scenes/116a.jpg,stimuli/objects/103b.jpg,stimuli/objects/103a.jpg,stimuli/scenes/116b.jpg,dist1,lure,target,dist2,0,0,0,0,0,72,72,54,,,,,,,,,,,455.49116409997805,None,456.4924014999997,None,456.4924014999997,None,456.4924014999997,None,456.4924014999997,None,459.5079174999846,None,459.5079174999846,None,459.5079174999846,None,459.5079174999846,None,None,None,None,None,None,,,,,,,,,,student1,2022-10-20_15h53.50.167,Hippopolis_Updating,2021.1.4,59.97451083430298,
Hippopolis,stimuli/subj_files/student1_cityA.csv,./stimuli/frankfurt.jpg,./stimuli/street_plate1.png,PADLÓ UTCA,stimuli/objects/100a.jpg,object,0,stimuli/objects/100a.jpg,stimuli/scenes/058a.jpg,stimuli/scenes/058b.jpg,stimuli/objects/100a.jpg,stimuli/objects/100b.jpg,dist1,dist2,target,lure,0,0,0,0,0,73,73,59,,,,,,,,,,,461.50777169998037,None,462.5088250999979,None,462.5088250999979,None,462.5088250999979,None,462.5088250999979,None,465.5090127000003,None,465.5090127000003,None,465.5090127000003,None,465.5090127000003,None,None,None,None,None,None,,,,,,,,,,student1,2022-10-20_15h53.50.167,Hippopolis_Updating,2021.1.4,59.97451083430298,
Hippopolis,stimuli/subj_files/student1_cityA.csv,./stimuli/frankfurt.jpg,./stimuli/street_plate1.png,PÁLMAFA UTCA,stimuli/objects/090a.jpg,object,1,stimuli/objects/007a.jpg,stimuli/objects/053a.jpg,stimuli/objects/007a.jpg,stimuli/objects/053b.jpg,stimuli/objects/007b.jpg,dist1,target,dist2,lure,0,0,0,0,0,74,74,12,,,,,,,,,,,467.5246705999889,None,468.5249729999923,None,468.5249729999923,None,468.5249729999923,None,468.5249729999923,None,471.5374901999894,None,471.5374901999894,None,471.5374901999894,None,471.5374901999894,None,None,None,None,None,None,,,,,,,,,,student1,2022-10-20_15h53.50.167,Hippopolis_Updating,2021.1.4,59.97451083430298,
Hippopolis,stimuli/subj_files/student1_cityA.csv,./stimuli/frankfurt.jpg,./stimuli/street_plate1.png,TERASZ UTCA,stimuli/objects/063a.jpg,object,2,stimuli/scenes/104a.jpg,stimuli/scenes/104a.jpg,stimuli/scenes/056a.jpg,stimuli/scenes/104b.jpg,stimuli/scenes/056b.jpg,target,dist1,lure,dist2,0,0,0,0,0,75,75,48,,,,,,,,,,,473.5408642999828,None,474.54177899999195,None,474.54177899999195,None,474.54177899999195,None,474.54177899999195,None,477.5535849999869,None,477.5535849999869,None,477.5535849999869,None,477.5535849999869,None,None,None,None,None,None,,,,,,,,,,student1,2022-10-20_15h53.50.167,Hippopolis_Updating,2021.1.4,59.97451083430298,
Hippopolis,stimuli/subj_files/student1_cityA.csv,./stimuli/frankfurt.jpg,./stimuli/street_plate1.png,PAPAGÁJ UTCA,stimuli/objects/093a.jpg,object,2,stimuli/scenes/097a.jpg,stimuli/scenes/097a.jpg,stimuli/scenes/109b.jpg,stimuli/scenes/109a.jpg,stimuli/scenes/097b.jpg,target,dist2,dist1,lure,0,0,0,0,0,76,76,55,,,,,,,,,,,479.5576586999814,None,480.558008699998,None,480.558008699998,None,480.558008699998,None,480.558008699998,None,483.57096819998696,None,483.57096819998696,None,483.57096819998696,None,483.57096819998696,None,None,None,None,None,None,,,,,,,,,,student1,2022-10-20_15h53.50.167,Hippopolis_Updating,2021.1.4,59.97451083430298,
Hippopolis,stimuli/subj_files/student1_cityA.csv,./stimuli/frankfurt.jpg,./stimuli/street_plate1.png,PÉKSÉG UTCA,stimuli/scenes/073a.jpg,scene,2,stimuli/objects/059a.jpg,stimuli/objects/059a.jpg,stimuli/objects/046b.jpg,stimuli/objects/059b.jpg,stimuli/objects/046a.jpg,target,dist2,lure,dist1,0,0,0,0,0,77,77,61,,,,,,,,,,,485.574192799977,None,486.57527370000025,None,486.57527370000025,None,486.57527370000025,None,486.57527370000025,None,489.5961926000018,None,489.5961926000018,None,489.5961926000018,None,489.5961926000018,None,None,None,None,None,None,,,,,,,,,,student1,2022-10-20_15h53.50.167,Hippopolis_Updating,2021.1.4,59.97451083430298,
Hippopolis,stimuli/subj_files/student1_cityA.csv,./stimuli/frankfurt.jpg,./stimuli/street_plate1.png,HÁRFA UTCA,stimuli/objects/083a.jpg,object,2,stimuli/scenes/028a.jpg,stimuli/scenes/028b.jpg,stimuli/objects/012b.jpg,stimuli/objects/012a.jpg,stimuli/scenes/028a.jpg,lure,dist2,dist1,target,0,0,0,0,0,78,78,16,,,,,,,,,,,491.59049839997897,None,492.59115789999487,None,492.59115789999487,None,492.59115789999487,None,492.59115789999487,None,495.59920249998686,None,495.59920249998686,None,495.59920249998686,None,495.59920249998686,None,None,None,None,None,None,,,,,,,,,,student1,2022-10-20_15h53.50.167,Hippopolis_Updating,2021.1.4,59.97451083430298,
Hippopolis,stimuli/subj_files/student1_cityA.csv,./stimuli/frankfurt.jpg,./stimuli/street_plate1.png,PAPUCS UTCA,stimuli/scenes/051a.jpg,scene,0,stimuli/scenes/051a.jpg,stimuli/scenes/051b.jpg,stimuli/scenes/051a.jpg,stimuli/scenes/090a.jpg,stimuli/scenes/090b.jpg,lure,target,dist1,dist2,0,0,0,0,0,79,79,68,,,,,,,,,,,497.60723979998147,None,498.6074668999936,None,498.6074668999936,None,498.6074668999936,None,498.6074668999936,None,501.60814259998733,None,501.60814259998733,None,501.60814259998733,None,501.60814259998733,None,None,None,None,None,None,,,,,,,,,,student1,2022-10-20_15h53.50.167,Hippopolis_Updating,2021.1.4,59.97451083430298,
Camponello,stimuli/subj_files/student1_cityB.csv,./stimuli/leipzig.jpg,./stimuli/street_plate2.png,BANÁN UTCA,stimuli/scenes/045a.jpg,scene,0,stimuli/scenes/045a.jpg,stimuli/scenes/045b.jpg,stimuli/scenes/045a.jpg,stimuli/scenes/112b.jpg,stimuli/scenes/112a.jpg,lure,target,dist2,dist1,0,1,1,1,0,0,0,57,,,,,,,506.0025559999922,None,506.0025559999922,None,508.9841452999972,None,509.9967813999974,None,509.9967813999974,None,509.9967813999974,None,509.9967813999974,None,512.9922083999845,None,512.9922083999845,None,512.9922083999845,None,512.9922083999845,None,None,None,None,None,None,,503.60772239998914,None,space,2.337858300015796,503.60772239998914,None,,,student1,2022-10-20_15h53.50.167,Hippopolis_Updating,2021.1.4,59.97451083430298,
Camponello,stimuli/subj_files/student1_cityB.csv,./stimuli/leipzig.jpg,./stimuli/street_plate2.png,KATONA UTCA,stimuli/objects/077a.jpg,object,0,stimuli/objects/077a.jpg,stimuli/objects/077a.jpg,stimuli/scenes/115a.jpg,stimuli/scenes/115b.jpg,stimuli/objects/077b.jpg,target,dist1,dist2,lure,0,1,1,1,0,1,1,74,,,,,,,,,,,514.9908197000041,None,515.9906839999894,None,515.9906839999894,None,515.9906839999894,None,515.9906839999894,None,518.9909079999779,None,518.9909079999779,None,518.9909079999779,None,518.9909079999779,None,None,None,None,None,None,,,,,,,,,,student1,2022-10-20_15h53.50.167,Hippopolis_Updating,2021.1.4,59.97451083430298,
Camponello,stimuli/subj_files/student1_cityB.csv,./stimuli/leipzig.jpg,./stimuli/street_plate2.png,KAKAÓ UTCA,stimuli/objects/099a.jpg,object,1,stimuli/objects/119a.jpg,stimuli/scenes/086a.jpg,stimuli/objects/119a.jpg,stimuli/scenes/086b.jpg,stimuli/objects/119b.jpg,dist1,target,dist2,lure,0,1,1,1,0,2,2,0,,,,,,,,,,,520.9905768999888,None,521.991269399994,None,521.991269399994,None,521.991269399994,None,521.991269399994,None,525.0116187999956,None,525.0116187999956,None,525.0116187999956,None,525.0116187999956,None,None,None,None,None,None,,,,,,,,,,student1,2022-10-20_15h53.50.167,Hippopolis_Updating,2021.1.4,59.97451083430298,
Camponello,stimuli/subj_files/student1_cityB.csv,./stimuli/leipzig.jpg,./stimuli/street_plate2.png,KESELYŰ UTCA,stimuli/objects/003a.jpg,object,2,stimuli/scenes/100a.jpg,stimuli/objects/029a.jpg,stimuli/scenes/100b.jpg,stimuli/objects/029b.jpg,stimuli/scenes/100a.jpg,dist1,lure,dist2,target,0,1,1,1,0,3,3,6,,,,,,,,,,,527.0067300999945,None,528.0076176000002,None,528.0076176000002,None,528.0076176000002,None,528.0076176000002,None,531.0220061999862,None,531.0220061999862,None,531.0220061999862,None,531.0220061999862,None,None,None,None,None,None,,,,,,,,,,student1,2022-10-20_15h53.50.167,Hippopolis_Updating,2021.1.4,59.97451083430298,
Camponello,stimuli/subj_files/student1_cityB.csv,./stimuli/leipzig.jpg,./stimuli/street_plate2.png,SZALVÉTA UTCA,stimuli/objects/072a.jpg,object,0,stimuli/objects/072a.jpg,stimuli/scenes/045b.jpg,stimuli/scenes/045a.jpg,stimuli/objects/072b.jpg,stimuli/objects/072a.jpg,dist2,dist1,lure,target,0,1,1,1,0,4,4,54,,,,,,,,,,,533.023808900005,None,534.0239075999998,None,534.0239075999998,None,534.0239075999998,None,534.0239075999998,None,537.0258123999811,None,537.0258123999811,None,537.0258123999811,None,537.0258123999811,None,None,None,None,None,None,,,,,,,,,,student1,2022-10-20_15h53.50.167,Hippopolis_Updating,2021.1.4,59.97451083430298,
Camponello,stimuli/subj_files/student1_cityB.csv,./stimuli/leipzig.jpg,./stimuli/street_plate2.png,SZŐNYEG UTCA,stimuli/objects/040a.jpg,object,0,stimuli/objects/040a.jpg,stimuli/objects/040a.jpg,stimuli/objects/040b.jpg,stimuli/objects/019b.jpg,stimuli/objects/019a.jpg,target,lure,dist2,dist1,0,1,1,1,0,5,5,29,,,,,,,,,,,539.0396683999861,None,540.0408639999805,None,540.0408639999805,None,540.0408639999805,None,540.0408639999805,None,543.0482564999838,None,543.0482564999838,None,543.0482564999838,None,543.0482564999838,None,None,None,None,None,None,,,,,,,,,,student1,2022-10-20_15h53.50.167,Hippopolis_Updating,2021.1.4,59.97451083430298,
Camponello,stimuli/subj_files/student1_cityB.csv,./stimuli/leipzig.jpg,./stimuli/street_plate2.png,MÁRVÁNY UTCA,stimuli/scenes/023a.jpg,scene,0,stimuli/scenes/023a.jpg,stimuli/objects/030a.jpg,stimuli/scenes/023b.jpg,stimuli/objects/030b.jpg,stimuli/scenes/023a.jpg,dist1,lure,dist2,target,0,1,1,1,0,6,6,58,,,,,,,,,,,545.0568782000046,None,546.0572452000051,None,546.0572452000051,None,546.0572452000051,None,546.0572452000051,None,549.0610536999884,None,549.0610536999884,None,549.0610536999884,None,549.0610536999884,None,None,None,None,None,None,,,,,,,,,,student1,2022-10-20_15h53.50.167,Hippopolis_Updating,2021.1.4,59.97451083430298,
Camponello,stimuli/subj_files/student1_cityB.csv,./stimuli/leipzig.jpg,./stimuli/street_plate2.png,BÚJÓCSKA UTCA,stimuli/scenes/015a.jpg,scene,1,stimuli/scenes/086a.jpg,stimuli/scenes/105b.jpg,stimuli/scenes/086a.jpg,stimuli/scenes/105a.jpg,stimuli/scenes/086b.jpg,dist2,target,dist1,lure,0,1,1,1,0,7,7,48,,,,,,,,,,,551.0734242000035,None,552.0753716999898,None,552.0753716999898,None,552.0753716999898,None,552.0753716999898,None,555.1083349999972,None,555.1083349999972,None,555.1083349999972,None,555.1083349999972,None,None,None,None,None,None,,,,,,,,,,student1,2022-10-20_15h53.50.167,Hippopolis_Updating,2021.1.4,59.97451083430298,
Camponello,stimuli/subj_files/student1_cityB.csv,./stimuli/leipzig.jpg,./stimuli/street_plate2.png,ZÁSZLÓ UTCA,stimuli/scenes/103a.jpg,scene,2,stimuli/objects/037a.jpg,stimuli/scenes/102b.jpg,stimuli/objects/037b.jpg,stimuli/scenes/102a.jpg,stimuli/objects/037a.jpg,dist2,lure,dist1,target,0,1,1,1,0,8,8,60,,,,,,,,,,,557.0895863999904,None,558.0922243999958,None,558.0922243999958,None,558.0922243999958,None,558.0922243999958,None,561.1249611999956,None,561.1249611999956,None,561.1249611999956,None,561.1249611999956,None,None,None,None,None,None,,,,,,,,,,student1,2022-10-20_15h53.50.167,Hippopolis_Updating,2021.1.4,59.97451083430298,
Camponello,stimuli/subj_files/student1_cityB.csv,./stimuli/leipzig.jpg,./stimuli/street_plate2.png,KOSÁR UTCA,stimuli/objects/057a.jpg,object,2,stimuli/scenes/001a.jpg,stimuli/scenes/001a.jpg,stimuli/scenes/001b.jpg,stimuli/objects/005b.jpg,stimuli/objects/005a.jpg,target,lure,dist2,dist1,0,1,1,1,0,9,9,38,,,,,,,,,,,563.1067114000034,None,564.1071298999886,None,564.1071298999886,None,564.1071298999886,None,564.1071298999886,None,567.1215861999954,None,567.1215861999954,None,567.1215861999954,None,567.1215861999954,None,None,None,None,None,None,,,,,,,,,,student1,2022-10-20_15h53.50.167,Hippopolis_Updating,2021.1.4,59.97451083430298,
Camponello,stimuli/subj_files/student1_cityB.csv,./stimuli/leipzig.jpg,./stimuli/street_plate2.png,TÁNYÉR UTCA,stimuli/objects/118a.jpg,object,0,stimuli/objects/118a.jpg,stimuli/objects/102b.jpg,stimuli/objects/102a.jpg,stimuli/objects/118b.jpg,stimuli/objects/118a.jpg,dist2,dist1,lure,target,0,1,1,1,0,10,10,28,,,,,,,,,,,569.1227821999928,None,570.1230733999982,None,570.1230733999982,None,570.1230733999982,None,570.1230733999982,None,573.1234561000019,None,573.1234561000019,None,573.1234561000019,None,573.1234561000019,None,None,None,None,None,None,,,,,,,,,,student1,2022-10-20_15h53.50.167,Hippopolis_Updating,2021.1.4,59.97451083430298,
Camponello,stimuli/subj_files/student1_cityB.csv,./stimuli/leipzig.jpg,./stimuli/street_plate2.png,VÁSÁR UTCA,stimuli/scenes/089a.jpg,scene,0,stimuli/scenes/089a.jpg,stimuli/scenes/089a.jpg,stimuli/scenes/089b.jpg,stimuli/scenes/082b.jpg,stimuli/scenes/082a.jpg,target,lure,dist2,dist1,0,1,1,1,0,11,11,41,,,,,,,,,,,575.1224774000002,None,576.1228711000003,None,576.1228711000003,None,576.1228711000003,None,576.1228711000003,None,579.1256691000017,None,579.1256691000017,None,579.1256691000017,None,579.1256691000017,None,None,None,None,None,None,,,,,,,,,,student1,2022-10-20_15h53.50.167,Hippopolis_Updating,2021.1.4,59.97451083430298,
Camponello,stimuli/subj_files/student1_cityB.csv,./stimuli/leipzig.jpg,./stimuli/street_plate2.png,FÜZET UTCA,stimuli/scenes/047a.jpg,scene,1,stimuli/scenes/012a.jpg,stimuli/scenes/012b.jpg,stimuli/objects/010b.jpg,stimuli/scenes/012a.jpg,stimuli/objects/010a.jpg,lure,dist2,target,dist1,0,1,1,1,0,12,12,56,,,,,,,,,,,581.1396346999973,None,582.1394285999995,None,582.1394285999995,None,582.1394285999995,None,582.1394285999995,None,585.1518004999962,None,585.1518004999962,None,585.1518004999962,None,585.1518004999962,None,None,None,None,None,None,,,,,,,,,,student1,2022-10-20_15h53.50.167,Hippopolis_Updating,2021.1.4,59.97451083430298,
Camponello,stimuli/subj_files/student1_cityB.csv,./stimuli/leipzig.jpg,./stimuli/street_plate2.png,LEMEZ UTCA,stimuli/scenes/022a.jpg,scene,0,stimuli/scenes/022a.jpg,stimuli/scenes/077b.jpg,stimuli/scenes/022a.jpg,stimuli/scenes/022b.jpg,stimuli/scenes/077a.jpg,dist2,target,lure,dist1,0,1,1,1,0,13,13,13,,,,,,,,,,,587.155594699987,None,588.1567055999767,None,588.1567055999767,None,588.1567055999767,None,588.1567055999767,None,591.1605572999979,None,591.1605572999979,None,591.1605572999979,None,591.1605572999979,None,None,None,None,None,None,,,,,,,,,,student1,2022-10-20_15h53.50.167,Hippopolis_Updating,2021.1.4,59.97451083430298,
Camponello,stimuli/subj_files/student1_cityB.csv,./stimuli/leipzig.jpg,./stimuli/street_plate2.png,TOLMÁCS UTCA,stimuli/scenes/082a.jpg,scene,0,stimuli/scenes/082a.jpg,stimuli/scenes/082b.jpg,stimuli/objects/081b.jpg,stimuli/objects/081a.jpg,stimuli/scenes/082a.jpg,lure,dist2,dist1,target,0,1,1,1,0,14,14,2,,,,,,,,,,,593.1723024999956,None,594.1729221999994,None,594.1729221999994,None,594.1729221999994,None,594.1729221999994,None,597.1733759999915,None,597.1733759999915,None,597.1733759999915,None,597.1733759999915,None,None,None,None,None,None,,,,,,,,,,student1,2022-10-20_15h53.50.167,Hippopolis_Updating,2021.1.4,59.97451083430298,
Camponello,stimuli/subj_files/student1_cityB.csv,./stimuli/leipzig.jpg,./stimuli/street_plate2.png,HORGONY UTCA,stimuli/objects/039a.jpg,object,0,stimuli/objects/039a.jpg,stimuli/objects/039b.jpg,stimuli/objects/039a.jpg,stimuli/objects/092b.jpg,stimuli/objects/092a.jpg,lure,target,dist2,dist1,0,1,1,1,0,15,15,26,,,,,,,,,,,599.1720962999971,None,600.1729994999769,None,600.1729994999769,None,600.1729994999769,None,600.1729994999769,None,603.1774368000042,None,603.1774368000042,None,603.1774368000042,None,603.1774368000042,None,None,None,None,None,None,,,,,,,,,,student1,2022-10-20_15h53.50.167,Hippopolis_Updating,2021.1.4,59.97451083430298,
Camponello,stimuli/subj_files/student1_cityB.csv,./stimuli/leipzig.jpg,./stimuli/street_plate2.png,KÁRTYA UTCA,stimuli/scenes/076a.jpg,scene,0,stimuli/scenes/076a.jpg,stimuli/objects/008a.jpg,stimuli/scenes/076b.jpg,stimuli/scenes/076a.jpg,stimuli/objects/008b.jpg,dist1,lure,target,dist2,0,1,1,1,0,16,16,64,,,,,,,,,,,605.188686199981,None,606.1896803999844,None,606.1896803999844,None,606.1896803999844,None,606.1896803999844,None,609.1956410999992,None,609.1956410999992,None,609.1956410999992,None,609.1956410999992,None,None,None,None,None,None,,,,,,,,,,student1,2022-10-20_15h53.50.167,Hippopolis_Updating,2021.1.4,59.97451083430298,
Camponello,stimuli/subj_files/student1_cityB.csv,./stimuli/leipzig.jpg,./stimuli/street_plate2.png,SÜTŐ UTCA,stimuli/scenes/038a.jpg,scene,0,stimuli/scenes/038a.jpg,stimuli/scenes/038b.jpg,stimuli/objects/033b.jpg,stimuli/objects/033a.jpg,stimuli/scenes/038a.jpg,lure,dist2,dist1,target,0,1,1,1,0,17,17,5,,,,,,,,,,,611.2053674999916,None,612.2057714999828,None,612.2057714999828,None,612.2057714999828,None,612.2057714999828,None,615.2065031999955,None,615.2065031999955,None,615.2065031999955,None,615.2065031999955,None,None,None,None,None,None,,,,,,,,,,student1,2022-10-20_15h53.50.167,Hippopolis_Updating,2021.1.4,59.97451083430298,
Camponello,stimuli/subj_files/student1_cityB.csv,./stimuli/leipzig.jpg,./stimuli/street_plate2.png,TELEFON UTCA,stimuli/scenes/017a.jpg,scene,0,stimuli/scenes/017a.jpg,stimuli/objects/094b.jpg,stimuli/scenes/017b.jpg,stimuli/scenes/017a.jpg,stimuli/objects/094a.jpg,dist2,lure,target,dist1,0,1,1,1,0,18,18,27,,,,,,,,,,,617.2051601999847,None,618.2061208999949,None,618.2061208999949,None,618.2061208999949,None,618.2061208999949,None,621.2092095999978,None,621.2092095999978,None,621.2092095999978,None,621.2092095999978,None,None,None,None,None,None,,,,,,,,,,student1,2022-10-20_15h53.50.167,Hippopolis_Updating,2021.1.4,59.97451083430298,
Camponello,stimuli/subj_files/student1_cityB.csv,./stimuli/leipzig.jpg,./stimuli/street_plate2.png,PÁRNA UTCA,stimuli/objects/112a.jpg,object,0,stimuli/objects/112a.jpg,stimuli/objects/112b.jpg,stimuli/scenes/032b.jpg,stimuli/scenes/032a.jpg,stimuli/objects/112a.jpg,lure,dist2,dist1,target,0,1,1,1,0,19,19,77,,,,,,,,,,,623.2218323999841,None,624.2221504999907,None,624.2221504999907,None,624.2221504999907,None,624.2221504999907,None,627.2293069000007,None,627.2293069000007,None,627.2293069000007,None,627.2293069000007,None,None,None,None,None,None,,,,,,,,,,student1,2022-10-20_15h53.50.167,Hippopolis_Updating,2021.1.4,59.97451083430298,
Camponello,stimuli/subj_files/student1_cityB.csv,./stimuli/leipzig.jpg,./stimuli/street_plate2.png,ECSET UTCA,stimuli/scenes/003a.jpg,scene,2,stimuli/objects/005a.jpg,stimuli/objects/035b.jpg,stimuli/objects/005b.jpg,stimuli/objects/035a.jpg,stimuli/objects/005a.jpg,dist2,lure,dist1,target,0,1,1,1,0,20,20,11,,,,,,,,,,,629.2382882999955,None,630.2392360999947,None,630.2392360999947,None,630.2392360999947,None,630.2392360999947,None,633.2623647,None,633.2623647,None,633.2623647,None,633.2623647,None,None,None,None,None,None,,,,,,,,,,student1,2022-10-20_15h53.50.167,Hippopolis_Updating,2021.1.4,59.97451083430298,
Camponello,stimuli/subj_files/student1_cityB.csv,./stimuli/leipzig.jpg,./stimuli/street_plate2.png,TENISZ UTCA,stimuli/objects/102a.jpg,object,0,stimuli/objects/102a.jpg,stimuli/objects/102b.jpg,stimuli/objects/102a.jpg,stimuli/scenes/038a.jpg,stimuli/scenes/038b.jpg,lure,target,dist1,dist2,0,1,1,1,0,21,21,75,,,,,,,,,,,635.2548753999872,None,636.255809299997,None,636.255809299997,None,636.255809299997,None,636.255809299997,None,639.2560878999939,None,639.2560878999939,None,639.2560878999939,None,639.2560878999939,None,None,None,None,None,None,,,,,,,,,,student1,2022-10-20_15h53.50.167,Hippopolis_Updating,2021.1.4,59.97451083430298,
Camponello,stimuli/subj_files/student1_cityB.csv,./stimuli/leipzig.jpg,./stimuli/street_plate2.png,ZONGORA UTCA,stimuli/objects/034a.jpg,object,0,stimuli/objects/034a.jpg,stimuli/objects/034a.jpg,stimuli/objects/034b.jpg,stimuli/objects/016b.jpg,stimuli/objects/016a.jpg,target,lure,dist2,dist1,0,1,1,1,0,22,22,31,,,,,,,,,,,641.2715445999929,None,642.2723695999885,None,642.2723695999885,None,642.2723695999885,None,642.2723695999885,None,645.2810969999991,None,645.2810969999991,None,645.2810969999991,None,645.2810969999991,None,None,None,None,None,None,,,,,,,,,,student1,2022-10-20_15h53.50.167,Hippopolis_Updating,2021.1.4,59.97451083430298,
Camponello,stimuli/subj_files/student1_cityB.csv,./stimuli/leipzig.jpg,./stimuli/street_plate2.png,HARCSA UTCA,stimuli/scenes/080a.jpg,scene,2,stimuli/objects/029a.jpg,stimuli/scenes/054b.jpg,stimuli/scenes/054a.jpg,stimuli/objects/029b.jpg,stimuli/objects/029a.jpg,dist2,dist1,lure,target,0,1,1,1,0,23,23,59,,,,,,,,,,,647.2879921999993,None,648.28902929998,None,648.28902929998,None,648.28902929998,None,648.28902929998,None,651.3053175999958,None,651.3053175999958,None,651.3053175999958,None,651.3053175999958,None,None,None,None,None,None,,,,,,,,,,student1,2022-10-20_15h53.50.167,Hippopolis_Updating,2021.1.4,59.97451083430298,
Camponello,stimuli/subj_files/student1_cityB.csv,./stimuli/leipzig.jpg,./stimuli/street_plate2.png,KÍGYÓ UTCA,stimuli/scenes/032a.jpg,scene,0,stimuli/scenes/032a.jpg,stimuli/scenes/032a.jpg,stimuli/objects/088a.jpg,stimuli/scenes/032b.jpg,stimuli/objects/088b.jpg,target,dist1,lure,dist2,0,1,1,1,0,24,24,76,,,,,,,,,,,653.3045996000001,None,654.3073126999952,None,654.3073126999952,None,654.3073126999952,None,654.3073126999952,None,657.3244623999926,None,657.3244623999926,None,657.3244623999926,None,657.3244623999926,None,None,None,None,None,None,,,,,,,,,,student1,2022-10-20_15h53.50.167,Hippopolis_Updating,2021.1.4,59.97451083430298,
Camponello,stimuli/subj_files/student1_cityB.csv,./stimuli/leipzig.jpg,./stimuli/street_plate2.png,SAJTÓ UTCA,stimuli/scenes/112a.jpg,scene,0,stimuli/scenes/112a.jpg,stimuli/objects/018a.jpg,stimuli/scenes/112b.jpg,stimuli/scenes/112a.jpg,stimuli/objects/018b.jpg,dist1,lure,target,dist2,0,1,1,1,0,25,25,15,,,,,,,,,,,659.3209432000003,None,660.3214903000044,None,660.3214903000044,None,660.3214903000044,None,660.3214903000044,None,663.3288322000008,None,663.3288322000008,None,663.3288322000008,None,663.3288322000008,None,None,None,None,None,None,,,,,,,,,,student1,2022-10-20_15h53.50.167,Hippopolis_Updating,2021.1.4,59.97451083430298,
Camponello,stimuli/subj_files/student1_cityB.csv,./stimuli/leipzig.jpg,./stimuli/street_plate2.png,MAJOM UTCA,stimuli/objects/018a.jpg,object,0,stimuli/objects/018a.jpg,stimuli/objects/018a.jpg,stimuli/scenes/092b.jpg,stimuli/objects/018b.jpg,stimuli/scenes/092a.jpg,target,dist2,lure,dist1,0,1,1,1,0,26,26,78,,,,,,,,,,,665.3378823999956,None,666.3387609999918,None,666.3387609999918,None,666.3387609999918,None,666.3387609999918,None,669.345270299993,None,669.345270299993,None,669.345270299993,None,669.345270299993,None,None,None,None,None,None,,,,,,,,,,student1,2022-10-20_15h53.50.167,Hippopolis_Updating,2021.1.4,59.97451083430298,
Camponello,stimuli/subj_files/student1_cityB.csv,./stimuli/leipzig.jpg,./stimuli/street_plate2.png,SIRÁLY UTCA,stimuli/objects/081a.jpg,object,0,stimuli/objects/081a.jpg,stimuli/objects/081a.jpg,stimuli/objects/081b.jpg,stimuli/scenes/019a.jpg,stimuli/scenes/019b.jpg,target,lure,dist1,dist2,0,1,1,1,0,27,27,50,,,,,,,,,,,671.3541694000014,None,672.3551954999857,None,672.3551954999857,None,672.3551954999857,None,672.3551954999857,None,675.3557326000009,None,675.3557326000009,None,675.3557326000009,None,675.3557326000009,None,None,None,None,None,None,,,,,,,,,,student1,2022-10-20_15h53.50.167,Hippopolis_Updating,2021.1.4,59.97451083430298,
Camponello,stimuli/subj_files/student1_cityB.csv,./stimuli/leipzig.jpg,./stimuli/street_plate2.png,KUTYA UTCA,stimuli/scenes/030a.jpg,scene,0,stimuli/scenes/030a.jpg,stimuli/scenes/030b.jpg,stimuli/scenes/052b.jpg,stimuli/scenes/052a.jpg,stimuli/scenes/030a.jpg,lure,dist2,dist1,target,0,1,1,1,0,28,28,35,,,,,,,,,,,677.3545890999958,None,678.3550963999878,None,678.3550963999878,None,678.3550963999878,None,678.3550963999878,None,681.355613599997,None,681.355613599997,None,681.355613599997,None,681.355613599997,None,None,None,None,None,None,,,,,,,,,,student1,2022-10-20_15h53.50.167,Hippopolis_Updating,2021.1.4,59.97451083430298,
Camponello,stimuli/subj_files/student1_cityB.csv,./stimuli/leipzig.jpg,./stimuli/street_plate2.png,TULIPÁN UTCA,stimuli/objects/058a.jpg,object,0,stimuli/objects/058a.jpg,stimuli/objects/117a.jpg,stimuli/objects/117b.jpg,stimuli/objects/058b.jpg,stimuli/objects/058a.jpg,dist1,dist2,lure,target,0,1,1,1,0,29,29,1,,,,,,,,,,,683.3539635999769,None,684.3542807000049,None,684.3542807000049,None,684.3542807000049,None,684.3542807000049,None,687.355247999978,None,687.355247999978,None,687.355247999978,None,687.355247999978,None,None,None,None,None,None,,,,,,,,,,student1,2022-10-20_15h53.50.167,Hippopolis_Updating,2021.1.4,59.97451083430298,
Camponello,stimuli/subj_files/student1_cityB.csv,./stimuli/leipzig.jpg,./stimuli/street_plate2.png,REPÜLŐ UTCA,stimuli/scenes/098a.jpg,scene,0,stimuli/scenes/098a.jpg,stimuli/scenes/013a.jpg,stimuli/scenes/013b.jpg,stimuli/scenes/098a.jpg,stimuli/scenes/098b.jpg,dist1,dist2,target,lure,0,1,1,1,0,30,30,66,,,,,,,,,,,689.3706978999835,None,690.3717844999919,None,690.3717844999919,None,690.3717844999919,None,690.3717844999919,None,693.3924360999954,None,693.3924360999954,None,693.3924360999954,None,693.3924360999954,None,None,None,None,None,None,,,,,,,,,,student1,2022-10-20_15h53.50.167,Hippopolis_Updating,2021.1.4,59.97451083430298,
Camponello,stimuli/subj_files/student1_cityB.csv,./stimuli/leipzig.jpg,./stimuli/street_plate2.png,SZAPPAN UTCA,stimuli/objects/023a.jpg,object,1,stimuli/objects/087a.jpg,stimuli/scenes/012b.jpg,stimuli/objects/087b.jpg,stimuli/objects/087a.jpg,stimuli/scenes/012a.jpg,dist2,lure,target,dist1,0,1,1,1,0,31,31,7,,,,,,,,,,,695.3875833999773,None,696.3874520999962,None,696.3874520999962,None,696.3874520999962,None,696.3874520999962,None,699.4042924999958,None,699.4042924999958,None,699.4042924999958,None,699.4042924999958,None,None,None,None,None,None,,,,,,,,,,student1,2022-10-20_15h53.50.167,Hippopolis_Updating,2021.1.4,59.97451083430298,
Camponello,stimuli/subj_files/student1_cityB.csv,./stimuli/leipzig.jpg,./stimuli/street_plate2.png,PAPRIKA UTCA,stimuli/objects/033a.jpg,object,0,stimuli/objects/033a.jpg,stimuli/scenes/023a.jpg,stimuli/objects/033b.jpg,stimuli/scenes/023b.jpg,stimuli/objects/033a.jpg,dist1,lure,dist2,target,0,1,1,1,0,32,32,30,,,,,,,,,,,701.4036990999884,None,702.4048671999772,None,702.4048671999772,None,702.4048671999772,None,702.4048671999772,None,705.4272933999891,None,705.4272933999891,None,705.4272933999891,None,705.4272933999891,None,None,None,None,None,None,,,,,,,,,,student1,2022-10-20_15h53.50.167,Hippopolis_Updating,2021.1.4,59.97451083430298,
Camponello,stimuli/subj_files/student1_cityB.csv,./stimuli/leipzig.jpg,./stimuli/street_plate2.png,VIHAR UTCA,stimuli/objects/048a.jpg,object,2,stimuli/scenes/054a.jpg,stimuli/scenes/054b.jpg,stimuli/scenes/100b.jpg,stimuli/scenes/054a.jpg,stimuli/scenes/100a.jpg,lure,dist2,target,dist1,0,1,1,1,0,33,33,65,,,,,,,,,,,707.4201862000045,None,708.4205828999984,None,708.4205828999984,None,708.4205828999984,None,708.4205828999984,None,711.4336229999899,None,711.4336229999899,None,711.4336229999899,None,711.4336229999899,None,None,None,None,None,None,,,,,,,,,,student1,2022-10-20_15h53.50.167,Hippopolis_Updating,2021.1.4,59.97451083430298,
Camponello,stimuli/subj_files/student1_cityB.csv,./stimuli/leipzig.jpg,./stimuli/street_plate2.png,ZEBRA UTCA,stimuli/scenes/106a.jpg,scene,0,stimuli/scenes/106a.jpg,stimuli/scenes/030a.jpg,stimuli/scenes/106a.jpg,stimuli/scenes/106b.jpg,stimuli/scenes/030b.jpg,dist1,target,lure,dist2,0,1,1,1,0,34,34,12,,,,,,,,,,,713.4367244000023,None,714.4372213000024,None,714.4372213000024,None,714.4372213000024,None,714.4372213000024,None,717.4395412000013,None,717.4395412000013,None,717.4395412000013,None,717.4395412000013,None,None,None,None,None,None,,,,,,,,,,student1,2022-10-20_15h53.50.167,Hippopolis_Updating,2021.1.4,59.97451083430298,
Camponello,stimuli/subj_files/student1_cityB.csv,./stimuli/leipzig.jpg,./stimuli/street_plate2.png,TORONY UTCA,stimuli/scenes/094a.jpg,scene,2,stimuli/objects/054a.jpg,stimuli/scenes/001a.jpg,stimuli/scenes/001b.jpg,stimuli/objects/054b.jpg,stimuli/objects/054a.jpg,dist1,dist2,lure,target,0,1,1,1,0,35,35,62,,,,,,,,,,,719.4533405999828,None,720.4536528000026,None,720.4536528000026,None,720.4536528000026,None,720.4536528000026,None,723.4664870999986,None,723.4664870999986,None,723.4664870999986,None,723.4664870999986,None,None,None,None,None,None,,,,,,,,,,student1,2022-10-20_15h53.50.167,Hippopolis_Updating,2021.1.4,59.97451083430298,
Camponello,stimuli/subj_files/student1_cityB.csv,./stimuli/leipzig.jpg,./stimuli/street_plate2.png,SZILVA UTCA,stimuli/objects/105a.jpg,object,0,stimuli/objects/105a.jpg,stimuli/objects/049b.jpg,stimuli/objects/105b.jpg,stimuli/objects/049a.jpg,stimuli/objects/105a.jpg,dist2,lure,dist1,target,0,1,1,1,0,36,36,36,,,,,,,,,,,725.4698221999861,None,726.4703296999796,None,726.4703296999796,None,726.4703296999796,None,726.4703296999796,None,729.477089699998,None,729.477089699998,None,729.477089699998,None,729.477089699998,None,None,None,None,None,None,,,,,,,,,,student1,2022-10-20_15h53.50.167,Hippopolis_Updating,2021.1.4,59.97451083430298,
Camponello,stimuli/subj_files/student1_cityB.csv,./stimuli/leipzig.jpg,./stimuli/street_plate2.png,LOVAGLÁS UTCA,stimuli/objects/019a.jpg,object,0,stimuli/objects/019a.jpg,stimuli/objects/019b.jpg,stimuli/objects/019a.jpg,stimuli/scenes/017b.jpg,stimuli/scenes/017a.jpg,lure,target,dist2,dist1,0,1,1,1,0,37,37,53,,,,,,,,,,,731.4864478999807,None,732.4873112999776,None,732.4873112999776,None,732.4873112999776,None,732.4873112999776,None,735.4879290999961,None,735.4879290999961,None,735.4879290999961,None,735.4879290999961,None,None,None,None,None,None,,,,,,,,,,student1,2022-10-20_15h53.50.167,Hippopolis_Updating,2021.1.4,59.97451083430298,
Camponello,stimuli/subj_files/student1_cityB.csv,./stimuli/leipzig.jpg,./stimuli/street_plate2.png,RIBIZLI UTCA,stimuli/objects/088a.jpg,object,0,stimuli/objects/088a.jpg,stimuli/objects/088b.jpg,stimuli/objects/065a.jpg,stimuli/objects/088a.jpg,stimuli/objects/065b.jpg,lure,dist1,target,dist2,0,1,1,1,0,38,38,34,,,,,,,,,,,737.4863746000046,None,738.4871550999815,None,738.4871550999815,None,738.4871550999815,None,738.4871550999815,None,741.4877732000023,None,741.4877732000023,None,741.4877732000023,None,741.4877732000023,None,None,None,None,None,None,,,,,,,,,,student1,2022-10-20_15h53.50.167,Hippopolis_Updating,2021.1.4,59.97451083430298,
Camponello,stimuli/subj_files/student1_cityB.csv,./stimuli/leipzig.jpg,./stimuli/street_plate2.png,MENTA UTCA,stimuli/objects/092a.jpg,object,0,stimuli/objects/092a.jpg,stimuli/scenes/069a.jpg,stimuli/scenes/069b.jpg,stimuli/objects/092a.jpg,stimuli/objects/092b.jpg,dist1,dist2,target,lure,0,1,1,1,0,39,39,67,,,,,,,,,,,743.5034723999852,None,744.5040768999897,None,744.5040768999897,None,744.5040768999897,None,744.5040768999897,None,747.5072849999997,None,747.5072849999997,None,747.5072849999997,None,747.5072849999997,None,None,None,None,None,None,,,,,,,,,,student1,2022-10-20_15h53.50.167,Hippopolis_Updating,2021.1.4,59.97451083430298,
Camponello,stimuli/subj_files/student1_cityB.csv,./stimuli/leipzig.jpg,./stimuli/street_plate2.png,HENTES UTCA,stimuli/scenes/092a.jpg,scene,0,stimuli/scenes/092a.jpg,stimuli/scenes/114b.jpg,stimuli/scenes/114a.jpg,stimuli/scenes/092a.jpg,stimuli/scenes/092b.jpg,dist2,dist1,target,lure,0,1,1,1,0,40,40,46,,,,,,,,,,,749.5195145999896,None,750.5205279999936,None,750.5205279999936,None,750.5205279999936,None,750.5205279999936,None,753.5258729000052,None,753.5258729000052,None,753.5258729000052,None,753.5258729000052,None,None,None,None,None,None,,,,,,,,,,student1,2022-10-20_15h53.50.167,Hippopolis_Updating,2021.1.4,59.97451083430298,
Camponello,stimuli/subj_files/student1_cityB.csv,./stimuli/leipzig.jpg,./stimuli/street_plate2.png,TIGRIS UTCA,stimuli/scenes/021a.jpg,scene,0,stimuli/scenes/021a.jpg,stimuli/scenes/022b.jpg,stimuli/scenes/021a.jpg,stimuli/scenes/021b.jpg,stimuli/scenes/022a.jpg,dist2,target,lure,dist1,0,1,1,1,0,41,41,68,,,,,,,,,,,755.5361177999876,None,756.5369667999912,None,756.5369667999912,None,756.5369667999912,None,756.5369667999912,None,759.5390987999854,None,759.5390987999854,None,759.5390987999854,None,759.5390987999854,None,None,None,None,None,None,,,,,,,,,,student1,2022-10-20_15h53.50.167,Hippopolis_Updating,2021.1.4,59.97451083430298,
Camponello,stimuli/subj_files/student1_cityB.csv,./stimuli/leipzig.jpg,./stimuli/street_plate2.png,BOHÓC UTCA,stimuli/objects/064a.jpg,object,0,stimuli/objects/064a.jpg,stimuli/objects/040b.jpg,stimuli/objects/040a.jpg,stimuli/objects/064a.jpg,stimuli/objects/064b.jpg,dist2,dist1,target,lure,0,1,1,1,0,42,42,17,,,,,,,,,,,761.5531483999803,None,762.5529436999932,None,762.5529436999932,None,762.5529436999932,None,762.5529436999932,None,765.5554830000037,None,765.5554830000037,None,765.5554830000037,None,765.5554830000037,None,None,None,None,None,None,,,,,,,,,,student1,2022-10-20_15h53.50.167,Hippopolis_Updating,2021.1.4,59.97451083430298,
Camponello,stimuli/subj_files/student1_cityB.csv,./stimuli/leipzig.jpg,./stimuli/street_plate2.png,SZŐLŐ UTCA,stimuli/scenes/099a.jpg,scene,0,stimuli/scenes/099a.jpg,stimuli/objects/105a.jpg,stimuli/scenes/099a.jpg,stimuli/scenes/099b.jpg,stimuli/objects/105b.jpg,dist1,target,lure,dist2,0,1,1,1,0,43,43,55,,,,,,,,,,,767.5689869999769,None,768.5694077999797,None,768.5694077999797,None,768.5694077999797,None,768.5694077999797,None,771.5736591999885,None,771.5736591999885,None,771.5736591999885,None,771.5736591999885,None,None,None,None,None,None,,,,,,,,,,student1,2022-10-20_15h53.50.167,Hippopolis_Updating,2021.1.4,59.97451083430298,
Camponello,stimuli/subj_files/student1_cityB.csv,./stimuli/leipzig.jpg,./stimuli/street_plate2.png,LEGELŐ UTCA,stimuli/objects/030a.jpg,object,0,stimuli/objects/030a.jpg,stimuli/objects/039a.jpg,stimuli/objects/030a.jpg,stimuli/objects/030b.jpg,stimuli/objects/039b.jpg,dist1,target,lure,dist2,0,1,1,1,0,44,44,70,,,,,,,,,,,773.5857214999851,None,774.5861029999796,None,774.5861029999796,None,774.5861029999796,None,774.5861029999796,None,777.5942374999868,None,777.5942374999868,None,777.5942374999868,None,777.5942374999868,None,779.6024859999889,None,space,779.6024859999889,None,2.4022094999963883,,,,,,,,,student1,2022-10-20_15h53.50.167,Hippopolis_Updating,2021.1.4,59.97451083430298,
Camponello,stimuli/subj_files/student1_cityB.csv,./stimuli/leipzig.jpg,./stimuli/street_plate2.png,KÓKUSZ UTCA,stimuli/scenes/052a.jpg,scene,0,stimuli/scenes/052a.jpg,stimuli/scenes/052a.jpg,stimuli/objects/077b.jpg,stimuli/objects/077a.jpg,stimuli/scenes/052b.jpg,target,dist2,dist1,lure,0,1,1,1,0,45,45,19,,,,,,,,,,,782.0354402999801,None,783.0365397999994,None,783.0365397999994,None,783.0365397999994,None,783.0365397999994,None,786.0369754999992,None,786.0369754999992,None,786.0369754999992,None,786.0369754999992,None,None,None,None,None,None,,,,,,,,,,student1,2022-10-20_15h53.50.167,Hippopolis_Updating,2021.1.4,59.97451083430298,
Camponello,stimuli/subj_files/student1_cityB.csv,./stimuli/leipzig.jpg,./stimuli/street_plate2.png,MANDARIN UTCA,stimuli/scenes/075a.jpg,scene,0,stimuli/scenes/075a.jpg,stimuli/objects/072a.jpg,stimuli/objects/072b.jpg,stimuli/scenes/075b.jpg,stimuli/scenes/075a.jpg,dist1,dist2,lure,target,0,1,1,1,0,46,46,37,,,,,,,,,,,788.0522678999987,None,789.053317199985,None,789.053317199985,None,789.053317199985,None,789.053317199985,None,792.0534732999804,None,792.0534732999804,None,792.0534732999804,None,792.0534732999804,None,None,None,None,None,None,,,,,,,,,,student1,2022-10-20_15h53.50.167,Hippopolis_Updating,2021.1.4,59.97451083430298,
Camponello,stimuli/subj_files/student1_cityB.csv,./stimuli/leipzig.jpg,./stimuli/street_plate2.png,TÉRKÉP UTCA,stimuli/scenes/013a.jpg,scene,0,stimuli/scenes/013a.jpg,stimuli/scenes/006b.jpg,stimuli/scenes/006a.jpg,stimuli/scenes/013a.jpg,stimuli/scenes/013b.jpg,dist2,dist1,target,lure,0,1,1,1,0,47,47,63,,,,,,,,,,,794.0687287999899,None,795.0694691999815,None,795.0694691999815,None,795.0694691999815,None,795.0694691999815,None,798.0739609999873,None,798.0739609999873,None,798.0739609999873,None,798.0739609999873,None,None,None,None,None,None,,,,,,,,,,student1,2022-10-20_15h53.50.167,Hippopolis_Updating,2021.1.4,59.97451083430298,
Camponello,stimuli/subj_files/student1_cityB.csv,./stimuli/leipzig.jpg,./stimuli/street_plate2.png,MOSODA UTCA,stimuli/objects/052a.jpg,object,0,stimuli/objects/052a.jpg,stimuli/objects/052b.jpg,stimuli/scenes/035a.jpg,stimuli/objects/052a.jpg,stimuli/scenes/035b.jpg,lure,dist1,target,dist2,0,1,1,1,0,48,48,51,,,,,,,,,,,800.0854234999861,None,801.0857126000046,None,801.0857126000046,None,801.0857126000046,None,801.0857126000046,None,804.0947785000026,None,804.0947785000026,None,804.0947785000026,None,804.0947785000026,None,None,None,None,None,None,,,,,,,,,,student1,2022-10-20_15h53.50.167,Hippopolis_Updating,2021.1.4,59.97451083430298,
Camponello,stimuli/subj_files/student1_cityB.csv,./stimuli/leipzig.jpg,./stimuli/street_plate2.png,SZÖCSKE UTCA,stimuli/scenes/026a.jpg,scene,2,stimuli/objects/061a.jpg,stimuli/scenes/063a.jpg,stimuli/objects/061a.jpg,stimuli/scenes/063b.jpg,stimuli/objects/061b.jpg,dist1,target,dist2,lure,0,1,1,1,0,49,49,71,,,,,,,,,,,806.1018558999931,None,807.1022667999787,None,807.1022667999787,None,807.1022667999787,None,807.1022667999787,None,810.1228029999766,None,810.1228029999766,None,810.1228029999766,None,810.1228029999766,None,None,None,None,None,None,,,,,,,,,,student1,2022-10-20_15h53.50.167,Hippopolis_Updating,2021.1.4,59.97451083430298,
Camponello,stimuli/subj_files/student1_cityB.csv,./stimuli/leipzig.jpg,./stimuli/street_plate2.png,FÜGE UTCA,stimuli/scenes/115a.jpg,scene,0,stimuli/scenes/115a.jpg,stimuli/scenes/115b.jpg,stimuli/scenes/115a.jpg,stimuli/objects/084b.jpg,stimuli/objects/084a.jpg,lure,target,dist2,dist1,0,1,1,1,0,50,50,47,,,,,,,,,,,812.1185295000032,None,813.1189053999842,None,813.1189053999842,None,813.1189053999842,None,813.1189053999842,None,816.1220520999923,None,816.1220520999923,None,816.1220520999923,None,816.1220520999923,None,None,None,None,None,None,,,,,,,,,,student1,2022-10-20_15h53.50.167,Hippopolis_Updating,2021.1.4,59.97451083430298,
Camponello,stimuli/subj_files/student1_cityB.csv,./stimuli/leipzig.jpg,./stimuli/street_plate2.png,TERÍTŐ UTCA,stimuli/objects/098a.jpg,object,1,stimuli/objects/096a.jpg,stimuli/objects/096b.jpg,stimuli/objects/096a.jpg,stimuli/objects/013b.jpg,stimuli/objects/013a.jpg,lure,target,dist2,dist1,0,1,1,1,0,51,51,39,,,,,,,,,,,818.1355722000008,None,819.1354249999858,None,819.1354249999858,None,819.1354249999858,None,819.1354249999858,None,822.1503825999971,None,822.1503825999971,None,822.1503825999971,None,822.1503825999971,None,None,None,None,None,None,,,,,,,,,,student1,2022-10-20_15h53.50.167,Hippopolis_Updating,2021.1.4,59.97451083430298,
Camponello,stimuli/subj_files/student1_cityB.csv,./stimuli/leipzig.jpg,./stimuli/street_plate2.png,SÜTEMÉNY UTCA,stimuli/objects/074a.jpg,object,2,stimuli/scenes/102a.jpg,stimuli/objects/061b.jpg,stimuli/objects/061a.jpg,stimuli/scenes/102a.jpg,stimuli/scenes/102b.jpg,dist2,dist1,target,lure,0,1,1,1,0,52,52,32,,,,,,,,,,,824.1514494000003,None,825.1519684999948,None,825.1519684999948,None,825.1519684999948,None,825.1519684999948,None,828.1673714999924,None,828.1673714999924,None,828.1673714999924,None,828.1673714999924,None,None,None,None,None,None,,,,,,,,,,student1,2022-10-20_15h53.50.167,Hippopolis_Updating,2021.1.4,59.97451083430298,
Camponello,stimuli/subj_files/student1_cityB.csv,./stimuli/leipzig.jpg,./stimuli/street_plate2.png,SUGÁR UTCA,stimuli/objects/094a.jpg,object,0,stimuli/objects/094a.jpg,stimuli/objects/094b.jpg,stimuli/objects/064b.jpg,stimuli/objects/064a.jpg,stimuli/objects/094a.jpg,lure,dist2,dist1,target,0,1,1,1,0,53,53,40,,,,,,,,,,,830.1685579000041,None,831.169147699984,None,831.169147699984,None,831.169147699984,None,831.169147699984,None,834.1735060999927,None,834.1735060999927,None,834.1735060999927,None,834.1735060999927,None,None,None,None,None,None,,,,,,,,,,student1,2022-10-20_15h53.50.167,Hippopolis_Updating,2021.1.4,59.97451083430298,
Camponello,stimuli/subj_files/student1_cityB.csv,./stimuli/leipzig.jpg,./stimuli/street_plate2.png,TÁSKA UTCA,stimuli/objects/110a.jpg,object,2,stimuli/scenes/079a.jpg,stimuli/scenes/079a.jpg,stimuli/objects/037b.jpg,stimuli/objects/037a.jpg,stimuli/scenes/079b.jpg,target,dist2,dist1,lure,0,1,1,1,0,54,54,33,,,,,,,,,,,836.1846076999791,None,837.185576799995,None,837.185576799995,None,837.185576799995,None,837.185576799995,None,840.2001768999908,None,840.2001768999908,None,840.2001768999908,None,840.2001768999908,None,None,None,None,None,None,,,,,,,,,,student1,2022-10-20_15h53.50.167,Hippopolis_Updating,2021.1.4,59.97451083430298,
Camponello,stimuli/subj_files/student1_cityB.csv,./stimuli/leipzig.jpg,./stimuli/street_plate2.png,FOLYÓ UTCA,stimuli/scenes/035a.jpg,scene,0,stimuli/scenes/035a.jpg,stimuli/objects/034a.jpg,stimuli/scenes/035a.jpg,stimuli/objects/034b.jpg,stimuli/scenes/035b.jpg,dist1,target,dist2,lure,0,1,1,1,0,55,55,61,,,,,,,,,,,842.2018041999836,None,843.2016412999947,None,843.2016412999947,None,843.2016412999947,None,843.2016412999947,None,846.2031357999949,None,846.2031357999949,None,846.2031357999949,None,846.2031357999949,None,None,None,None,None,None,,,,,,,,,,student1,2022-10-20_15h53.50.167,Hippopolis_Updating,2021.1.4,59.97451083430298,
Camponello,stimuli/subj_files/student1_cityB.csv,./stimuli/leipzig.jpg,./stimuli/street_plate2.png,FÉSZEK UTCA,stimuli/objects/042a.jpg,object,1,stimuli/objects/044a.jpg,stimuli/scenes/020b.jpg,stimuli/objects/044a.jpg,stimuli/scenes/020a.jpg,stimuli/objects/044b.jpg,dist2,target,dist1,lure,0,1,1,1,0,56,56,10,,,,,,,,,,,848.2182664999855,None,849.2188020999893,None,849.2188020999893,None,849.2188020999893,None,849.2188020999893,None,852.2340871999913,None,852.2340871999913,None,852.2340871999913,None,852.2340871999913,None,None,None,None,None,None,,,,,,,,,,student1,2022-10-20_15h53.50.167,Hippopolis_Updating,2021.1.4,59.97451083430298,
Camponello,stimuli/subj_files/student1_cityB.csv,./stimuli/leipzig.jpg,./stimuli/street_plate2.png,PALACK UTCA,stimuli/scenes/033a.jpg,scene,1,stimuli/scenes/107a.jpg,stimuli/objects/119b.jpg,stimuli/scenes/107b.jpg,stimuli/objects/119a.jpg,stimuli/scenes/107a.jpg,dist2,lure,dist1,target,0,1,1,1,0,57,57,44,,,,,,,,,,,854.2342660999857,None,855.2353936999862,None,855.2353936999862,None,855.2353936999862,None,855.2353936999862,None,858.2505889000022,None,858.2505889000022,None,858.2505889000022,None,858.2505889000022,None,None,None,None,None,None,,,,,,,,,,student1,2022-10-20_15h53.50.167,Hippopolis_Updating,2021.1.4,59.97451083430298,
Camponello,stimuli/subj_files/student1_cityB.csv,./stimuli/leipzig.jpg,./stimuli/street_plate2.png,GYŰRŰ UTCA,stimuli/objects/056a.jpg,object,1,stimuli/objects/013a.jpg,stimuli/objects/013b.jpg,stimuli/objects/087b.jpg,stimuli/objects/013a.jpg,stimuli/objects/087a.jpg,lure,dist2,target,dist1,0,1,1,1,0,58,58,22,,,,,,,,,,,860.2507524999965,None,861.2511880999955,None,861.2511880999955,None,861.2511880999955,None,861.2511880999955,None,864.2705247999984,None,864.2705247999984,None,864.2705247999984,None,864.2705247999984,None,None,None,None,None,None,,,,,,,,,,student1,2022-10-20_15h53.50.167,Hippopolis_Updating,2021.1.4,59.97451083430298,
Camponello,stimuli/subj_files/student1_cityB.csv,./stimuli/leipzig.jpg,./stimuli/street_plate2.png,VITORLA UTCA,stimuli/scenes/110a.jpg,scene,1,stimuli/scenes/062a.jpg,stimuli/scenes/107a.jpg,stimuli/scenes/107b.jpg,stimuli/scenes/062b.jpg,stimuli/scenes/062a.jpg,dist1,dist2,lure,target,0,1,1,1,0,59,59,45,,,,,,,,,,,866.2679025999969,None,867.2680280999921,None,867.2680280999921,None,867.2680280999921,None,867.2680280999921,None,870.2812327999854,None,870.2812327999854,None,870.2812327999854,None,870.2812327999854,None,None,None,None,None,None,,,,,,,,,,student1,2022-10-20_15h53.50.167,Hippopolis_Updating,2021.1.4,59.97451083430298,
Camponello,stimuli/subj_files/student1_cityB.csv,./stimuli/leipzig.jpg,./stimuli/street_plate2.png,KALAPÁCS UTCA,stimuli/scenes/049a.jpg,scene,0,stimuli/scenes/049a.jpg,stimuli/objects/112b.jpg,stimuli/scenes/049a.jpg,stimuli/objects/112a.jpg,stimuli/scenes/049b.jpg,dist2,target,dist1,lure,0,1,1,1,0,60,60,3,,,,,,,,,,,872.2839438999945,None,873.2845447,None,873.2845447,None,873.2845447,None,873.2845447,None,876.2873259999906,None,876.2873259999906,None,876.2873259999906,None,876.2873259999906,None,None,None,None,None,None,,,,,,,,,,student1,2022-10-20_15h53.50.167,Hippopolis_Updating,2021.1.4,59.97451083430298,
Camponello,stimuli/subj_files/student1_cityB.csv,./stimuli/leipzig.jpg,./stimuli/street_plate2.png,TÜKÖR UTCA,stimuli/scenes/006a.jpg,scene,0,stimuli/scenes/006a.jpg,stimuli/objects/116b.jpg,stimuli/objects/116a.jpg,stimuli/scenes/006a.jpg,stimuli/scenes/006b.jpg,dist2,dist1,target,lure,0,1,1,1,0,61,61,25,,,,,,,,,,,878.3006523999793,None,879.3010374000005,None,879.3010374000005,None,879.3010374000005,None,879.3010374000005,None,882.3045793999918,None,882.3045793999918,None,882.3045793999918,None,882.3045793999918,None,None,None,None,None,None,,,,,,,,,,student1,2022-10-20_15h53.50.167,Hippopolis_Updating,2021.1.4,59.97451083430298,
Camponello,stimuli/subj_files/student1_cityB.csv,./stimuli/leipzig.jpg,./stimuli/street_plate2.png,ORVOS UTCA,stimuli/objects/016a.jpg,object,0,stimuli/objects/016a.jpg,stimuli/scenes/089a.jpg,stimuli/scenes/089b.jpg,stimuli/objects/016a.jpg,stimuli/objects/016b.jpg,dist1,dist2,target,lure,0,1,1,1,0,62,62,4,,,,,,,,,,,884.3169980999955,None,885.3180563999922,None,885.3180563999922,None,885.3180563999922,None,885.3180563999922,None,888.3241480999859,None,888.3241480999859,None,888.3241480999859,None,888.3241480999859,None,None,None,None,None,None,,,,,,,,,,student1,2022-10-20_15h53.50.167,Hippopolis_Updating,2021.1.4,59.97451083430298,
Camponello,stimuli/subj_files/student1_cityB.csv,./stimuli/leipzig.jpg,./stimuli/street_plate2.png,SALÁTA UTCA,stimuli/objects/008a.jpg,object,0,stimuli/objects/008a.jpg,stimuli/scenes/099b.jpg,stimuli/objects/008b.jpg,stimuli/objects/008a.jpg,stimuli/scenes/099a.jpg,dist2,lure,target,dist1,0,1,1,1,0,63,63,73,,,,,,,,,,,890.3337098999764,None,891.3341653999814,None,891.3341653999814,None,891.3341653999814,None,891.3341653999814,None,894.3369135999819,None,894.3369135999819,None,894.3369135999819,None,894.3369135999819,None,None,None,None,None,None,,,,,,,,,,student1,2022-10-20_15h53.50.167,Hippopolis_Updating,2021.1.4,59.97451083430298,
Camponello,stimuli/subj_files/student1_cityB.csv,./stimuli/leipzig.jpg,./stimuli/street_plate2.png,KESZTYŰ UTCA,stimuli/scenes/040a.jpg,scene,1,stimuli/scenes/105a.jpg,stimuli/objects/096b.jpg,stimuli/scenes/105a.jpg,stimuli/scenes/105b.jpg,stimuli/objects/096a.jpg,dist2,target,lure,dist1,0,1,1,1,0,64,64,16,,,,,,,,,,,896.350194300001,None,897.3511018999852,None,897.3511018999852,None,897.3511018999852,None,897.3511018999852,None,900.3644490999868,None,900.3644490999868,None,900.3644490999868,None,900.3644490999868,None,None,None,None,None,None,,,,,,,,,,student1,2022-10-20_15h53.50.167,Hippopolis_Updating,2021.1.4,59.97451083430298,
Camponello,stimuli/subj_files/student1_cityB.csv,./stimuli/leipzig.jpg,./stimuli/street_plate2.png,SZOBOR UTCA,stimuli/objects/031a.jpg,object,1,stimuli/objects/010a.jpg,stimuli/objects/010a.jpg,stimuli/objects/044b.jpg,stimuli/objects/044a.jpg,stimuli/objects/010b.jpg,target,dist2,dist1,lure,0,1,1,1,0,65,65,79,,,,,,,,,,,902.3672761999769,None,903.367187900003,None,903.367187900003,None,903.367187900003,None,903.367187900003,None,906.3792192999972,None,906.3792192999972,None,906.3792192999972,None,906.3792192999972,None,None,None,None,None,None,,,,,,,,,,student1,2022-10-20_15h53.50.167,Hippopolis_Updating,2021.1.4,59.97451083430298,
Camponello,stimuli/subj_files/student1_cityB.csv,./stimuli/leipzig.jpg,./stimuli/street_plate2.png,BETON UTCA,stimuli/objects/104a.jpg,object,2,stimuli/scenes/063a.jpg,stimuli/scenes/063b.jpg,stimuli/scenes/063a.jpg,stimuli/objects/054a.jpg,stimuli/objects/054b.jpg,lure,target,dist1,dist2,0,1,1,1,0,66,66,52,,,,,,,,,,,908.3839086999942,None,909.3835595999844,None,909.3835595999844,None,909.3835595999844,None,909.3835595999844,None,912.3993452999857,None,912.3993452999857,None,912.3993452999857,None,912.3993452999857,None,None,None,None,None,None,,,,,,,,,,student1,2022-10-20_15h53.50.167,Hippopolis_Updating,2021.1.4,59.97451083430298,
Camponello,stimuli/subj_files/student1_cityB.csv,./stimuli/leipzig.jpg,./stimuli/street_plate2.png,LÉPCSŐ UTCA,stimuli/objects/049a.jpg,object,0,stimuli/objects/049a.jpg,stimuli/scenes/076b.jpg,stimuli/scenes/076a.jpg,stimuli/objects/049b.jpg,stimuli/objects/049a.jpg,dist2,dist1,lure,target,0,1,1,1,0,67,67,43,,,,,,,,,,,914.3999881999916,None,915.4009669999941,None,915.4009669999941,None,915.4009669999941,None,915.4009669999941,None,918.4105742999818,None,918.4105742999818,None,918.4105742999818,None,918.4105742999818,None,None,None,None,None,None,,,,,,,,,,student1,2022-10-20_15h53.50.167,Hippopolis_Updating,2021.1.4,59.97451083430298,
Camponello,stimuli/subj_files/student1_cityB.csv,./stimuli/leipzig.jpg,./stimuli/street_plate2.png,TISZTÁS UTCA,stimuli/objects/116a.jpg,object,0,stimuli/objects/116a.jpg,stimuli/objects/058a.jpg,stimuli/objects/116a.jpg,stimuli/objects/116b.jpg,stimuli/objects/058b.jpg,dist1,target,lure,dist2,0,1,1,1,0,68,68,18,,,,,,,,,,,920.4165960999962,None,921.4175361999951,None,921.4175361999951,None,921.4175361999951,None,921.4175361999951,None,924.4218172999972,None,924.4218172999972,None,924.4218172999972,None,924.4218172999972,None,None,None,None,None,None,,,,,,,,,,student1,2022-10-20_15h53.50.167,Hippopolis_Updating,2021.1.4,59.97451083430298,
Camponello,stimuli/subj_files/student1_cityB.csv,./stimuli/leipzig.jpg,./stimuli/street_plate2.png,ÁLLOMÁS UTCA,stimuli/scenes/069a.jpg,scene,0,stimuli/scenes/069a.jpg,stimuli/scenes/106a.jpg,stimuli/scenes/106b.jpg,stimuli/scenes/069b.jpg,stimuli/scenes/069a.jpg,dist1,dist2,lure,target,0,1,1,1,0,69,69,42,,,,,,,,,,,926.4330029999837,None,927.4337965000013,None,927.4337965000013,None,927.4337965000013,None,927.4337965000013,None,930.4369089999818,None,930.4369089999818,None,930.4369089999818,None,930.4369089999818,None,None,None,None,None,None,,,,,,,,,,student1,2022-10-20_15h53.50.167,Hippopolis_Updating,2021.1.4,59.97451083430298,
Camponello,stimuli/subj_files/student1_cityB.csv,./stimuli/leipzig.jpg,./stimuli/street_plate2.png,LABDA UTCA,stimuli/objects/082a.jpg,object,0,stimuli/objects/082a.jpg,stimuli/scenes/049a.jpg,stimuli/scenes/049b.jpg,stimuli/objects/082b.jpg,stimuli/objects/082a.jpg,dist1,dist2,lure,target,0,1,1,1,0,70,70,72,,,,,,,,,,,932.449589900003,None,933.4501038999879,None,933.4501038999879,None,933.4501038999879,None,933.4501038999879,None,936.450386099983,None,936.450386099983,None,936.450386099983,None,936.450386099983,None,None,None,None,None,None,,,,,,,,,,student1,2022-10-20_15h53.50.167,Hippopolis_Updating,2021.1.4,59.97451083430298,
Camponello,stimuli/subj_files/student1_cityB.csv,./stimuli/leipzig.jpg,./stimuli/street_plate2.png,KRÉTA UTCA,stimuli/scenes/091a.jpg,scene,0,stimuli/scenes/091a.jpg,stimuli/scenes/098b.jpg,stimuli/scenes/091b.jpg,stimuli/scenes/098a.jpg,stimuli/scenes/091a.jpg,dist2,lure,dist1,target,0,1,1,1,0,71,71,21,,,,,,,,,,,938.4494921999867,None,939.4506758999778,None,939.4506758999778,None,939.4506758999778,None,939.4506758999778,None,942.4506440999976,None,942.4506440999976,None,942.4506440999976,None,942.4506440999976,None,None,None,None,None,None,,,,,,,,,,student1,2022-10-20_15h53.50.167,Hippopolis_Updating,2021.1.4,59.97451083430298,
