CityName,StimuliFile,CityImage,StreetSign,Cue,Image,Category,Novelty,UpdateImage,TestImage1,TestImage2,TestImage3,TestImage4,TestImage1Type,TestImage2Type,TestImage3Type,TestImage4Type,CityBlock.thisRepN,CityBlock.thisTrialN,CityBlock.thisN,CityBlock.thisIndex,LearningTrials.thisRepN,LearningTrials.thisTrialN,LearningTrials.thisN,LearningTrials.thisIndex,trials.thisRepN,trials.thisTrialN,trials.thisN,trials.thisIndex,learning_instructions_text.started,intro_key.started,intro_key.keys,intro_key.rt,cityname_text.started,city_image.started,fx_cross.started,plate.started,city_text.started,street_text.started,learning_image.started,short_break_key.keys,fx_cross.stopped,short_break_text.started,short_break_key.started,short_break_key.rt,test_text.started,key_resp.started,key_resp.keys,key_resp.rt,plate_test.started,city_text_test.started,street_text_test.started,test_question.started,test_key_resp.started,button_image.started,test_key_resp.keys,verbal_test_key_resp.keys,test_key_resp.rt,plate_test.stopped,city_text_test.stopped,street_text_test.stopped,test_question.stopped,test_key_resp.stopped,button_image.stopped,plate_verbal.started,street_text_verbal.started,city_text_verbal.started,question_verbal.started,verbal_test_key_resp.started,verbal_test_key_resp.rt,n_remembered,break_text.started,break_key_resp.started,break_key_resp.keys,break_key_resp.rt,plate.stopped,city_text.stopped,street_text.stopped,learning_image.stopped,end_text.started,end_text.stopped,participant,date,expName,psychopyVersion,frameRate,
,,,,,,,,,,,,,,,,,,,,,,,,,,,,,140.45347239999683,140.45347239999683,space,21.6622002000222,,,,,,,,,,,,,,,,,,,,,,,,,,,,,,,,,,,,,,,,,,,,,,,,,student1,2022-10-20_15h10.30.486,Hippopolis_Learning,2022.2.2,59.990197607384104,
Hippopolis,stimuli/subj_files/student1_cityA.csv,./stimuli/frankfurt.jpg,./stimuli/street_plate1.png,POGÁCSA UTCA,stimuli/scenes/046a.jpg,scene,0,stimuli/scenes/046a.jpg,stimuli/scenes/042a.jpg,stimuli/scenes/046a.jpg,stimuli/scenes/046b.jpg,stimuli/scenes/042b.jpg,dist1,target,lure,dist2,0,0,0,0,0,0,0,49,,,,,,,,,162.27110439998796,162.27110439998796,165.18057039999985,166.18921839998802,166.18921839998802,166.18921839998802,166.18921839998802,None,,,,,,,,,,,,,,,,,,,,,,,,,,,,,,,,,,,,,,,,,student1,2022-10-20_15h10.30.486,Hippopolis_Learning,2022.2.2,59.990197607384104,
Hippopolis,stimuli/subj_files/student1_cityA.csv,./stimuli/frankfurt.jpg,./stimuli/street_plate1.png,KULLANCS UTCA,stimuli/objects/089a.jpg,object,0,stimuli/objects/089a.jpg,stimuli/scenes/072a.jpg,stimuli/objects/089a.jpg,stimuli/scenes/072b.jpg,stimuli/objects/089b.jpg,dist1,target,dist2,lure,0,0,0,0,0,1,1,34,,,,,,,,,,,169.1595608999778,170.17896599997766,170.17896599997766,170.17896599997766,170.17896599997766,None,170.17896599997766,,,,,,,,,,,,,,,,,,,,,,,,,,,,,,,,,,,,,,,,student1,2022-10-20_15h10.30.486,Hippopolis_Learning,2022.2.2,59.990197607384104,
Hippopolis,stimuli/subj_files/student1_cityA.csv,./stimuli/frankfurt.jpg,./stimuli/street_plate1.png,BÖGRE UTCA,stimuli/objects/050a.jpg,object,1,stimuli/objects/076a.jpg,stimuli/scenes/037a.jpg,stimuli/objects/076a.jpg,stimuli/objects/076b.jpg,stimuli/scenes/037b.jpg,dist1,target,lure,dist2,0,0,0,0,0,2,2,41,,,,,,,,,,,173.17610099999,174.1963600999734,174.1963600999734,174.1963600999734,174.1963600999734,None,174.1963600999734,,,,,,,,,,,,,,,,,,,,,,,,,,,,,,,,,,,,,,,,student1,2022-10-20_15h10.30.486,Hippopolis_Learning,2022.2.2,59.990197607384104,
Hippopolis,stimuli/subj_files/student1_cityA.csv,./stimuli/frankfurt.jpg,./stimuli/street_plate1.png,OROSZLÁN UTCA,stimuli/scenes/072a.jpg,scene,0,stimuli/scenes/072a.jpg,stimuli/scenes/072a.jpg,stimuli/scenes/072b.jpg,stimuli/scenes/027b.jpg,stimuli/scenes/027a.jpg,target,lure,dist2,dist1,0,0,0,0,0,3,3,66,,,,,,,,,,,177.19293279998237,178.20410819997778,178.20410819997778,178.20410819997778,178.20410819997778,None,178.20410819997778,,,,,,,,,,,,,,,,,,,,,,,,,,,,,,,,,,,,,,,,student1,2022-10-20_15h10.30.486,Hippopolis_Learning,2022.2.2,59.990197607384104,
Hippopolis,stimuli/subj_files/student1_cityA.csv,./stimuli/frankfurt.jpg,./stimuli/street_plate1.png,CUKOR UTCA,stimuli/objects/111a.jpg,object,0,stimuli/objects/111a.jpg,stimuli/objects/089b.jpg,stimuli/objects/111b.jpg,stimuli/objects/111a.jpg,stimuli/objects/089a.jpg,dist2,lure,target,dist1,0,0,0,0,0,4,4,30,,,,,,,,,,,181.20932059999905,182.23135819999152,182.23135819999152,182.23135819999152,182.23135819999152,None,182.23135819999152,,,,,,,,,,,,,,,,,,,,,,,,,,,,,,,,,,,,,,,,student1,2022-10-20_15h10.30.486,Hippopolis_Learning,2022.2.2,59.990197607384104,
Hippopolis,stimuli/subj_files/student1_cityA.csv,./stimuli/frankfurt.jpg,./stimuli/street_plate1.png,TALICSKA UTCA,stimuli/objects/014a.jpg,object,1,stimuli/objects/108a.jpg,stimuli/objects/109a.jpg,stimuli/objects/109b.jpg,stimuli/objects/108a.jpg,stimuli/objects/108b.jpg,dist1,dist2,target,lure,0,0,0,0,0,5,5,13,,,,,,,,,,,185.22580869999365,186.24317199998768,186.24317199998768,186.24317199998768,186.24317199998768,None,186.24317199998768,,,,,,,,,,,,,,,,,,,,,,,,,,,,,,,,,,,,,,,,student1,2022-10-20_15h10.30.486,Hippopolis_Learning,2022.2.2,59.990197607384104,
Hippopolis,stimuli/subj_files/student1_cityA.csv,./stimuli/frankfurt.jpg,./stimuli/street_plate1.png,PÁFRÁNY UTCA,stimuli/scenes/101a.jpg,scene,0,stimuli/scenes/101a.jpg,stimuli/scenes/101a.jpg,stimuli/scenes/101b.jpg,stimuli/objects/051a.jpg,stimuli/objects/051b.jpg,target,lure,dist1,dist2,0,0,0,0,0,6,6,0,,,,,,,,,,,189.24242479997338,190.25548849999905,190.25548849999905,190.25548849999905,190.25548849999905,None,190.25548849999905,,,,,,,,,,,,,,,,,,,,,,,,,,,,,,,,,,,,,,,,student1,2022-10-20_15h10.30.486,Hippopolis_Learning,2022.2.2,59.990197607384104,
Hippopolis,stimuli/subj_files/student1_cityA.csv,./stimuli/frankfurt.jpg,./stimuli/street_plate1.png,KECSKE UTCA,stimuli/scenes/085a.jpg,scene,2,stimuli/objects/022a.jpg,stimuli/objects/022b.jpg,stimuli/objects/022a.jpg,stimuli/scenes/053a.jpg,stimuli/scenes/053b.jpg,lure,target,dist1,dist2,0,0,0,0,0,7,7,6,,,,,,,,,,,193.25927859998774,194.27015069997287,194.27015069997287,194.27015069997287,194.27015069997287,None,194.27015069997287,,,,,,,,,,,,,,,,,,,,,,,,,,,,,,,,,,,,,,,,student1,2022-10-20_15h10.30.486,Hippopolis_Learning,2022.2.2,59.990197607384104,
Hippopolis,stimuli/subj_files/student1_cityA.csv,./stimuli/frankfurt.jpg,./stimuli/street_plate1.png,MARTINI UTCA,stimuli/objects/060a.jpg,object,1,stimuli/objects/011a.jpg,stimuli/objects/075b.jpg,stimuli/objects/075a.jpg,stimuli/objects/011b.jpg,stimuli/objects/011a.jpg,dist2,dist1,lure,target,0,0,0,0,0,8,8,60,,,,,,,,,,,197.27574989999994,198.29250109998975,198.29250109998975,198.29250109998975,198.29250109998975,None,198.29250109998975,,,,,,,,,,,,,,,,,,,,,,,,,,,,,,,,,,,,,,,,student1,2022-10-20_15h10.30.486,Hippopolis_Learning,2022.2.2,59.990197607384104,
Hippopolis,stimuli/subj_files/student1_cityA.csv,./stimuli/frankfurt.jpg,./stimuli/street_plate1.png,MOGYORÓ UTCA,stimuli/objects/106a.jpg,object,1,stimuli/objects/103a.jpg,stimuli/scenes/116a.jpg,stimuli/objects/103b.jpg,stimuli/objects/103a.jpg,stimuli/scenes/116b.jpg,dist1,lure,target,dist2,0,0,0,0,0,9,9,54,,,,,,,,,,,201.29249359999085,202.30850119999377,202.30850119999377,202.30850119999377,202.30850119999377,None,202.30850119999377,,,,,,,,,,,,,,,,,,,,,,,,,,,,,,,,,,,,,,,,student1,2022-10-20_15h10.30.486,Hippopolis_Learning,2022.2.2,59.990197607384104,
Hippopolis,stimuli/subj_files/student1_cityA.csv,./stimuli/frankfurt.jpg,./stimuli/street_plate1.png,KERÉK UTCA,stimuli/scenes/096a.jpg,scene,1,stimuli/scenes/041a.jpg,stimuli/scenes/117a.jpg,stimuli/scenes/041b.jpg,stimuli/scenes/041a.jpg,stimuli/scenes/117b.jpg,dist1,lure,target,dist2,0,0,0,0,0,10,10,20,,,,,,,,,,,205.30890689999796,206.3250409999746,206.3250409999746,206.3250409999746,206.3250409999746,None,206.3250409999746,,,,,,,,,,,,,,,,,,,,,,,,,,,,,,,,,,,,,,,,student1,2022-10-20_15h10.30.486,Hippopolis_Learning,2022.2.2,59.990197607384104,
Hippopolis,stimuli/subj_files/student1_cityA.csv,./stimuli/frankfurt.jpg,./stimuli/street_plate1.png,MOCSÁR UTCA,stimuli/objects/080a.jpg,object,0,stimuli/objects/080a.jpg,stimuli/objects/080b.jpg,stimuli/objects/080a.jpg,stimuli/scenes/043b.jpg,stimuli/scenes/043a.jpg,lure,target,dist2,dist1,0,0,0,0,0,11,11,17,,,,,,,,,,,209.3256189999811,210.34373379999306,210.34373379999306,210.34373379999306,210.34373379999306,None,210.34373379999306,,,,,,,,,,,,,,,,,,,,,,,,,,,,,,,,,,,,,,,,student1,2022-10-20_15h10.30.486,Hippopolis_Learning,2022.2.2,59.990197607384104,
Hippopolis,stimuli/subj_files/student1_cityA.csv,./stimuli/frankfurt.jpg,./stimuli/street_plate1.png,TOJÁS UTCA,stimuli/objects/021a.jpg,object,2,stimuli/scenes/034a.jpg,stimuli/scenes/034a.jpg,stimuli/objects/059a.jpg,stimuli/objects/059b.jpg,stimuli/scenes/034b.jpg,target,dist1,dist2,lure,0,0,0,0,0,12,12,37,,,,,,,,,,,213.3422092999972,214.3663693999988,214.3663693999988,214.3663693999988,214.3663693999988,None,214.3663693999988,,,,,,,,,,,,,,,,,,,,,,,,,,,,,,,,,,,,,,,,student1,2022-10-20_15h10.30.486,Hippopolis_Learning,2022.2.2,59.990197607384104,
Hippopolis,stimuli/subj_files/student1_cityA.csv,./stimuli/frankfurt.jpg,./stimuli/street_plate1.png,BONBON UTCA,stimuli/objects/095a.jpg,object,2,stimuli/scenes/007a.jpg,stimuli/objects/028b.jpg,stimuli/objects/028a.jpg,stimuli/scenes/007a.jpg,stimuli/scenes/007b.jpg,dist2,dist1,target,lure,0,0,0,0,0,13,13,72,,,,,,,,,,,217.35874919997877,218.3811907999916,218.3811907999916,218.3811907999916,218.3811907999916,None,218.3811907999916,,,,,,,,,,,,,,,,,,,,,,,,,,,,,,,,,,,,,,,,student1,2022-10-20_15h10.30.486,Hippopolis_Learning,2022.2.2,59.990197607384104,
Hippopolis,stimuli/subj_files/student1_cityA.csv,./stimuli/frankfurt.jpg,./stimuli/street_plate1.png,PULÓVER UTCA,stimuli/objects/114a.jpg,object,0,stimuli/objects/114a.jpg,stimuli/scenes/050b.jpg,stimuli/scenes/050a.jpg,stimuli/objects/114b.jpg,stimuli/objects/114a.jpg,dist2,dist1,lure,target,0,0,0,0,0,14,14,43,,,,,,,,,,,221.3754793999833,222.39481419997173,222.39481419997173,222.39481419997173,222.39481419997173,None,222.39481419997173,,,,,,,,,,,,,,,,,,,,,,,,,,,,,,,,,,,,,,,,student1,2022-10-20_15h10.30.486,Hippopolis_Learning,2022.2.2,59.990197607384104,
Hippopolis,stimuli/subj_files/student1_cityA.csv,./stimuli/frankfurt.jpg,./stimuli/street_plate1.png,LÉTRA UTCA,stimuli/objects/047a.jpg,object,1,stimuli/objects/015a.jpg,stimuli/objects/108b.jpg,stimuli/objects/015b.jpg,stimuli/objects/108a.jpg,stimuli/objects/015a.jpg,dist2,lure,dist1,target,0,0,0,0,0,15,15,33,,,,,,,,,,,225.39152529998682,226.4068142999895,226.4068142999895,226.4068142999895,226.4068142999895,None,226.4068142999895,,,,,,,,,,,,,,,,,,,,,,,,,,,,,,,,,,,,,,,,student1,2022-10-20_15h10.30.486,Hippopolis_Learning,2022.2.2,59.990197607384104,
Hippopolis,stimuli/subj_files/student1_cityA.csv,./stimuli/frankfurt.jpg,./stimuli/street_plate1.png,SIVATAG UTCA,stimuli/scenes/016a.jpg,scene,2,stimuli/objects/046a.jpg,stimuli/objects/046b.jpg,stimuli/objects/006a.jpg,stimuli/objects/006b.jpg,stimuli/objects/046a.jpg,lure,dist1,dist2,target,0,0,0,0,0,16,16,23,,,,,,,,,,,229.40854069998022,230.4241134999902,230.4241134999902,230.4241134999902,230.4241134999902,None,230.4241134999902,,,,,,,,,,,,,,,,,,,,,,,,,,,,,,,,,,,,,,,,student1,2022-10-20_15h10.30.486,Hippopolis_Learning,2022.2.2,59.990197607384104,
Hippopolis,stimuli/subj_files/student1_cityA.csv,./stimuli/frankfurt.jpg,./stimuli/street_plate1.png,HARMONIKA UTCA,stimuli/scenes/024a.jpg,scene,0,stimuli/scenes/024a.jpg,stimuli/scenes/101b.jpg,stimuli/scenes/024b.jpg,stimuli/scenes/101a.jpg,stimuli/scenes/024a.jpg,dist2,lure,dist1,target,0,0,0,0,0,17,17,25,,,,,,,,,,,233.42525519998162,234.43353999999817,234.43353999999817,234.43353999999817,234.43353999999817,None,234.43353999999817,,,,,,,,,,,,,,,,,,,,,,,,,,,,,,,,,,,,,,,,student1,2022-10-20_15h10.30.486,Hippopolis_Learning,2022.2.2,59.990197607384104,
Hippopolis,stimuli/subj_files/student1_cityA.csv,./stimuli/frankfurt.jpg,./stimuli/street_plate1.png,LIGET UTCA,stimuli/objects/038a.jpg,object,2,stimuli/scenes/109a.jpg,stimuli/scenes/109a.jpg,stimuli/objects/055a.jpg,stimuli/scenes/109b.jpg,stimuli/objects/055b.jpg,target,dist1,lure,dist2,0,0,0,0,0,18,18,62,,,,,,,,,,,237.44153799998458,238.44409809997887,238.44409809997887,238.44409809997887,238.44409809997887,None,238.44409809997887,,,,,,,,,,,,,,,,,,,,,,,,,,,,,,,,,,,,,,,,student1,2022-10-20_15h10.30.486,Hippopolis_Learning,2022.2.2,59.990197607384104,
Hippopolis,stimuli/subj_files/student1_cityA.csv,./stimuli/frankfurt.jpg,./stimuli/street_plate1.png,KÖNYVTÁR UTCA,stimuli/objects/113a.jpg,object,1,stimuli/objects/109a.jpg,stimuli/objects/109a.jpg,stimuli/objects/109b.jpg,stimuli/scenes/067a.jpg,stimuli/scenes/067b.jpg,target,lure,dist1,dist2,0,0,0,0,0,19,19,42,,,,,,,,,,,241.45832289999817,242.47797889998765,242.47797889998765,242.47797889998765,242.47797889998765,None,242.47797889998765,,,,,,,,,,,,,,,,,,,,,,,,,,,,,,,,,,,,,,,,student1,2022-10-20_15h10.30.486,Hippopolis_Learning,2022.2.2,59.990197607384104,
Hippopolis,stimuli/subj_files/student1_cityA.csv,./stimuli/frankfurt.jpg,./stimuli/street_plate1.png,KÖTÉNY UTCA,stimuli/scenes/031a.jpg,scene,1,stimuli/scenes/064a.jpg,stimuli/objects/103a.jpg,stimuli/objects/103b.jpg,stimuli/scenes/064b.jpg,stimuli/scenes/064a.jpg,dist1,dist2,lure,target,0,0,0,0,0,20,20,22,,,,,,,,,,,245.4749482999905,246.48791939998046,246.48791939998046,246.48791939998046,246.48791939998046,None,246.48791939998046,,,,,,,,,,,,,,,,,,,,,,,,,,,,,,,,,,,,,,,,student1,2022-10-20_15h10.30.486,Hippopolis_Learning,2022.2.2,59.990197607384104,
Hippopolis,stimuli/subj_files/student1_cityA.csv,./stimuli/frankfurt.jpg,./stimuli/street_plate1.png,PAPAGÁJ UTCA,stimuli/objects/093a.jpg,object,2,stimuli/scenes/097a.jpg,stimuli/scenes/097a.jpg,stimuli/scenes/109b.jpg,stimuli/scenes/109a.jpg,stimuli/scenes/097b.jpg,target,dist2,dist1,lure,0,0,0,0,0,21,21,55,,,,,,,,,,,249.49164639998344,250.50287819997175,250.50287819997175,250.50287819997175,250.50287819997175,None,250.50287819997175,,,,,,,,,,,,,,,,,,,,,,,,,,,,,,,,,,,,,,,,student1,2022-10-20_15h10.30.486,Hippopolis_Learning,2022.2.2,59.990197607384104,
Hippopolis,stimuli/subj_files/student1_cityA.csv,./stimuli/frankfurt.jpg,./stimuli/street_plate1.png,AKÁC UTCA,stimuli/scenes/081a.jpg,scene,2,stimuli/objects/055a.jpg,stimuli/objects/055b.jpg,stimuli/objects/107b.jpg,stimuli/objects/107a.jpg,stimuli/objects/055a.jpg,lure,dist2,dist1,target,0,0,0,0,0,22,22,74,,,,,,,,,,,253.50807169999462,254.52348909998545,254.52348909998545,254.52348909998545,254.52348909998545,None,254.52348909998545,,,,,,,,,,,,,,,,,,,,,,,,,,,,,,,,,,,,,,,,student1,2022-10-20_15h10.30.486,Hippopolis_Learning,2022.2.2,59.990197607384104,
Hippopolis,stimuli/subj_files/student1_cityA.csv,./stimuli/frankfurt.jpg,./stimuli/street_plate1.png,KAKAS UTCA,stimuli/objects/002a.jpg,object,2,stimuli/scenes/074a.jpg,stimuli/scenes/074b.jpg,stimuli/scenes/074a.jpg,stimuli/scenes/070a.jpg,stimuli/scenes/070b.jpg,lure,target,dist1,dist2,0,0,0,0,0,23,23,24,,,,,,,,,,,257.52491679997183,258.54346769998665,258.54346769998665,258.54346769998665,258.54346769998665,None,258.54346769998665,,,,,,,,,,,,,,,,,,,,,,,,,,,,,,,,,,,,,,,,student1,2022-10-20_15h10.30.486,Hippopolis_Learning,2022.2.2,59.990197607384104,
Hippopolis,stimuli/subj_files/student1_cityA.csv,./stimuli/frankfurt.jpg,./stimuli/street_plate1.png,PETÁRDA UTCA,stimuli/objects/009a.jpg,object,0,stimuli/objects/009a.jpg,stimuli/objects/009a.jpg,stimuli/scenes/051a.jpg,stimuli/objects/009b.jpg,stimuli/scenes/051b.jpg,target,dist1,lure,dist2,0,0,0,0,0,24,24,64,,,,,,,,,,,261.5411483999924,262.5635469999979,262.5635469999979,262.5635469999979,262.5635469999979,None,262.5635469999979,,,,,,,,,,,,,,,,,,,,,,,,,,,,,,,,,,,,,,,,student1,2022-10-20_15h10.30.486,Hippopolis_Learning,2022.2.2,59.990197607384104,
Hippopolis,stimuli/subj_files/student1_cityA.csv,./stimuli/frankfurt.jpg,./stimuli/street_plate1.png,KÖMÉNYMAG UTCA,stimuli/objects/068a.jpg,object,1,stimuli/objects/045a.jpg,stimuli/objects/045a.jpg,stimuli/objects/045b.jpg,stimuli/objects/071a.jpg,stimuli/objects/071b.jpg,target,lure,dist1,dist2,0,0,0,0,0,25,25,18,,,,,,,,,,,265.5575171999808,266.57400309998775,266.57400309998775,266.57400309998775,266.57400309998775,None,266.57400309998775,,,,,,,,,,,,,,,,,,,,,,,,,,,,,,,,,,,,,,,,student1,2022-10-20_15h10.30.486,Hippopolis_Learning,2022.2.2,59.990197607384104,
Hippopolis,stimuli/subj_files/student1_cityA.csv,./stimuli/frankfurt.jpg,./stimuli/street_plate1.png,OLDAL UTCA,stimuli/scenes/093a.jpg,scene,2,stimuli/objects/107a.jpg,stimuli/objects/107b.jpg,stimuli/objects/022a.jpg,stimuli/objects/107a.jpg,stimuli/objects/022b.jpg,lure,dist1,target,dist2,0,0,0,0,0,26,26,11,,,,,,,,,,,269.5745284999721,270.5856350999966,270.5856350999966,270.5856350999966,270.5856350999966,None,270.5856350999966,,,,,,,,,,,,,,,,,,,,,,,,,,,,,,,,,,,,,,,,student1,2022-10-20_15h10.30.486,Hippopolis_Learning,2022.2.2,59.990197607384104,
Hippopolis,stimuli/subj_files/student1_cityA.csv,./stimuli/frankfurt.jpg,./stimuli/street_plate1.png,TERASZ UTCA,stimuli/objects/063a.jpg,object,2,stimuli/scenes/104a.jpg,stimuli/scenes/104a.jpg,stimuli/scenes/056a.jpg,stimuli/scenes/104b.jpg,stimuli/scenes/056b.jpg,target,dist1,lure,dist2,0,0,0,0,0,27,27,48,,,,,,,,,,,273.5911145999853,274.60249529997236,274.60249529997236,274.60249529997236,274.60249529997236,None,274.60249529997236,,,,,,,,,,,,,,,,,,,,,,,,,,,,,,,,,,,,,,,,student1,2022-10-20_15h10.30.486,Hippopolis_Learning,2022.2.2,59.990197607384104,
Hippopolis,stimuli/subj_files/student1_cityA.csv,./stimuli/frankfurt.jpg,./stimuli/street_plate1.png,CSAVAR UTCA,stimuli/objects/078a.jpg,object,0,stimuli/objects/078a.jpg,stimuli/objects/078b.jpg,stimuli/objects/024b.jpg,stimuli/objects/078a.jpg,stimuli/objects/024a.jpg,lure,dist2,target,dist1,0,0,0,0,0,28,28,10,,,,,,,,,,,277.6076026999799,278.62545469999895,278.62545469999895,278.62545469999895,278.62545469999895,None,278.62545469999895,,,,,,,,,,,,,,,,,,,,,,,,,,,,,,,,,,,,,,,,student1,2022-10-20_15h10.30.486,Hippopolis_Learning,2022.2.2,59.990197607384104,
Hippopolis,stimuli/subj_files/student1_cityA.csv,./stimuli/frankfurt.jpg,./stimuli/street_plate1.png,VÖDÖR UTCA,stimuli/scenes/055a.jpg,scene,1,stimuli/scenes/088a.jpg,stimuli/scenes/088b.jpg,stimuli/scenes/088a.jpg,stimuli/scenes/087b.jpg,stimuli/scenes/087a.jpg,lure,target,dist2,dist1,0,0,0,0,0,29,29,56,,,,,,,,,,,281.6244622999802,282.6374511999893,282.6374511999893,282.6374511999893,282.6374511999893,None,282.6374511999893,,,,,,,,,,,,,,,,,,,,,,,,,,,,,,,,,,,,,,,,student1,2022-10-20_15h10.30.486,Hippopolis_Learning,2022.2.2,59.990197607384104,
Hippopolis,stimuli/subj_files/student1_cityA.csv,./stimuli/frankfurt.jpg,./stimuli/street_plate1.png,HORDÓ UTCA,stimuli/scenes/095a.jpg,scene,0,stimuli/scenes/095a.jpg,stimuli/scenes/095a.jpg,stimuli/scenes/046a.jpg,stimuli/scenes/095b.jpg,stimuli/scenes/046b.jpg,target,dist1,lure,dist2,0,0,0,0,0,30,30,27,,,,,,,,,,,285.6409418999974,286.6559761999815,286.6559761999815,286.6559761999815,286.6559761999815,None,286.6559761999815,,,,,,,,,,,,,,,,,,,,,,,,,,,,,,,,,,,,,,,,student1,2022-10-20_15h10.30.486,Hippopolis_Learning,2022.2.2,59.990197607384104,
Hippopolis,stimuli/subj_files/student1_cityA.csv,./stimuli/frankfurt.jpg,./stimuli/street_plate1.png,PADLÓ UTCA,stimuli/objects/100a.jpg,object,0,stimuli/objects/100a.jpg,stimuli/scenes/058a.jpg,stimuli/scenes/058b.jpg,stimuli/objects/100a.jpg,stimuli/objects/100b.jpg,dist1,dist2,target,lure,0,0,0,0,0,31,31,59,,,,,,,,,,,289.65745089997654,290.6707300999842,290.6707300999842,290.6707300999842,290.6707300999842,None,290.6707300999842,,,,,,,,,,,,,,,,,,,,,,,,,,,,,,,,,,,,,,,,student1,2022-10-20_15h10.30.486,Hippopolis_Learning,2022.2.2,59.990197607384104,
Hippopolis,stimuli/subj_files/student1_cityA.csv,./stimuli/frankfurt.jpg,./stimuli/street_plate1.png,PÉKSÉG UTCA,stimuli/scenes/073a.jpg,scene,2,stimuli/objects/059a.jpg,stimuli/objects/059a.jpg,stimuli/objects/046b.jpg,stimuli/objects/059b.jpg,stimuli/objects/046a.jpg,target,dist2,lure,dist1,0,0,0,0,0,32,32,61,,,,,,,,,,,293.6742205999908,294.6884437999979,294.6884437999979,294.6884437999979,294.6884437999979,None,294.6884437999979,,,,,,,,,,,,,,,,,,,,,,,,,,,,,,,,,,,,,,,,student1,2022-10-20_15h10.30.486,Hippopolis_Learning,2022.2.2,59.990197607384104,
Hippopolis,stimuli/subj_files/student1_cityA.csv,./stimuli/frankfurt.jpg,./stimuli/street_plate1.png,RÁDIÓ UTCA,stimuli/scenes/068a.jpg,scene,1,stimuli/scenes/067a.jpg,stimuli/scenes/018b.jpg,stimuli/scenes/067a.jpg,stimuli/scenes/067b.jpg,stimuli/scenes/018a.jpg,dist2,target,lure,dist1,0,0,0,0,0,33,33,44,,,,,,,,,,,297.69049589999486,298.7048992999771,298.7048992999771,298.7048992999771,298.7048992999771,None,298.7048992999771,,,,,,,,,,,,,,,,,,,,,,,,,,,,,,,,,,,,,,,,student1,2022-10-20_15h10.30.486,Hippopolis_Learning,2022.2.2,59.990197607384104,
Hippopolis,stimuli/subj_files/student1_cityA.csv,./stimuli/frankfurt.jpg,./stimuli/street_plate1.png,MUNKA UTCA,stimuli/scenes/039a.jpg,scene,2,stimuli/objects/067a.jpg,stimuli/scenes/097a.jpg,stimuli/objects/067b.jpg,stimuli/objects/067a.jpg,stimuli/scenes/097b.jpg,dist1,lure,target,dist2,0,0,0,0,0,34,34,4,,,,,,,,,,,301.70746549998876,302.71639339998364,302.71639339998364,302.71639339998364,302.71639339998364,None,302.71639339998364,,,,,,,,,,,,,,,,,,,,,,,,,,,,,,,,,,,,,,,,student1,2022-10-20_15h10.30.486,Hippopolis_Learning,2022.2.2,59.990197607384104,
Hippopolis,stimuli/subj_files/student1_cityA.csv,./stimuli/frankfurt.jpg,./stimuli/street_plate1.png,PIZSAMA UTCA,stimuli/scenes/060a.jpg,scene,2,stimuli/objects/006a.jpg,stimuli/scenes/007b.jpg,stimuli/scenes/007a.jpg,stimuli/objects/006b.jpg,stimuli/objects/006a.jpg,dist2,dist1,lure,target,0,0,0,0,0,35,35,79,,,,,,,,,,,305.7238867999986,306.7394317999715,306.7394317999715,306.7394317999715,306.7394317999715,None,306.7394317999715,,,,,,,,,,,,,,,,,,,,,,,,,,,,,,,,,,,,,,,,student1,2022-10-20_15h10.30.486,Hippopolis_Learning,2022.2.2,59.990197607384104,
Hippopolis,stimuli/subj_files/student1_cityA.csv,./stimuli/frankfurt.jpg,./stimuli/street_plate1.png,SZIKLA UTCA,stimuli/scenes/111a.jpg,scene,2,stimuli/objects/073a.jpg,stimuli/objects/120b.jpg,stimuli/objects/120a.jpg,stimuli/objects/073a.jpg,stimuli/objects/073b.jpg,dist2,dist1,target,lure,0,0,0,0,0,36,36,1,,,,,,,,,,,309.7405101999757,310.7604121999757,310.7604121999757,310.7604121999757,310.7604121999757,None,310.7604121999757,,,,,,,,,,,,,,,,,,,,,,,,,,,,,,,,,,,,,,,,student1,2022-10-20_15h10.30.486,Hippopolis_Learning,2022.2.2,59.990197607384104,
Hippopolis,stimuli/subj_files/student1_cityA.csv,./stimuli/frankfurt.jpg,./stimuli/street_plate1.png,FIÓK UTCA,stimuli/scenes/002a.jpg,scene,1,stimuli/scenes/014a.jpg,stimuli/scenes/014a.jpg,stimuli/objects/004a.jpg,stimuli/objects/004b.jpg,stimuli/scenes/014b.jpg,target,dist1,dist2,lure,0,0,0,0,0,37,37,73,,,,,,,,,,,313.7570266999828,314.77255689998856,314.77255689998856,314.77255689998856,314.77255689998856,None,314.77255689998856,,,,,,,,,,,,,,,,,,,,,,,,,,,,,,,,,,,,,,,,student1,2022-10-20_15h10.30.486,Hippopolis_Learning,2022.2.2,59.990197607384104,
Hippopolis,stimuli/subj_files/student1_cityA.csv,./stimuli/frankfurt.jpg,./stimuli/street_plate1.png,FOGAS UTCA,stimuli/scenes/025a.jpg,scene,1,stimuli/scenes/018a.jpg,stimuli/scenes/018b.jpg,stimuli/scenes/064a.jpg,stimuli/scenes/018a.jpg,stimuli/scenes/064b.jpg,lure,dist1,target,dist2,0,0,0,0,0,38,38,38,,,,,,,,,,,317.77355639997404,318.7857370999991,318.7857370999991,318.7857370999991,318.7857370999991,None,318.7857370999991,,,,,,,,,,,,,,,,,,,,,,,,,,,,,,,,,,,,,,,,student1,2022-10-20_15h10.30.486,Hippopolis_Learning,2022.2.2,59.990197607384104,
Hippopolis,stimuli/subj_files/student1_cityA.csv,./stimuli/frankfurt.jpg,./stimuli/street_plate1.png,VASALÓ UTCA,stimuli/objects/025a.jpg,object,2,stimuli/scenes/056a.jpg,stimuli/scenes/044a.jpg,stimuli/scenes/056b.jpg,stimuli/scenes/056a.jpg,stimuli/scenes/044b.jpg,dist1,lure,target,dist2,0,0,0,0,0,39,39,70,,,,,,,,,,,321.7903081999975,322.8081386999984,322.8081386999984,322.8081386999984,322.8081386999984,None,322.8081386999984,,,,,,,,,,,,,,,,,,,,,,,,,,,,,,,,,,,,,,,,student1,2022-10-20_15h10.30.486,Hippopolis_Learning,2022.2.2,59.990197607384104,
Hippopolis,stimuli/subj_files/student1_cityA.csv,./stimuli/frankfurt.jpg,./stimuli/street_plate1.png,CITROM UTCA,stimuli/scenes/036a.jpg,scene,2,stimuli/objects/043a.jpg,stimuli/objects/043b.jpg,stimuli/objects/067a.jpg,stimuli/objects/043a.jpg,stimuli/objects/067b.jpg,lure,dist1,target,dist2,0,0,0,0,0,40,40,26,,,,,,,,,,,325.8068917999917,326.8215044999961,326.8215044999961,326.8215044999961,326.8215044999961,None,326.8215044999961,,,,,,,,,,,,,,,,,,,,,,,,,,,,,,,,,,,,,,,,student1,2022-10-20_15h10.30.486,Hippopolis_Learning,2022.2.2,59.990197607384104,
Hippopolis,stimuli/subj_files/student1_cityA.csv,./stimuli/frankfurt.jpg,./stimuli/street_plate1.png,LAKAT UTCA,stimuli/objects/066a.jpg,object,2,stimuli/scenes/084a.jpg,stimuli/scenes/084b.jpg,stimuli/scenes/034a.jpg,stimuli/scenes/084a.jpg,stimuli/scenes/034b.jpg,lure,dist1,target,dist2,0,0,0,0,0,41,41,58,,,,,,,,,,,329.8235089999798,330.8428769999882,330.8428769999882,330.8428769999882,330.8428769999882,None,330.8428769999882,,,,,,,,,,,,,,,,,,,,,,,,,,,,,,,,,,,,,,,,student1,2022-10-20_15h10.30.486,Hippopolis_Learning,2022.2.2,59.990197607384104,
Hippopolis,stimuli/subj_files/student1_cityA.csv,./stimuli/frankfurt.jpg,./stimuli/street_plate1.png,TOLLTARTÓ UTCA,stimuli/objects/032a.jpg,object,2,stimuli/scenes/119a.jpg,stimuli/scenes/119a.jpg,stimuli/scenes/104b.jpg,stimuli/scenes/104a.jpg,stimuli/scenes/119b.jpg,target,dist2,dist1,lure,0,0,0,0,0,42,42,67,,,,,,,,,,,333.8402098999941,334.8509293999814,334.8509293999814,334.8509293999814,334.8509293999814,None,334.8509293999814,,,,,,,,,,,,,,,,,,,,,,,,,,,,,,,,,,,,,,,,student1,2022-10-20_15h10.30.486,Hippopolis_Learning,2022.2.2,59.990197607384104,
Hippopolis,stimuli/subj_files/student1_cityA.csv,./stimuli/frankfurt.jpg,./stimuli/street_plate1.png,HEGEDŰ UTCA,stimuli/scenes/113a.jpg,scene,2,stimuli/objects/036a.jpg,stimuli/objects/036b.jpg,stimuli/scenes/059b.jpg,stimuli/scenes/059a.jpg,stimuli/objects/036a.jpg,lure,dist2,dist1,target,0,0,0,0,0,43,43,69,,,,,,,,,,,337.85656609997386,338.8890244999784,338.8890244999784,338.8890244999784,338.8890244999784,None,338.8890244999784,,,,,,,,,,,,,,,,,,,,,,,,,,,,,,,,,,,,,,,,student1,2022-10-20_15h10.30.486,Hippopolis_Learning,2022.2.2,59.990197607384104,
Hippopolis,stimuli/subj_files/student1_cityA.csv,./stimuli/frankfurt.jpg,./stimuli/street_plate1.png,ÁLOM UTCA,stimuli/objects/070a.jpg,object,0,stimuli/objects/070a.jpg,stimuli/objects/070b.jpg,stimuli/objects/114b.jpg,stimuli/objects/114a.jpg,stimuli/objects/070a.jpg,lure,dist2,dist1,target,0,0,0,0,0,44,44,50,,,,,,,,,,,341.8731503999734,342.8882676999783,342.8882676999783,342.8882676999783,342.8882676999783,space,342.8882676999783,345.88978239998687,345.88978239998687,2.4780691000341903,,,,,,,,,,,,,,,,,,,,,,,,,,,,,,,,,,,,,student1,2022-10-20_15h10.30.486,Hippopolis_Learning,2022.2.2,59.990197607384104,
Hippopolis,stimuli/subj_files/student1_cityA.csv,./stimuli/frankfurt.jpg,./stimuli/street_plate1.png,TOBOZ UTCA,stimuli/objects/001a.jpg,object,2,stimuli/scenes/059a.jpg,stimuli/scenes/059a.jpg,stimuli/objects/085a.jpg,stimuli/objects/085b.jpg,stimuli/scenes/059b.jpg,target,dist1,dist2,lure,0,0,0,0,0,45,45,40,,,,,,,,,,,348.3897026999912,349.3965616999776,349.3965616999776,349.3965616999776,349.3965616999776,None,349.3965616999776,,,,,,,,,,,,,,,,,,,,,,,,,,,,,,,,,,,,,,,,student1,2022-10-20_15h10.30.486,Hippopolis_Learning,2022.2.2,59.990197607384104,
Hippopolis,stimuli/subj_files/student1_cityA.csv,./stimuli/frankfurt.jpg,./stimuli/street_plate1.png,ÜVEG UTCA,stimuli/scenes/061a.jpg,scene,2,stimuli/objects/085a.jpg,stimuli/objects/085b.jpg,stimuli/scenes/084a.jpg,stimuli/objects/085a.jpg,stimuli/scenes/084b.jpg,lure,dist1,target,dist2,0,0,0,0,0,46,46,19,,,,,,,,,,,352.40628379999544,353.42244639998535,353.42244639998535,353.42244639998535,353.42244639998535,None,353.42244639998535,,,,,,,,,,,,,,,,,,,,,,,,,,,,,,,,,,,,,,,,student1,2022-10-20_15h10.30.486,Hippopolis_Learning,2022.2.2,59.990197607384104,
Hippopolis,stimuli/subj_files/student1_cityA.csv,./stimuli/frankfurt.jpg,./stimuli/street_plate1.png,ZSEMLE UTCA,stimuli/objects/115a.jpg,object,1,stimuli/objects/053a.jpg,stimuli/objects/007a.jpg,stimuli/objects/053a.jpg,stimuli/objects/007b.jpg,stimuli/objects/053b.jpg,dist1,target,dist2,lure,0,0,0,0,0,47,47,47,,,,,,,,,,,356.4230140999716,357.437780999986,357.437780999986,357.437780999986,357.437780999986,None,357.437780999986,,,,,,,,,,,,,,,,,,,,,,,,,,,,,,,,,,,,,,,,student1,2022-10-20_15h10.30.486,Hippopolis_Learning,2022.2.2,59.990197607384104,
Hippopolis,stimuli/subj_files/student1_cityA.csv,./stimuli/frankfurt.jpg,./stimuli/street_plate1.png,KÖTÉL UTCA,stimuli/objects/051a.jpg,object,0,stimuli/objects/051a.jpg,stimuli/scenes/024b.jpg,stimuli/objects/051b.jpg,stimuli/scenes/024a.jpg,stimuli/objects/051a.jpg,dist2,lure,dist1,target,0,0,0,0,0,48,48,7,,,,,,,,,,,360.43957479999517,361.4564312000002,361.4564312000002,361.4564312000002,361.4564312000002,None,361.4564312000002,,,,,,,,,,,,,,,,,,,,,,,,,,,,,,,,,,,,,,,,student1,2022-10-20_15h10.30.486,Hippopolis_Learning,2022.2.2,59.990197607384104,
Hippopolis,stimuli/subj_files/student1_cityA.csv,./stimuli/frankfurt.jpg,./stimuli/street_plate1.png,KOCKA UTCA,stimuli/objects/062a.jpg,object,0,stimuli/objects/062a.jpg,stimuli/scenes/095b.jpg,stimuli/objects/062a.jpg,stimuli/objects/062b.jpg,stimuli/scenes/095a.jpg,dist2,target,lure,dist1,0,0,0,0,0,49,49,35,,,,,,,,,,,364.45621869998286,365.474498399999,365.474498399999,365.474498399999,365.474498399999,None,365.474498399999,,,,,,,,,,,,,,,,,,,,,,,,,,,,,,,,,,,,,,,,student1,2022-10-20_15h10.30.486,Hippopolis_Learning,2022.2.2,59.990197607384104,
Hippopolis,stimuli/subj_files/student1_cityA.csv,./stimuli/frankfurt.jpg,./stimuli/street_plate1.png,MÁLNA UTCA,stimuli/objects/069a.jpg,object,2,stimuli/scenes/053a.jpg,stimuli/objects/073a.jpg,stimuli/objects/073b.jpg,stimuli/scenes/053b.jpg,stimuli/scenes/053a.jpg,dist1,dist2,lure,target,0,0,0,0,0,50,50,14,,,,,,,,,,,368.4728137999773,369.48618959999294,369.48618959999294,369.48618959999294,369.48618959999294,None,369.48618959999294,,,,,,,,,,,,,,,,,,,,,,,,,,,,,,,,,,,,,,,,student1,2022-10-20_15h10.30.486,Hippopolis_Learning,2022.2.2,59.990197607384104,
Hippopolis,stimuli/subj_files/student1_cityA.csv,./stimuli/frankfurt.jpg,./stimuli/street_plate1.png,KORONG UTCA,stimuli/scenes/065a.jpg,scene,1,stimuli/scenes/004a.jpg,stimuli/scenes/004a.jpg,stimuli/scenes/011b.jpg,stimuli/scenes/011a.jpg,stimuli/scenes/004b.jpg,target,dist2,dist1,lure,0,0,0,0,0,51,51,53,,,,,,,,,,,372.4893241999962,373.50018199998885,373.50018199998885,373.50018199998885,373.50018199998885,None,373.50018199998885,,,,,,,,,,,,,,,,,,,,,,,,,,,,,,,,,,,,,,,,student1,2022-10-20_15h10.30.486,Hippopolis_Learning,2022.2.2,59.990197607384104,
Hippopolis,stimuli/subj_files/student1_cityA.csv,./stimuli/frankfurt.jpg,./stimuli/street_plate1.png,BAGOLY UTCA,stimuli/scenes/029a.jpg,scene,2,stimuli/objects/028a.jpg,stimuli/objects/028b.jpg,stimuli/objects/028a.jpg,stimuli/scenes/028a.jpg,stimuli/scenes/028b.jpg,lure,target,dist1,dist2,0,0,0,0,0,52,52,21,,,,,,,,,,,376.50591329997405,377.5174041999853,377.5174041999853,377.5174041999853,377.5174041999853,None,377.5174041999853,,,,,,,,,,,,,,,,,,,,,,,,,,,,,,,,,,,,,,,,student1,2022-10-20_15h10.30.486,Hippopolis_Learning,2022.2.2,59.990197607384104,
Hippopolis,stimuli/subj_files/student1_cityA.csv,./stimuli/frankfurt.jpg,./stimuli/street_plate1.png,FÉNYKÉP UTCA,stimuli/scenes/010a.jpg,scene,1,stimuli/scenes/078a.jpg,stimuli/scenes/088a.jpg,stimuli/scenes/078a.jpg,stimuli/scenes/088b.jpg,stimuli/scenes/078b.jpg,dist1,target,dist2,lure,0,0,0,0,0,53,53,32,,,,,,,,,,,380.52257969998755,381.5357398999913,381.5357398999913,381.5357398999913,381.5357398999913,None,381.5357398999913,,,,,,,,,,,,,,,,,,,,,,,,,,,,,,,,,,,,,,,,student1,2022-10-20_15h10.30.486,Hippopolis_Learning,2022.2.2,59.990197607384104,
Hippopolis,stimuli/subj_files/student1_cityA.csv,./stimuli/frankfurt.jpg,./stimuli/street_plate1.png,TELEP UTCA,stimuli/scenes/048a.jpg,scene,2,stimuli/objects/120a.jpg,stimuli/objects/120a.jpg,stimuli/objects/120b.jpg,stimuli/scenes/119b.jpg,stimuli/scenes/119a.jpg,target,lure,dist2,dist1,0,0,0,0,0,54,54,75,,,,,,,,,,,384.53902409999864,385.5527029999939,385.5527029999939,385.5527029999939,385.5527029999939,None,385.5527029999939,,,,,,,,,,,,,,,,,,,,,,,,,,,,,,,,,,,,,,,,student1,2022-10-20_15h10.30.486,Hippopolis_Learning,2022.2.2,59.990197607384104,
Hippopolis,stimuli/subj_files/student1_cityA.csv,./stimuli/frankfurt.jpg,./stimuli/street_plate1.png,ÁRNYÉK UTCA,stimuli/objects/020a.jpg,object,1,stimuli/objects/027a.jpg,stimuli/scenes/004a.jpg,stimuli/objects/027b.jpg,stimuli/objects/027a.jpg,stimuli/scenes/004b.jpg,dist1,lure,target,dist2,0,0,0,0,0,55,55,52,,,,,,,,,,,388.5556408999837,389.5748831999954,389.5748831999954,389.5748831999954,389.5748831999954,None,389.5748831999954,,,,,,,,,,,,,,,,,,,,,,,,,,,,,,,,,,,,,,,,student1,2022-10-20_15h10.30.486,Hippopolis_Learning,2022.2.2,59.990197607384104,
Hippopolis,stimuli/subj_files/student1_cityA.csv,./stimuli/frankfurt.jpg,./stimuli/street_plate1.png,MOTOR UTCA,stimuli/objects/097a.jpg,object,1,stimuli/objects/071a.jpg,stimuli/objects/015b.jpg,stimuli/objects/071b.jpg,stimuli/objects/071a.jpg,stimuli/objects/015a.jpg,dist2,lure,target,dist1,0,0,0,0,0,56,56,36,,,,,,,,,,,392.57241579997935,393.59153700000024,393.59153700000024,393.59153700000024,393.59153700000024,None,393.59153700000024,,,,,,,,,,,,,,,,,,,,,,,,,,,,,,,,,,,,,,,,student1,2022-10-20_15h10.30.486,Hippopolis_Learning,2022.2.2,59.990197607384104,
Hippopolis,stimuli/subj_files/student1_cityA.csv,./stimuli/frankfurt.jpg,./stimuli/street_plate1.png,RÓZSA UTCA,stimuli/objects/091a.jpg,object,0,stimuli/objects/091a.jpg,stimuli/objects/091b.jpg,stimuli/objects/078b.jpg,stimuli/objects/078a.jpg,stimuli/objects/091a.jpg,lure,dist2,dist1,target,0,0,0,0,0,57,57,45,,,,,,,,,,,396.5888869999908,397.593641799991,397.593641799991,397.593641799991,397.593641799991,None,397.593641799991,,,,,,,,,,,,,,,,,,,,,,,,,,,,,,,,,,,,,,,,student1,2022-10-20_15h10.30.486,Hippopolis_Learning,2022.2.2,59.990197607384104,
Hippopolis,stimuli/subj_files/student1_cityA.csv,./stimuli/frankfurt.jpg,./stimuli/street_plate1.png,LÁNDZSA UTCA,stimuli/scenes/090a.jpg,scene,0,stimuli/scenes/090a.jpg,stimuli/scenes/090a.jpg,stimuli/objects/091b.jpg,stimuli/scenes/090b.jpg,stimuli/objects/091a.jpg,target,dist2,lure,dist1,0,0,0,0,0,58,58,39,,,,,,,,,,,400.6054528999957,401.6209074999788,401.6209074999788,401.6209074999788,401.6209074999788,None,401.6209074999788,,,,,,,,,,,,,,,,,,,,,,,,,,,,,,,,,,,,,,,,student1,2022-10-20_15h10.30.486,Hippopolis_Learning,2022.2.2,59.990197607384104,
Hippopolis,stimuli/subj_files/student1_cityA.csv,./stimuli/frankfurt.jpg,./stimuli/street_plate1.png,FÓKA UTCA,stimuli/scenes/058a.jpg,scene,0,stimuli/scenes/058a.jpg,stimuli/scenes/058a.jpg,stimuli/scenes/058b.jpg,stimuli/objects/111b.jpg,stimuli/objects/111a.jpg,target,lure,dist2,dist1,0,0,0,0,0,59,59,51,,,,,,,,,,,404.62209879999864,405.6362767999817,405.6362767999817,405.6362767999817,405.6362767999817,None,405.6362767999817,,,,,,,,,,,,,,,,,,,,,,,,,,,,,,,,,,,,,,,,student1,2022-10-20_15h10.30.486,Hippopolis_Learning,2022.2.2,59.990197607384104,
Hippopolis,stimuli/subj_files/student1_cityA.csv,./stimuli/frankfurt.jpg,./stimuli/street_plate1.png,NARANCS UTCA,stimuli/objects/017a.jpg,object,1,stimuli/objects/075a.jpg,stimuli/objects/075a.jpg,stimuli/scenes/041b.jpg,stimuli/scenes/041a.jpg,stimuli/objects/075b.jpg,target,dist2,dist1,lure,0,0,0,0,0,60,60,76,,,,,,,,,,,408.63897879997967,409.65869919999386,409.65869919999386,409.65869919999386,409.65869919999386,None,409.65869919999386,,,,,,,,,,,,,,,,,,,,,,,,,,,,,,,,,,,,,,,,student1,2022-10-20_15h10.30.486,Hippopolis_Learning,2022.2.2,59.990197607384104,
Hippopolis,stimuli/subj_files/student1_cityA.csv,./stimuli/frankfurt.jpg,./stimuli/street_plate1.png,SZOMSZÉD UTCA,stimuli/objects/026a.jpg,object,1,stimuli/objects/004a.jpg,stimuli/objects/027b.jpg,stimuli/objects/004b.jpg,stimuli/objects/004a.jpg,stimuli/objects/027a.jpg,dist2,lure,target,dist1,0,0,0,0,0,61,61,65,,,,,,,,,,,412.6552411999728,413.6726082999958,413.6726082999958,413.6726082999958,413.6726082999958,None,413.6726082999958,,,,,,,,,,,,,,,,,,,,,,,,,,,,,,,,,,,,,,,,student1,2022-10-20_15h10.30.486,Hippopolis_Learning,2022.2.2,59.990197607384104,
Hippopolis,stimuli/subj_files/student1_cityA.csv,./stimuli/frankfurt.jpg,./stimuli/street_plate1.png,EGÉR UTCA,stimuli/scenes/071a.jpg,scene,1,stimuli/scenes/116a.jpg,stimuli/scenes/116b.jpg,stimuli/scenes/116a.jpg,stimuli/scenes/009b.jpg,stimuli/scenes/009a.jpg,lure,target,dist2,dist1,0,0,0,0,0,62,62,29,,,,,,,,,,,416.6718195999856,417.68291889998363,417.68291889998363,417.68291889998363,417.68291889998363,None,417.68291889998363,,,,,,,,,,,,,,,,,,,,,,,,,,,,,,,,,,,,,,,,student1,2022-10-20_15h10.30.486,Hippopolis_Learning,2022.2.2,59.990197607384104,
Hippopolis,stimuli/subj_files/student1_cityA.csv,./stimuli/frankfurt.jpg,./stimuli/street_plate1.png,KERET UTCA,stimuli/scenes/027a.jpg,scene,0,stimuli/scenes/027a.jpg,stimuli/objects/100a.jpg,stimuli/objects/100b.jpg,stimuli/scenes/027a.jpg,stimuli/scenes/027b.jpg,dist1,dist2,target,lure,0,0,0,0,0,63,63,3,,,,,,,,,,,420.6885521999793,421.69937879999634,421.69937879999634,421.69937879999634,421.69937879999634,None,421.69937879999634,,,,,,,,,,,,,,,,,,,,,,,,,,,,,,,,,,,,,,,,student1,2022-10-20_15h10.30.486,Hippopolis_Learning,2022.2.2,59.990197607384104,
Hippopolis,stimuli/subj_files/student1_cityA.csv,./stimuli/frankfurt.jpg,./stimuli/street_plate1.png,KOKTÉL UTCA,stimuli/scenes/008a.jpg,scene,2,stimuli/objects/012a.jpg,stimuli/objects/036b.jpg,stimuli/objects/012b.jpg,stimuli/objects/036a.jpg,stimuli/objects/012a.jpg,dist2,lure,dist1,target,0,0,0,0,0,64,64,46,,,,,,,,,,,424.7052876999951,425.7188728999754,425.7188728999754,425.7188728999754,425.7188728999754,None,425.7188728999754,,,,,,,,,,,,,,,,,,,,,,,,,,,,,,,,,,,,,,,,student1,2022-10-20_15h10.30.486,Hippopolis_Learning,2022.2.2,59.990197607384104,
Hippopolis,stimuli/subj_files/student1_cityA.csv,./stimuli/frankfurt.jpg,./stimuli/street_plate1.png,KORONA UTCA,stimuli/scenes/108a.jpg,scene,1,stimuli/scenes/011a.jpg,stimuli/objects/076a.jpg,stimuli/scenes/011b.jpg,stimuli/objects/076b.jpg,stimuli/scenes/011a.jpg,dist1,lure,dist2,target,0,0,0,0,0,65,65,9,,,,,,,,,,,428.72162069997285,429.7354768999794,429.7354768999794,429.7354768999794,429.7354768999794,None,429.7354768999794,,,,,,,,,,,,,,,,,,,,,,,,,,,,,,,,,,,,,,,,student1,2022-10-20_15h10.30.486,Hippopolis_Learning,2022.2.2,59.990197607384104,
Hippopolis,stimuli/subj_files/student1_cityA.csv,./stimuli/frankfurt.jpg,./stimuli/street_plate1.png,HERNYÓ UTCA,stimuli/scenes/066a.jpg,scene,1,stimuli/scenes/037a.jpg,stimuli/scenes/037a.jpg,stimuli/objects/045b.jpg,stimuli/scenes/037b.jpg,stimuli/objects/045a.jpg,target,dist2,lure,dist1,0,0,0,0,0,66,66,5,,,,,,,,,,,432.73822269999073,433.7498384999926,433.7498384999926,433.7498384999926,433.7498384999926,None,433.7498384999926,,,,,,,,,,,,,,,,,,,,,,,,,,,,,,,,,,,,,,,,student1,2022-10-20_15h10.30.486,Hippopolis_Learning,2022.2.2,59.990197607384104,
Hippopolis,stimuli/subj_files/student1_cityA.csv,./stimuli/frankfurt.jpg,./stimuli/street_plate1.png,HAJÓ UTCA,stimuli/objects/086a.jpg,object,1,stimuli/objects/041a.jpg,stimuli/scenes/014a.jpg,stimuli/scenes/014b.jpg,stimuli/objects/041a.jpg,stimuli/objects/041b.jpg,dist1,dist2,target,lure,0,0,0,0,0,67,67,71,,,,,,,,,,,436.7549809999764,437.7702664999815,437.7702664999815,437.7702664999815,437.7702664999815,None,437.7702664999815,,,,,,,,,,,,,,,,,,,,,,,,,,,,,,,,,,,,,,,,student1,2022-10-20_15h10.30.486,Hippopolis_Learning,2022.2.2,59.990197607384104,
Hippopolis,stimuli/subj_files/student1_cityA.csv,./stimuli/frankfurt.jpg,./stimuli/street_plate1.png,HEGESZTŐ UTCA,stimuli/scenes/043a.jpg,scene,0,stimuli/scenes/043a.jpg,stimuli/scenes/043b.jpg,stimuli/scenes/043a.jpg,stimuli/objects/062a.jpg,stimuli/objects/062b.jpg,lure,target,dist1,dist2,0,0,0,0,0,68,68,77,,,,,,,,,,,440.77143849999993,441.7909063999832,441.7909063999832,441.7909063999832,441.7909063999832,None,441.7909063999832,,,,,,,,,,,,,,,,,,,,,,,,,,,,,,,,,,,,,,,,student1,2022-10-20_15h10.30.486,Hippopolis_Learning,2022.2.2,59.990197607384104,
Hippopolis,stimuli/subj_files/student1_cityA.csv,./stimuli/frankfurt.jpg,./stimuli/street_plate1.png,AJÁNDÉK UTCA,stimuli/scenes/005a.jpg,scene,1,stimuli/scenes/009a.jpg,stimuli/scenes/078b.jpg,stimuli/scenes/078a.jpg,stimuli/scenes/009a.jpg,stimuli/scenes/009b.jpg,dist2,dist1,target,lure,0,0,0,0,0,69,69,28,,,,,,,,,,,444.7883098999737,445.80012519998127,445.80012519998127,445.80012519998127,445.80012519998127,None,445.80012519998127,,,,,,,,,,,,,,,,,,,,,,,,,,,,,,,,,,,,,,,,student1,2022-10-20_15h10.30.486,Hippopolis_Learning,2022.2.2,59.990197607384104,
Hippopolis,stimuli/subj_files/student1_cityA.csv,./stimuli/frankfurt.jpg,./stimuli/street_plate1.png,KARTON UTCA,stimuli/objects/101a.jpg,object,2,stimuli/scenes/044a.jpg,stimuli/scenes/074a.jpg,stimuli/scenes/044b.jpg,stimuli/scenes/044a.jpg,stimuli/scenes/074b.jpg,dist1,lure,target,dist2,0,0,0,0,0,70,70,8,,,,,,,,,,,448.8045891999791,449.82056149997516,449.82056149997516,449.82056149997516,449.82056149997516,None,449.82056149997516,,,,,,,,,,,,,,,,,,,,,,,,,,,,,,,,,,,,,,,,student1,2022-10-20_15h10.30.486,Hippopolis_Learning,2022.2.2,59.990197607384104,
Hippopolis,stimuli/subj_files/student1_cityA.csv,./stimuli/frankfurt.jpg,./stimuli/street_plate1.png,HÁRFA UTCA,stimuli/objects/083a.jpg,object,2,stimuli/scenes/028a.jpg,stimuli/scenes/028b.jpg,stimuli/objects/012b.jpg,stimuli/objects/012a.jpg,stimuli/scenes/028a.jpg,lure,dist2,dist1,target,0,0,0,0,0,71,71,16,,,,,,,,,,,452.8214570999844,453.84068449999904,453.84068449999904,453.84068449999904,453.84068449999904,None,453.84068449999904,,,,,,,,,,,,,,,,,,,,,,,,,,,,,,,,,,,,,,,,student1,2022-10-20_15h10.30.486,Hippopolis_Learning,2022.2.2,59.990197607384104,
Hippopolis,stimuli/subj_files/student1_cityA.csv,./stimuli/frankfurt.jpg,./stimuli/street_plate1.png,DOMINÓ UTCA,stimuli/scenes/042a.jpg,scene,0,stimuli/scenes/042a.jpg,stimuli/scenes/042a.jpg,stimuli/scenes/042b.jpg,stimuli/objects/070a.jpg,stimuli/objects/070b.jpg,target,lure,dist1,dist2,0,0,0,0,0,72,72,63,,,,,,,,,,,456.83789509997587,457.85061649998534,457.85061649998534,457.85061649998534,457.85061649998534,None,457.85061649998534,,,,,,,,,,,,,,,,,,,,,,,,,,,,,,,,,,,,,,,,student1,2022-10-20_15h10.30.486,Hippopolis_Learning,2022.2.2,59.990197607384104,
Hippopolis,stimuli/subj_files/student1_cityA.csv,./stimuli/frankfurt.jpg,./stimuli/street_plate1.png,PAPUCS UTCA,stimuli/scenes/051a.jpg,scene,0,stimuli/scenes/051a.jpg,stimuli/scenes/051b.jpg,stimuli/scenes/051a.jpg,stimuli/scenes/090a.jpg,stimuli/scenes/090b.jpg,lure,target,dist1,dist2,0,0,0,0,0,73,73,68,,,,,,,,,,,460.8543284999905,461.8650552999752,461.8650552999752,461.8650552999752,461.8650552999752,None,461.8650552999752,,,,,,,,,,,,,,,,,,,,,,,,,,,,,,,,,,,,,,,,student1,2022-10-20_15h10.30.486,Hippopolis_Learning,2022.2.2,59.990197607384104,
Hippopolis,stimuli/subj_files/student1_cityA.csv,./stimuli/frankfurt.jpg,./stimuli/street_plate1.png,CSILLAG UTCA,stimuli/scenes/083a.jpg,scene,1,stimuli/scenes/117a.jpg,stimuli/scenes/117a.jpg,stimuli/scenes/117b.jpg,stimuli/objects/041a.jpg,stimuli/objects/041b.jpg,target,lure,dist1,dist2,0,0,0,0,0,74,74,15,,,,,,,,,,,464.87112879997585,465.8855629999889,465.8855629999889,465.8855629999889,465.8855629999889,None,465.8855629999889,,,,,,,,,,,,,,,,,,,,,,,,,,,,,,,,,,,,,,,,student1,2022-10-20_15h10.30.486,Hippopolis_Learning,2022.2.2,59.990197607384104,
Hippopolis,stimuli/subj_files/student1_cityA.csv,./stimuli/frankfurt.jpg,./stimuli/street_plate1.png,PÁLMAFA UTCA,stimuli/objects/090a.jpg,object,1,stimuli/objects/007a.jpg,stimuli/objects/053a.jpg,stimuli/objects/007a.jpg,stimuli/objects/053b.jpg,stimuli/objects/007b.jpg,dist1,target,dist2,lure,0,0,0,0,0,75,75,12,,,,,,,,,,,468.88769199998933,469.9056375999935,469.9056375999935,469.9056375999935,469.9056375999935,None,469.9056375999935,,,,,,,,,,,,,,,,,,,,,,,,,,,,,,,,,,,,,,,,student1,2022-10-20_15h10.30.486,Hippopolis_Learning,2022.2.2,59.990197607384104,
Hippopolis,stimuli/subj_files/student1_cityA.csv,./stimuli/frankfurt.jpg,./stimuli/street_plate1.png,KIRAKÓ UTCA,stimuli/objects/079a.jpg,object,2,stimuli/scenes/070a.jpg,stimuli/scenes/070a.jpg,stimuli/scenes/070b.jpg,stimuli/objects/043b.jpg,stimuli/objects/043a.jpg,target,lure,dist2,dist1,0,0,0,0,0,76,76,57,,,,,,,,,,,472.9044011999795,473.9228818999836,473.9228818999836,473.9228818999836,473.9228818999836,None,473.9228818999836,,,,,,,,,,,,,,,,,,,,,,,,,,,,,,,,,,,,,,,,student1,2022-10-20_15h10.30.486,Hippopolis_Learning,2022.2.2,59.990197607384104,
Hippopolis,stimuli/subj_files/student1_cityA.csv,./stimuli/frankfurt.jpg,./stimuli/street_plate1.png,BOLYGÓ UTCA,stimuli/scenes/118a.jpg,scene,1,stimuli/scenes/087a.jpg,stimuli/objects/011a.jpg,stimuli/scenes/087b.jpg,stimuli/objects/011b.jpg,stimuli/scenes/087a.jpg,dist1,lure,dist2,target,0,0,0,0,0,77,77,31,,,,,,,,,,,476.92088319998584,477.9351858999871,477.9351858999871,477.9351858999871,477.9351858999871,None,477.9351858999871,,,,,,,,,,,,,,,,,,,,,,,,,,,,,,,,,,,,,,,,student1,2022-10-20_15h10.30.486,Hippopolis_Learning,2022.2.2,59.990197607384104,
Hippopolis,stimuli/subj_files/student1_cityA.csv,./stimuli/frankfurt.jpg,./stimuli/street_plate1.png,TRIATLON UTCA,stimuli/objects/024a.jpg,object,0,stimuli/objects/024a.jpg,stimuli/objects/024b.jpg,stimuli/objects/080a.jpg,stimuli/objects/024a.jpg,stimuli/objects/080b.jpg,lure,dist1,target,dist2,0,0,0,0,0,78,78,2,,,,,,,,,,,480.93751509999856,481.95039169999654,481.95039169999654,481.95039169999654,481.95039169999654,None,481.95039169999654,,,,,,,,,,,,,,,,,,,,,,,,,,,,,,,,,,,,,,,,student1,2022-10-20_15h10.30.486,Hippopolis_Learning,2022.2.2,59.990197607384104,
Hippopolis,stimuli/subj_files/student1_cityA.csv,./stimuli/frankfurt.jpg,./stimuli/street_plate1.png,MUSTÁR UTCA,stimuli/scenes/050a.jpg,scene,0,stimuli/scenes/050a.jpg,stimuli/objects/009a.jpg,stimuli/objects/009b.jpg,stimuli/scenes/050a.jpg,stimuli/scenes/050b.jpg,dist1,dist2,target,lure,0,0,0,0,0,79,79,78,,,,,,,,,,,484.9540581999754,485.9590132999874,485.9590132999874,485.9590132999874,485.9590132999874,None,485.9590132999874,,,,,,,,,,,,,,,,,,,,,,,,,,,,,,,,,,,,,,,,student1,2022-10-20_15h10.30.486,Hippopolis_Learning,2022.2.2,59.990197607384104,
Hippopolis,stimuli/subj_files/student1_cityA.csv,./stimuli/frankfurt.jpg,./stimuli/street_plate1.png,FIÓK UTCA,stimuli/scenes/002a.jpg,scene,1,stimuli/scenes/014a.jpg,stimuli/scenes/014a.jpg,stimuli/objects/004a.jpg,stimuli/objects/004b.jpg,stimuli/scenes/014b.jpg,target,dist1,dist2,lure,0,0,0,0,,,,,0,0,0,73,,,,,,,502.42173019997426,,,,,,,,,,488.970677299978,488.970677299978,space,9.408766900014598,498.42563179999706,498.42563179999706,498.42563179999706,498.42563179999706,498.42563179999706,498.42563179999706,None,None,,,,,,,,,,,,,,,,,,,,,,,,,student1,2022-10-20_15h10.30.486,Hippopolis_Learning,2022.2.2,59.990197607384104,
Hippopolis,stimuli/subj_files/student1_cityA.csv,./stimuli/frankfurt.jpg,./stimuli/street_plate1.png,TOBOZ UTCA,stimuli/objects/001a.jpg,object,2,stimuli/scenes/059a.jpg,stimuli/scenes/059a.jpg,stimuli/objects/085a.jpg,stimuli/objects/085b.jpg,stimuli/scenes/059b.jpg,target,dist1,dist2,lure,0,0,0,0,,,,,0,1,1,40,,,,,,,507.43732809997164,,,,,,508.43754309997894,,,,,,,,503.4376197999809,503.4376197999809,503.4376197999809,503.4376197999809,503.4376197999809,503.4376197999809,None,None,,,,,,,,,,,,,,,,,,,,,,,,,student1,2022-10-20_15h10.30.486,Hippopolis_Learning,2022.2.2,59.990197607384104,
Hippopolis,stimuli/subj_files/student1_cityA.csv,./stimuli/frankfurt.jpg,./stimuli/street_plate1.png,KULLANCS UTCA,stimuli/objects/089a.jpg,object,0,stimuli/objects/089a.jpg,stimuli/scenes/072a.jpg,stimuli/objects/089a.jpg,stimuli/scenes/072b.jpg,stimuli/objects/089b.jpg,dist1,target,dist2,lure,0,0,0,0,,,,,0,2,2,34,,,,,,,511.73697449997417,,,,,,512.7371881999716,,,,,,,,508.43754309997894,508.43754309997894,508.43754309997894,508.43754309997894,508.43754309997894,508.43754309997894,left,None,3.279660900007002,,,,,,,,,,,,,,,,,,,,,,,,student1,2022-10-20_15h10.30.486,Hippopolis_Learning,2022.2.2,59.990197607384104,
Hippopolis,stimuli/subj_files/student1_cityA.csv,./stimuli/frankfurt.jpg,./stimuli/street_plate1.png,BOLYGÓ UTCA,stimuli/scenes/118a.jpg,scene,1,stimuli/scenes/087a.jpg,stimuli/objects/011a.jpg,stimuli/scenes/087b.jpg,stimuli/objects/011b.jpg,stimuli/scenes/087a.jpg,dist1,lure,dist2,target,0,0,0,0,,,,,0,3,3,31,,,,,,,514.9537105999771,,,,,,515.9539640999865,,,,,,,,512.7371881999716,512.7371881999716,512.7371881999716,512.7371881999716,512.7371881999716,512.7371881999716,right,None,2.1957402000261936,,,,,,,,,,,,,,,,,,,,,,,,student1,2022-10-20_15h10.30.486,Hippopolis_Learning,2022.2.2,59.990197607384104,
Hippopolis,stimuli/subj_files/student1_cityA.csv,./stimuli/frankfurt.jpg,./stimuli/street_plate1.png,PÁFRÁNY UTCA,stimuli/scenes/101a.jpg,scene,0,stimuli/scenes/101a.jpg,stimuli/scenes/101a.jpg,stimuli/scenes/101b.jpg,stimuli/objects/051a.jpg,stimuli/objects/051b.jpg,target,lure,dist1,dist2,0,0,0,0,,,,,0,4,4,0,,,,,,,519.0537381999893,,,,,,520.0554473999946,,,,,,,,515.9539640999865,515.9539640999865,515.9539640999865,515.9539640999865,515.9539640999865,515.9539640999865,left,None,3.0735363000130747,,,,,,,,,,,,,,,,,,,,,,,,student1,2022-10-20_15h10.30.486,Hippopolis_Learning,2022.2.2,59.990197607384104,
Hippopolis,stimuli/subj_files/student1_cityA.csv,./stimuli/frankfurt.jpg,./stimuli/street_plate1.png,TALICSKA UTCA,stimuli/objects/014a.jpg,object,1,stimuli/objects/108a.jpg,stimuli/objects/109a.jpg,stimuli/objects/109b.jpg,stimuli/objects/108a.jpg,stimuli/objects/108b.jpg,dist1,dist2,target,lure,0,0,0,0,,,,,0,5,5,13,,,,,,,521.3200528999732,,,,,,522.3205460999743,,,,,,,,520.0554473999946,520.0554473999946,520.0554473999946,520.0554473999946,520.0554473999946,520.0554473999946,right,None,1.2433400000445545,,,,,,,,,,,,,,,,,,,,,,,,student1,2022-10-20_15h10.30.486,Hippopolis_Learning,2022.2.2,59.990197607384104,
Hippopolis,stimuli/subj_files/student1_cityA.csv,./stimuli/frankfurt.jpg,./stimuli/street_plate1.png,VASALÓ UTCA,stimuli/objects/025a.jpg,object,2,stimuli/scenes/056a.jpg,stimuli/scenes/044a.jpg,stimuli/scenes/056b.jpg,stimuli/scenes/056a.jpg,stimuli/scenes/044b.jpg,dist1,lure,target,dist2,0,0,0,0,,,,,0,6,6,70,,,,,,,524.620053599996,,,,,,525.6202438999899,,,,,,,,522.3205460999743,522.3205460999743,522.3205460999743,522.3205460999743,522.3205460999743,522.3205460999743,right,None,2.2745296000211965,,,,,,,,,,,,,,,,,,,,,,,,student1,2022-10-20_15h10.30.486,Hippopolis_Learning,2022.2.2,59.990197607384104,
Hippopolis,stimuli/subj_files/student1_cityA.csv,./stimuli/frankfurt.jpg,./stimuli/street_plate1.png,HEGESZTŐ UTCA,stimuli/scenes/043a.jpg,scene,0,stimuli/scenes/043a.jpg,stimuli/scenes/043b.jpg,stimuli/scenes/043a.jpg,stimuli/objects/062a.jpg,stimuli/objects/062b.jpg,lure,target,dist1,dist2,0,0,0,0,,,,,0,7,7,77,,,,,,,528.453186699975,,,,,,529.453594999999,,,,,,,,525.6202438999899,525.6202438999899,525.6202438999899,525.6202438999899,525.6202438999899,525.6202438999899,left,None,2.815666800015606,,,,,,,,,,,,,,,,,,,,,,,,student1,2022-10-20_15h10.30.486,Hippopolis_Learning,2022.2.2,59.990197607384104,
Hippopolis,stimuli/subj_files/student1_cityA.csv,./stimuli/frankfurt.jpg,./stimuli/street_plate1.png,KERÉK UTCA,stimuli/scenes/096a.jpg,scene,1,stimuli/scenes/041a.jpg,stimuli/scenes/117a.jpg,stimuli/scenes/041b.jpg,stimuli/scenes/041a.jpg,stimuli/scenes/117b.jpg,dist1,lure,target,dist2,0,0,0,0,,,,,0,8,8,20,,,,,,,533.1200288999826,,,,,,534.1209081999841,,,,,,,,529.453594999999,529.453594999999,529.453594999999,529.453594999999,529.453594999999,529.453594999999,left,None,3.6352958000497892,,,,,,,,,,,,,,,,,,,,,,,,student1,2022-10-20_15h10.30.486,Hippopolis_Learning,2022.2.2,59.990197607384104,
Hippopolis,stimuli/subj_files/student1_cityA.csv,./stimuli/frankfurt.jpg,./stimuli/street_plate1.png,HAJÓ UTCA,stimuli/objects/086a.jpg,object,1,stimuli/objects/041a.jpg,stimuli/scenes/014a.jpg,stimuli/scenes/014b.jpg,stimuli/objects/041a.jpg,stimuli/objects/041b.jpg,dist1,dist2,target,lure,0,0,0,0,,,,,0,9,9,71,,,,,,,538.120325899974,,,,,,539.1201628999843,,,,,,,,534.1209081999841,534.1209081999841,534.1209081999841,534.1209081999841,534.1209081999841,534.1209081999841,None,None,,538.120325899974,538.120325899974,538.120325899974,538.120325899974,538.120325899974,538.120325899974,,,,,,,,,,,,,,,,,,student1,2022-10-20_15h10.30.486,Hippopolis_Learning,2022.2.2,59.990197607384104,
Hippopolis,stimuli/subj_files/student1_cityA.csv,./stimuli/frankfurt.jpg,./stimuli/street_plate1.png,TRIATLON UTCA,stimuli/objects/024a.jpg,object,0,stimuli/objects/024a.jpg,stimuli/objects/024b.jpg,stimuli/objects/080a.jpg,stimuli/objects/024a.jpg,stimuli/objects/080b.jpg,lure,dist1,target,dist2,0,0,0,0,,,,,0,10,10,2,,,,,,,540.5862385999935,,,,,,541.5873421999859,,,,,,,,539.1201628999843,539.1201628999843,539.1201628999843,539.1201628999843,539.1201628999843,539.1201628999843,right,None,1.4356887000321876,,,,,,,,,,,,,,,,,,,,,,,,student1,2022-10-20_15h10.30.486,Hippopolis_Learning,2022.2.2,59.990197607384104,
Hippopolis,stimuli/subj_files/student1_cityA.csv,./stimuli/frankfurt.jpg,./stimuli/street_plate1.png,RÓZSA UTCA,stimuli/objects/091a.jpg,object,0,stimuli/objects/091a.jpg,stimuli/objects/091b.jpg,stimuli/objects/078b.jpg,stimuli/objects/078a.jpg,stimuli/objects/091a.jpg,lure,dist2,dist1,target,0,0,0,0,,,,,0,11,11,45,,,,,,,542.8528656999988,,,,,,543.854273999983,,,,,,,,541.5873421999859,541.5873421999859,541.5873421999859,541.5873421999859,541.5873421999859,541.5873421999859,left,None,1.2453988000343088,,,,,,,,,,,,,,,,,,,,,,,,student1,2022-10-20_15h10.30.486,Hippopolis_Learning,2022.2.2,59.990197607384104,
Hippopolis,stimuli/subj_files/student1_cityA.csv,./stimuli/frankfurt.jpg,./stimuli/street_plate1.png,ÜVEG UTCA,stimuli/scenes/061a.jpg,scene,2,stimuli/objects/085a.jpg,stimuli/objects/085b.jpg,stimuli/scenes/084a.jpg,stimuli/objects/085a.jpg,stimuli/scenes/084b.jpg,lure,dist1,target,dist2,0,0,0,0,,,,,0,12,12,19,,,,,,,546.0866365999973,,,,,,547.0893617999973,,,,,,,,543.854273999983,543.854273999983,543.854273999983,543.854273999983,543.854273999983,543.854273999983,left,None,2.2122520000266377,,,,,,,,,,,,,,,,,,,,,,,,student1,2022-10-20_15h10.30.486,Hippopolis_Learning,2022.2.2,59.990197607384104,
Hippopolis,stimuli/subj_files/student1_cityA.csv,./stimuli/frankfurt.jpg,./stimuli/street_plate1.png,OROSZLÁN UTCA,stimuli/scenes/072a.jpg,scene,0,stimuli/scenes/072a.jpg,stimuli/scenes/072a.jpg,stimuli/scenes/072b.jpg,stimuli/scenes/027b.jpg,stimuli/scenes/027a.jpg,target,lure,dist2,dist1,0,0,0,0,,,,,0,13,13,66,,,,,,,550.154879699985,,,,,,,,,,,,,,547.0893617999973,547.0893617999973,547.0893617999973,547.0893617999973,547.0893617999973,547.0893617999973,left,None,3.039980400033528,,,,,,,,,,,,,,,,,,,,,,,,student1,2022-10-20_15h10.30.486,Hippopolis_Learning,2022.2.2,59.990197607384104,
Hippopolis,stimuli/subj_files/student1_cityA.csv,./stimuli/frankfurt.jpg,./stimuli/street_plate1.png,PAPUCS UTCA,stimuli/scenes/051a.jpg,scene,0,stimuli/scenes/051a.jpg,stimuli/scenes/051b.jpg,stimuli/scenes/051a.jpg,stimuli/scenes/090a.jpg,stimuli/scenes/090b.jpg,lure,target,dist1,dist2,0,0,0,0,,,,,0,14,14,68,,,,,,,552.4527806999977,,,,,,553.4534140999895,,,,,,,,551.1699922999833,551.1699922999833,551.1699922999833,551.1699922999833,551.1699922999833,551.1699922999833,right,None,1.2616438000404742,,,,,,,,,,,,,,,,,,,,,,,,student1,2022-10-20_15h10.30.486,Hippopolis_Learning,2022.2.2,59.990197607384104,
Hippopolis,stimuli/subj_files/student1_cityA.csv,./stimuli/frankfurt.jpg,./stimuli/street_plate1.png,HORDÓ UTCA,stimuli/scenes/095a.jpg,scene,0,stimuli/scenes/095a.jpg,stimuli/scenes/095a.jpg,stimuli/scenes/046a.jpg,stimuli/scenes/095b.jpg,stimuli/scenes/046b.jpg,target,dist1,lure,dist2,0,0,0,0,,,,,0,15,15,27,,,,,,,554.8194244999904,,,,,,555.8199036999722,,,,,,,,553.4534140999895,553.4534140999895,553.4534140999895,553.4534140999895,553.4534140999895,553.4534140999895,left,None,1.3476145000313409,,,,,,,,,,,,,,,,,,,,,,,,student1,2022-10-20_15h10.30.486,Hippopolis_Learning,2022.2.2,59.990197607384104,
Hippopolis,stimuli/subj_files/student1_cityA.csv,./stimuli/frankfurt.jpg,./stimuli/street_plate1.png,KÖNYVTÁR UTCA,stimuli/objects/113a.jpg,object,1,stimuli/objects/109a.jpg,stimuli/objects/109a.jpg,stimuli/objects/109b.jpg,stimuli/scenes/067a.jpg,stimuli/scenes/067b.jpg,target,lure,dist1,dist2,0,0,0,0,,,,,0,16,16,42,,,,,,,558.6361389999802,,,,,,559.6374158999824,,,,,,,,555.8199036999722,555.8199036999722,555.8199036999722,555.8199036999722,555.8199036999722,555.8199036999722,right,None,2.7922477000101935,,,,,,,,,,,,,,,,,,,,,,,,student1,2022-10-20_15h10.30.486,Hippopolis_Learning,2022.2.2,59.990197607384104,
Hippopolis,stimuli/subj_files/student1_cityA.csv,./stimuli/frankfurt.jpg,./stimuli/street_plate1.png,TOLLTARTÓ UTCA,stimuli/objects/032a.jpg,object,2,stimuli/scenes/119a.jpg,stimuli/scenes/119a.jpg,stimuli/scenes/104b.jpg,stimuli/scenes/104a.jpg,stimuli/scenes/119b.jpg,target,dist2,dist1,lure,0,0,0,0,,,,,0,17,17,67,,,,,,,562.5407047999906,,,,,,563.5538003999973,,,,,,,,559.6374158999824,559.6374158999824,559.6374158999824,559.6374158999824,559.6374158999824,559.6374158999824,right,None,2.8772422000183724,,,,,,,,,,,,,,,,,,,,,,,,student1,2022-10-20_15h10.30.486,Hippopolis_Learning,2022.2.2,59.990197607384104,
Hippopolis,stimuli/subj_files/student1_cityA.csv,./stimuli/frankfurt.jpg,./stimuli/street_plate1.png,SZOMSZÉD UTCA,stimuli/objects/026a.jpg,object,1,stimuli/objects/004a.jpg,stimuli/objects/027b.jpg,stimuli/objects/004b.jpg,stimuli/objects/004a.jpg,stimuli/objects/027a.jpg,dist2,lure,target,dist1,0,0,0,0,,,,,0,18,18,65,,,,,,,564.7875120999815,,,,,,,,,,,,,,563.5538003999973,563.5538003999973,563.5538003999973,563.5538003999973,563.5538003999973,563.5538003999973,right,None,1.2005646000325214,,,,,,,,,,,,,,,,,,,,,,,,student1,2022-10-20_15h10.30.486,Hippopolis_Learning,2022.2.2,59.990197607384104,
Hippopolis,stimuli/subj_files/student1_cityA.csv,./stimuli/frankfurt.jpg,./stimuli/street_plate1.png,FOGAS UTCA,stimuli/scenes/025a.jpg,scene,1,stimuli/scenes/018a.jpg,stimuli/scenes/018b.jpg,stimuli/scenes/064a.jpg,stimuli/scenes/018a.jpg,stimuli/scenes/064b.jpg,lure,dist1,target,dist2,0,0,0,0,,,,,0,19,19,38,,,,,,,567.3197598999832,,,,,,568.3195898999984,,,,,,,,565.8031535999908,565.8031535999908,565.8031535999908,565.8031535999908,565.8031535999908,565.8031535999908,left,None,1.488814900018042,,,,,,,,,,,,,,,,,,,,,,,,student1,2022-10-20_15h10.30.486,Hippopolis_Learning,2022.2.2,59.990197607384104,
Hippopolis,stimuli/subj_files/student1_cityA.csv,./stimuli/frankfurt.jpg,./stimuli/street_plate1.png,BONBON UTCA,stimuli/objects/095a.jpg,object,2,stimuli/scenes/007a.jpg,stimuli/objects/028b.jpg,stimuli/objects/028a.jpg,stimuli/scenes/007a.jpg,stimuli/scenes/007b.jpg,dist2,dist1,target,lure,0,0,0,0,,,,,0,20,20,72,,,,,,,570.1708111999906,,,,,,,,,,,,,,568.3195898999984,568.3195898999984,568.3195898999984,568.3195898999984,568.3195898999984,568.3195898999984,right,None,1.8194269000086933,,,,,,,,,,,,,,,,,,,,,,,,student1,2022-10-20_15h10.30.486,Hippopolis_Learning,2022.2.2,59.990197607384104,
Hippopolis,stimuli/subj_files/student1_cityA.csv,./stimuli/frankfurt.jpg,./stimuli/street_plate1.png,PETÁRDA UTCA,stimuli/objects/009a.jpg,object,0,stimuli/objects/009a.jpg,stimuli/objects/009a.jpg,stimuli/scenes/051a.jpg,stimuli/objects/009b.jpg,stimuli/scenes/051b.jpg,target,dist1,lure,dist2,0,0,0,0,,,,,0,21,21,64,,,,,,,573.0193807999894,,,,,,574.0199551999976,,,,,,,,571.1862857999804,571.1862857999804,571.1862857999804,571.1862857999804,571.1862857999804,571.1862857999804,left,None,1.8151724000344984,,,,,,,,,,,,,,,,,,,,,,,,student1,2022-10-20_15h10.30.486,Hippopolis_Learning,2022.2.2,59.990197607384104,
Hippopolis,stimuli/subj_files/student1_cityA.csv,./stimuli/frankfurt.jpg,./stimuli/street_plate1.png,TELEP UTCA,stimuli/scenes/048a.jpg,scene,2,stimuli/objects/120a.jpg,stimuli/objects/120a.jpg,stimuli/objects/120b.jpg,stimuli/scenes/119b.jpg,stimuli/scenes/119a.jpg,target,lure,dist2,dist1,0,0,0,0,,,,,0,22,22,75,,,,,,,575.369212199992,,,,,,576.3695199999784,,,,,,,,574.0199551999976,574.0199551999976,574.0199551999976,574.0199551999976,574.0199551999976,574.0199551999976,left,None,1.328276400017785,,,,,,,,,,,,,,,,,,,,,,,,student1,2022-10-20_15h10.30.486,Hippopolis_Learning,2022.2.2,59.990197607384104,
Hippopolis,stimuli/subj_files/student1_cityA.csv,./stimuli/frankfurt.jpg,./stimuli/street_plate1.png,MOGYORÓ UTCA,stimuli/objects/106a.jpg,object,1,stimuli/objects/103a.jpg,stimuli/scenes/116a.jpg,stimuli/objects/103b.jpg,stimuli/objects/103a.jpg,stimuli/scenes/116b.jpg,dist1,lure,target,dist2,0,0,0,0,,,,,0,23,23,54,,,,,,,580.3691107999766,,,,,,581.3695758999966,,,,,,,,576.3695199999784,576.3695199999784,576.3695199999784,576.3695199999784,576.3695199999784,576.3695199999784,None,None,,580.3691107999766,580.3691107999766,580.3691107999766,580.3691107999766,580.3691107999766,580.3691107999766,,,,,,,,,,,,,,,,,,student1,2022-10-20_15h10.30.486,Hippopolis_Learning,2022.2.2,59.990197607384104,
Hippopolis,stimuli/subj_files/student1_cityA.csv,./stimuli/frankfurt.jpg,./stimuli/street_plate1.png,KÖMÉNYMAG UTCA,stimuli/objects/068a.jpg,object,1,stimuli/objects/045a.jpg,stimuli/objects/045a.jpg,stimuli/objects/045b.jpg,stimuli/objects/071a.jpg,stimuli/objects/071b.jpg,target,lure,dist1,dist2,0,0,0,0,,,,,0,24,24,18,,,,,,,582.4533858999785,,,,,,583.4529501999787,,,,,,,,581.3695758999966,581.3695758999966,581.3695758999966,581.3695758999966,581.3695758999966,581.3695758999966,right,None,1.0509693000349216,,,,,,,,,,,,,,,,,,,,,,,,student1,2022-10-20_15h10.30.486,Hippopolis_Learning,2022.2.2,59.990197607384104,
Hippopolis,stimuli/subj_files/student1_cityA.csv,./stimuli/frankfurt.jpg,./stimuli/street_plate1.png,MARTINI UTCA,stimuli/objects/060a.jpg,object,1,stimuli/objects/011a.jpg,stimuli/objects/075b.jpg,stimuli/objects/075a.jpg,stimuli/objects/011b.jpg,stimuli/objects/011a.jpg,dist2,dist1,lure,target,0,0,0,0,,,,,0,25,25,60,,,,,,,584.5719857999939,,,,,,,,,,,,,,583.4529501999787,583.4529501999787,583.4529501999787,583.4529501999787,583.4529501999787,583.4529501999787,right,None,1.085700200026622,,,,,,,,,,,,,,,,,,,,,,,,student1,2022-10-20_15h10.30.486,Hippopolis_Learning,2022.2.2,59.990197607384104,
Hippopolis,stimuli/subj_files/student1_cityA.csv,./stimuli/frankfurt.jpg,./stimuli/street_plate1.png,BÖGRE UTCA,stimuli/objects/050a.jpg,object,1,stimuli/objects/076a.jpg,stimuli/scenes/037a.jpg,stimuli/objects/076a.jpg,stimuli/objects/076b.jpg,stimuli/scenes/037b.jpg,dist1,target,lure,dist2,0,0,0,0,,,,,0,26,26,41,,,,,,,587.1359923999989,,,,,,588.1363886999898,,,,,,,,585.5860532999795,585.5860532999795,585.5860532999795,585.5860532999795,585.5860532999795,585.5860532999795,left,None,1.528595000039786,,,,,,,,,,,,,,,,,,,,,,,,student1,2022-10-20_15h10.30.486,Hippopolis_Learning,2022.2.2,59.990197607384104,
Hippopolis,stimuli/subj_files/student1_cityA.csv,./stimuli/frankfurt.jpg,./stimuli/street_plate1.png,VÖDÖR UTCA,stimuli/scenes/055a.jpg,scene,1,stimuli/scenes/088a.jpg,stimuli/scenes/088b.jpg,stimuli/scenes/088a.jpg,stimuli/scenes/087b.jpg,stimuli/scenes/087a.jpg,lure,target,dist2,dist1,0,0,0,0,,,,,0,27,27,56,,,,,,,589.3527724999876,,,,,,590.3526637999748,,,,,,,,588.1363886999898,588.1363886999898,588.1363886999898,588.1363886999898,588.1363886999898,588.1363886999898,left,None,1.1937228000315372,,,,,,,,,,,,,,,,,,,,,,,,student1,2022-10-20_15h10.30.486,Hippopolis_Learning,2022.2.2,59.990197607384104,
Hippopolis,stimuli/subj_files/student1_cityA.csv,./stimuli/frankfurt.jpg,./stimuli/street_plate1.png,KAKAS UTCA,stimuli/objects/002a.jpg,object,2,stimuli/scenes/074a.jpg,stimuli/scenes/074b.jpg,stimuli/scenes/074a.jpg,stimuli/scenes/070a.jpg,stimuli/scenes/070b.jpg,lure,target,dist1,dist2,0,0,0,0,,,,,0,28,28,24,,,,,,,593.5691350999987,,,,,,594.5691014999757,,,,,,,,590.3526637999748,590.3526637999748,590.3526637999748,590.3526637999748,590.3526637999748,590.3526637999748,left,None,3.1997629000106826,,,,,,,,,,,,,,,,,,,,,,,,student1,2022-10-20_15h10.30.486,Hippopolis_Learning,2022.2.2,59.990197607384104,
Hippopolis,stimuli/subj_files/student1_cityA.csv,./stimuli/frankfurt.jpg,./stimuli/street_plate1.png,TOJÁS UTCA,stimuli/objects/021a.jpg,object,2,stimuli/scenes/034a.jpg,stimuli/scenes/034a.jpg,stimuli/objects/059a.jpg,stimuli/objects/059b.jpg,stimuli/scenes/034b.jpg,target,dist1,dist2,lure,0,0,0,0,,,,,0,29,29,37,,,,,,,596.1382741999987,,,,,,,,,,,,,,594.5691014999757,594.5691014999757,594.5691014999757,594.5691014999757,594.5691014999757,594.5691014999757,right,None,1.5443228000367526,,,,,,,,,,,,,,,,,,,,,,,,student1,2022-10-20_15h10.30.486,Hippopolis_Learning,2022.2.2,59.990197607384104,
Hippopolis,stimuli/subj_files/student1_cityA.csv,./stimuli/frankfurt.jpg,./stimuli/street_plate1.png,ZSEMLE UTCA,stimuli/objects/115a.jpg,object,1,stimuli/objects/053a.jpg,stimuli/objects/007a.jpg,stimuli/objects/053a.jpg,stimuli/objects/007b.jpg,stimuli/objects/053b.jpg,dist1,target,dist2,lure,0,0,0,0,,,,,0,30,30,47,,,,,,,603.6521595999948,,,,,,604.6524528999871,,,,,,,,597.1525662999775,597.1525662999775,597.1525662999775,597.1525662999775,597.1525662999775,597.1525662999775,right,space,1.734607100050198,,,,,,,598.9235396999866,598.9235396999866,598.9235396999866,598.9235396999866,598.9235396999866,4.706982300034724,,,,,,,,,,,,student1,2022-10-20_15h10.30.486,Hippopolis_Learning,2022.2.2,59.990197607384104,
Hippopolis,stimuli/subj_files/student1_cityA.csv,./stimuli/frankfurt.jpg,./stimuli/street_plate1.png,POGÁCSA UTCA,stimuli/scenes/046a.jpg,scene,0,stimuli/scenes/046a.jpg,stimuli/scenes/042a.jpg,stimuli/scenes/046a.jpg,stimuli/scenes/046b.jpg,stimuli/scenes/042b.jpg,dist1,target,lure,dist2,0,0,0,0,,,,,0,31,31,49,,,,,,,608.6518787999812,,,,,,609.6523851999955,,,,,,,,604.6524528999871,604.6524528999871,604.6524528999871,604.6524528999871,604.6524528999871,604.6524528999871,None,None,,608.6518787999812,608.6518787999812,608.6518787999812,608.6518787999812,608.6518787999812,608.6518787999812,,,,,,,,,,,,,,,,,,student1,2022-10-20_15h10.30.486,Hippopolis_Learning,2022.2.2,59.990197607384104,
Hippopolis,stimuli/subj_files/student1_cityA.csv,./stimuli/frankfurt.jpg,./stimuli/street_plate1.png,TERASZ UTCA,stimuli/objects/063a.jpg,object,2,stimuli/scenes/104a.jpg,stimuli/scenes/104a.jpg,stimuli/scenes/056a.jpg,stimuli/scenes/104b.jpg,stimuli/scenes/056b.jpg,target,dist1,lure,dist2,0,0,0,0,,,,,0,32,32,48,,,,,,,613.651761199988,,,,,,614.6522675999731,,,,,,,,609.6523851999955,609.6523851999955,609.6523851999955,609.6523851999955,609.6523851999955,609.6523851999955,None,None,,613.651761199988,613.651761199988,613.651761199988,613.651761199988,613.651761199988,613.651761199988,,,,,,,,,,,,,,,,,,student1,2022-10-20_15h10.30.486,Hippopolis_Learning,2022.2.2,59.990197607384104,
Hippopolis,stimuli/subj_files/student1_cityA.csv,./stimuli/frankfurt.jpg,./stimuli/street_plate1.png,PADLÓ UTCA,stimuli/objects/100a.jpg,object,0,stimuli/objects/100a.jpg,stimuli/scenes/058a.jpg,stimuli/scenes/058b.jpg,stimuli/objects/100a.jpg,stimuli/objects/100b.jpg,dist1,dist2,target,lure,0,0,0,0,,,,,0,33,33,59,,,,,,,618.6516300999792,,,,,,619.6520068999962,,,,,,,,614.6522675999731,614.6522675999731,614.6522675999731,614.6522675999731,614.6522675999731,614.6522675999731,None,None,,618.6516300999792,618.6516300999792,618.6516300999792,618.6516300999792,618.6516300999792,618.6516300999792,,,,,,,,,,,,,,,,,,student1,2022-10-20_15h10.30.486,Hippopolis_Learning,2022.2.2,59.990197607384104,
Hippopolis,stimuli/subj_files/student1_cityA.csv,./stimuli/frankfurt.jpg,./stimuli/street_plate1.png,EGÉR UTCA,stimuli/scenes/071a.jpg,scene,1,stimuli/scenes/116a.jpg,stimuli/scenes/116b.jpg,stimuli/scenes/116a.jpg,stimuli/scenes/009b.jpg,stimuli/scenes/009a.jpg,lure,target,dist2,dist1,0,0,0,0,,,,,0,34,34,29,,,,,,,623.5859861999925,,,,,,,,,,,,,,619.6520068999962,619.6520068999962,619.6520068999962,619.6520068999962,619.6520068999962,619.6520068999962,left,None,3.912150600022869,,,,,,,,,,,,,,,,,,,,,,,,student1,2022-10-20_15h10.30.486,Hippopolis_Learning,2022.2.2,59.990197607384104,
Hippopolis,stimuli/subj_files/student1_cityA.csv,./stimuli/frankfurt.jpg,./stimuli/street_plate1.png,CSAVAR UTCA,stimuli/objects/078a.jpg,object,0,stimuli/objects/078a.jpg,stimuli/objects/078b.jpg,stimuli/objects/024b.jpg,stimuli/objects/078a.jpg,stimuli/objects/024a.jpg,lure,dist2,target,dist1,0,0,0,0,,,,,0,35,35,10,,,,,,,628.1849197999982,,,,,,629.1853671999997,,,,,,,,624.6023529999948,624.6023529999948,624.6023529999948,624.6023529999948,624.6023529999948,624.6023529999948,left,None,3.5585391000495292,,,,,,,,,,,,,,,,,,,,,,,,student1,2022-10-20_15h10.30.486,Hippopolis_Learning,2022.2.2,59.990197607384104,
Hippopolis,stimuli/subj_files/student1_cityA.csv,./stimuli/frankfurt.jpg,./stimuli/street_plate1.png,ÁLOM UTCA,stimuli/objects/070a.jpg,object,0,stimuli/objects/070a.jpg,stimuli/objects/070b.jpg,stimuli/objects/114b.jpg,stimuli/objects/114a.jpg,stimuli/objects/070a.jpg,lure,dist2,dist1,target,0,0,0,0,,,,,0,36,36,50,,,,,,,631.5681585999846,,,,,,632.5684670999763,,,,,,,,629.1853671999997,629.1853671999997,629.1853671999997,629.1853671999997,629.1853671999997,629.1853671999997,left,None,2.3636885000451002,,,,,,,,,,,,,,,,,,,,,,,,student1,2022-10-20_15h10.30.486,Hippopolis_Learning,2022.2.2,59.990197607384104,
Hippopolis,stimuli/subj_files/student1_cityA.csv,./stimuli/frankfurt.jpg,./stimuli/street_plate1.png,HERNYÓ UTCA,stimuli/scenes/066a.jpg,scene,1,stimuli/scenes/037a.jpg,stimuli/scenes/037a.jpg,stimuli/objects/045b.jpg,stimuli/scenes/037b.jpg,stimuli/objects/045a.jpg,target,dist2,lure,dist1,0,0,0,0,,,,,0,37,37,5,,,,,,,635.0361419999972,,,,,,,,,,,,,,632.5684670999763,632.5684670999763,632.5684670999763,632.5684670999763,632.5684670999763,632.5684670999763,right,None,2.4390126000216696,,,,,,,,,,,,,,,,,,,,,,,,student1,2022-10-20_15h10.30.486,Hippopolis_Learning,2022.2.2,59.990197607384104,
Hippopolis,stimuli/subj_files/student1_cityA.csv,./stimuli/frankfurt.jpg,./stimuli/street_plate1.png,FÉNYKÉP UTCA,stimuli/scenes/010a.jpg,scene,1,stimuli/scenes/078a.jpg,stimuli/scenes/088a.jpg,stimuli/scenes/078a.jpg,stimuli/scenes/088b.jpg,stimuli/scenes/078b.jpg,dist1,target,dist2,lure,0,0,0,0,,,,,0,38,38,32,,,,,,,639.0179435999889,,,,,,640.0183934999804,,,,,,,,636.051842099987,636.051842099987,636.051842099987,636.051842099987,636.051842099987,636.051842099987,left,None,2.9437535000324715,,,,,,,,,,,,,,,,,,,,,,,,student1,2022-10-20_15h10.30.486,Hippopolis_Learning,2022.2.2,59.990197607384104,
Hippopolis,stimuli/subj_files/student1_cityA.csv,./stimuli/frankfurt.jpg,./stimuli/street_plate1.png,HARMONIKA UTCA,stimuli/scenes/024a.jpg,scene,0,stimuli/scenes/024a.jpg,stimuli/scenes/101b.jpg,stimuli/scenes/024b.jpg,stimuli/scenes/101a.jpg,stimuli/scenes/024a.jpg,dist2,lure,dist1,target,0,0,0,0,,,,,0,39,39,25,,,,,,,641.4012704999768,,,,,,642.4016574999841,,,,,,,,640.0183934999804,640.0183934999804,640.0183934999804,640.0183934999804,640.0183934999804,640.0183934999804,left,None,1.357437500031665,,,,,,,,,,,,,,,,,,,,,,,,student1,2022-10-20_15h10.30.486,Hippopolis_Learning,2022.2.2,59.990197607384104,
Hippopolis,stimuli/subj_files/student1_cityA.csv,./stimuli/frankfurt.jpg,./stimuli/street_plate1.png,LAKAT UTCA,stimuli/objects/066a.jpg,object,2,stimuli/scenes/084a.jpg,stimuli/scenes/084b.jpg,stimuli/scenes/034a.jpg,stimuli/scenes/084a.jpg,stimuli/scenes/034b.jpg,lure,dist1,target,dist2,0,0,0,0,,,,,0,40,40,58,,,,,,,646.2180429,,,,,,647.2181834999938,,,,,,,,642.4016574999841,642.4016574999841,642.4016574999841,642.4016574999841,642.4016574999841,642.4016574999841,left,None,3.7894267000083346,,,,,,,,,,,,,,,,,,,,,,,,student1,2022-10-20_15h10.30.486,Hippopolis_Learning,2022.2.2,59.990197607384104,
Hippopolis,stimuli/subj_files/student1_cityA.csv,./stimuli/frankfurt.jpg,./stimuli/street_plate1.png,MUSTÁR UTCA,stimuli/scenes/050a.jpg,scene,0,stimuli/scenes/050a.jpg,stimuli/objects/009a.jpg,stimuli/objects/009b.jpg,stimuli/scenes/050a.jpg,stimuli/scenes/050b.jpg,dist1,dist2,target,lure,0,0,0,0,,,,,0,41,41,78,,,,,,,651.2178697999916,,,,,,652.2185314999952,,,,,,,,647.2181834999938,647.2181834999938,647.2181834999938,647.2181834999938,647.2181834999938,647.2181834999938,None,None,,651.2178697999916,651.2178697999916,651.2178697999916,651.2178697999916,651.2178697999916,651.2178697999916,,,,,,,,,,,,,,,,,,student1,2022-10-20_15h10.30.486,Hippopolis_Learning,2022.2.2,59.990197607384104,
Hippopolis,stimuli/subj_files/student1_cityA.csv,./stimuli/frankfurt.jpg,./stimuli/street_plate1.png,BAGOLY UTCA,stimuli/scenes/029a.jpg,scene,2,stimuli/objects/028a.jpg,stimuli/objects/028b.jpg,stimuli/objects/028a.jpg,stimuli/scenes/028a.jpg,stimuli/scenes/028b.jpg,lure,target,dist1,dist2,0,0,0,0,,,,,0,42,42,21,,,,,,,653.9676769999787,,,,,,654.9681025999889,,,,,,,,652.2185314999952,652.2185314999952,652.2185314999952,652.2185314999952,652.2185314999952,652.2185314999952,left,None,1.7252715000358876,,,,,,,,,,,,,,,,,,,,,,,,student1,2022-10-20_15h10.30.486,Hippopolis_Learning,2022.2.2,59.990197607384104,
Hippopolis,stimuli/subj_files/student1_cityA.csv,./stimuli/frankfurt.jpg,./stimuli/street_plate1.png,FÓKA UTCA,stimuli/scenes/058a.jpg,scene,0,stimuli/scenes/058a.jpg,stimuli/scenes/058a.jpg,stimuli/scenes/058b.jpg,stimuli/objects/111b.jpg,stimuli/objects/111a.jpg,target,lure,dist2,dist1,0,0,0,0,,,,,0,43,43,51,,,,,,,656.3346830999944,,,,,,657.3348593999981,,,,,,,,654.9681025999889,654.9681025999889,654.9681025999889,654.9681025999889,654.9681025999889,654.9681025999889,left,None,1.3494653000379913,,,,,,,,,,,,,,,,,,,,,,,,student1,2022-10-20_15h10.30.486,Hippopolis_Learning,2022.2.2,59.990197607384104,
Hippopolis,stimuli/subj_files/student1_cityA.csv,./stimuli/frankfurt.jpg,./stimuli/street_plate1.png,PÉKSÉG UTCA,stimuli/scenes/073a.jpg,scene,2,stimuli/objects/059a.jpg,stimuli/objects/059a.jpg,stimuli/objects/046b.jpg,stimuli/objects/059b.jpg,stimuli/objects/046a.jpg,target,dist2,lure,dist1,0,0,0,0,,,,,0,44,44,61,,,,,,,661.3176791000005,,,,,,662.3183790999756,,,,,,,,657.3348593999981,657.3348593999981,657.3348593999981,657.3348593999981,657.3348593999981,657.3348593999981,left,None,3.959469200024614,,,,,,,,,,,,,,,,,,,,,,,,student1,2022-10-20_15h10.30.486,Hippopolis_Learning,2022.2.2,59.990197607384104,
Hippopolis,stimuli/subj_files/student1_cityA.csv,./stimuli/frankfurt.jpg,./stimuli/street_plate1.png,SIVATAG UTCA,stimuli/scenes/016a.jpg,scene,2,stimuli/objects/046a.jpg,stimuli/objects/046b.jpg,stimuli/objects/006a.jpg,stimuli/objects/006b.jpg,stimuli/objects/046a.jpg,lure,dist1,dist2,target,0,0,0,0,,,,,0,45,45,23,,,,,,,666.3173854999768,,,,,,667.3178266999894,,,,,,,,662.3183790999756,662.3183790999756,662.3183790999756,662.3183790999756,662.3183790999756,662.3183790999756,None,None,,666.3173854999768,666.3173854999768,666.3173854999768,666.3173854999768,666.3173854999768,666.3173854999768,,,,,,,,,,,,,,,,,,student1,2022-10-20_15h10.30.486,Hippopolis_Learning,2022.2.2,59.990197607384104,
Hippopolis,stimuli/subj_files/student1_cityA.csv,./stimuli/frankfurt.jpg,./stimuli/street_plate1.png,HEGEDŰ UTCA,stimuli/scenes/113a.jpg,scene,2,stimuli/objects/036a.jpg,stimuli/objects/036b.jpg,stimuli/scenes/059b.jpg,stimuli/scenes/059a.jpg,stimuli/objects/036a.jpg,lure,dist2,dist1,target,0,0,0,0,,,,,0,46,46,69,,,,,,,671.3181440999906,,,,,,672.3176323999942,,,,,,,,667.3178266999894,667.3178266999894,667.3178266999894,667.3178266999894,667.3178266999894,667.3178266999894,None,None,,671.3181440999906,671.3181440999906,671.3181440999906,671.3181440999906,671.3181440999906,671.3181440999906,,,,,,,,,,,,,,,,,,student1,2022-10-20_15h10.30.486,Hippopolis_Learning,2022.2.2,59.990197607384104,
Hippopolis,stimuli/subj_files/student1_cityA.csv,./stimuli/frankfurt.jpg,./stimuli/street_plate1.png,KOCKA UTCA,stimuli/objects/062a.jpg,object,0,stimuli/objects/062a.jpg,stimuli/scenes/095b.jpg,stimuli/objects/062a.jpg,stimuli/objects/062b.jpg,stimuli/scenes/095a.jpg,dist2,target,lure,dist1,0,0,0,0,,,,,0,47,47,35,,,,,,,686.3837764999771,,,,,,687.3875206999946,,,,,,,,672.3176323999942,672.3176323999942,672.3176323999942,672.3176323999942,672.3176323999942,672.3176323999942,right,space,1.7773857000283897,,,,,,,674.1198770999908,674.1198770999908,674.1198770999908,674.1198770999908,674.1198770999908,12.24691750004422,,,,,,,,,,,,student1,2022-10-20_15h10.30.486,Hippopolis_Learning,2022.2.2,59.990197607384104,
Hippopolis,stimuli/subj_files/student1_cityA.csv,./stimuli/frankfurt.jpg,./stimuli/street_plate1.png,KORONA UTCA,stimuli/scenes/108a.jpg,scene,1,stimuli/scenes/011a.jpg,stimuli/objects/076a.jpg,stimuli/scenes/011b.jpg,stimuli/objects/076b.jpg,stimuli/scenes/011a.jpg,dist1,lure,dist2,target,0,0,0,0,,,,,0,48,48,9,,,,,,,689.3695917999721,,,,,,,,,,,,,,687.3875206999946,687.3875206999946,687.3875206999946,687.3875206999946,687.3875206999946,687.3875206999946,right,None,1.963169100054074,,,,,,,,,,,,,,,,,,,,,,,,student1,2022-10-20_15h10.30.486,Hippopolis_Learning,2022.2.2,59.990197607384104,
Hippopolis,stimuli/subj_files/student1_cityA.csv,./stimuli/frankfurt.jpg,./stimuli/street_plate1.png,MUNKA UTCA,stimuli/scenes/039a.jpg,scene,2,stimuli/objects/067a.jpg,stimuli/scenes/097a.jpg,stimuli/objects/067b.jpg,stimuli/objects/067a.jpg,stimuli/scenes/097b.jpg,dist1,lure,target,dist2,0,0,0,0,,,,,0,49,49,4,,,,,,,692.1172437999921,,,,,,693.1173916999833,,,,,,,,690.3844499999832,690.3844499999832,690.3844499999832,690.3844499999832,690.3844499999832,690.3844499999832,left,None,1.7038348000205588,,,,,,,,,,,,,,,,,,,,,,,,student1,2022-10-20_15h10.30.486,Hippopolis_Learning,2022.2.2,59.990197607384104,
Hippopolis,stimuli/subj_files/student1_cityA.csv,./stimuli/frankfurt.jpg,./stimuli/street_plate1.png,AJÁNDÉK UTCA,stimuli/scenes/005a.jpg,scene,1,stimuli/scenes/009a.jpg,stimuli/scenes/078b.jpg,stimuli/scenes/078a.jpg,stimuli/scenes/009a.jpg,stimuli/scenes/009b.jpg,dist2,dist1,target,lure,0,0,0,0,,,,,0,50,50,28,,,,,,,694.9505768999807,,,,,,695.9509378999937,,,,,,,,693.1173916999833,693.1173916999833,693.1173916999833,693.1173916999833,693.1173916999833,693.1173916999833,left,None,1.8099377000180539,,,,,,,,,,,,,,,,,,,,,,,,student1,2022-10-20_15h10.30.486,Hippopolis_Learning,2022.2.2,59.990197607384104,
Hippopolis,stimuli/subj_files/student1_cityA.csv,./stimuli/frankfurt.jpg,./stimuli/street_plate1.png,CITROM UTCA,stimuli/scenes/036a.jpg,scene,2,stimuli/objects/043a.jpg,stimuli/objects/043b.jpg,stimuli/objects/067a.jpg,stimuli/objects/043a.jpg,stimuli/objects/067b.jpg,lure,dist1,target,dist2,0,0,0,0,,,,,0,51,51,26,,,,,,,698.685287899978,,,,,,,,,,,,,,695.9509378999937,695.9509378999937,695.9509378999937,695.9509378999937,695.9509378999937,695.9509378999937,left,None,2.7163948000234086,,,,,,,,,,,,,,,,,,,,,,,,student1,2022-10-20_15h10.30.486,Hippopolis_Learning,2022.2.2,59.990197607384104,
Hippopolis,stimuli/subj_files/student1_cityA.csv,./stimuli/frankfurt.jpg,./stimuli/street_plate1.png,AKÁC UTCA,stimuli/scenes/081a.jpg,scene,2,stimuli/objects/055a.jpg,stimuli/objects/055b.jpg,stimuli/objects/107b.jpg,stimuli/objects/107a.jpg,stimuli/objects/055a.jpg,lure,dist2,dist1,target,0,0,0,0,,,,,0,52,52,74,,,,,,,702.767984199978,,,,,,703.7673271999811,,,,,,,,699.7006503999874,699.7006503999874,699.7006503999874,699.7006503999874,699.7006503999874,699.7006503999874,left,None,3.050691300042672,,,,,,,,,,,,,,,,,,,,,,,,student1,2022-10-20_15h10.30.486,Hippopolis_Learning,2022.2.2,59.990197607384104,
Hippopolis,stimuli/subj_files/student1_cityA.csv,./stimuli/frankfurt.jpg,./stimuli/street_plate1.png,KERET UTCA,stimuli/scenes/027a.jpg,scene,0,stimuli/scenes/027a.jpg,stimuli/objects/100a.jpg,stimuli/objects/100b.jpg,stimuli/scenes/027a.jpg,stimuli/scenes/027b.jpg,dist1,dist2,target,lure,0,0,0,0,,,,,0,53,53,3,,,,,,,704.9865187999967,,,,,,,,,,,,,,703.7673271999811,703.7673271999811,703.7673271999811,703.7673271999811,703.7673271999811,703.7673271999811,right,None,1.1926646000356413,,,,,,,,,,,,,,,,,,,,,,,,student1,2022-10-20_15h10.30.486,Hippopolis_Learning,2022.2.2,59.990197607384104,
Hippopolis,stimuli/subj_files/student1_cityA.csv,./stimuli/frankfurt.jpg,./stimuli/street_plate1.png,PAPAGÁJ UTCA,stimuli/objects/093a.jpg,object,2,stimuli/scenes/097a.jpg,stimuli/scenes/097a.jpg,stimuli/scenes/109b.jpg,stimuli/scenes/109a.jpg,stimuli/scenes/097b.jpg,target,dist2,dist1,lure,0,0,0,0,,,,,0,54,54,55,,,,,,,708.4181444999995,,,,,,,,,,,,,,706.000839699991,706.000839699991,706.000839699991,706.000839699991,706.000839699991,706.000839699991,right,None,2.387927200034028,,,,,,,,,,,,,,,,,,,,,,,,student1,2022-10-20_15h10.30.486,Hippopolis_Learning,2022.2.2,59.990197607384104,
Hippopolis,stimuli/subj_files/student1_cityA.csv,./stimuli/frankfurt.jpg,./stimuli/street_plate1.png,MOTOR UTCA,stimuli/objects/097a.jpg,object,1,stimuli/objects/071a.jpg,stimuli/objects/015b.jpg,stimuli/objects/071b.jpg,stimuli/objects/071a.jpg,stimuli/objects/015a.jpg,dist2,lure,target,dist1,0,0,0,0,,,,,0,55,55,36,,,,,,,710.9548868999991,,,,,,,,,,,,,,709.4338683999958,709.4338683999958,709.4338683999958,709.4338683999958,709.4338683999958,709.4338683999958,right,None,1.4901669000391848,,,,,,,,,,,,,,,,,,,,,,,,student1,2022-10-20_15h10.30.486,Hippopolis_Learning,2022.2.2,59.990197607384104,
Hippopolis,stimuli/subj_files/student1_cityA.csv,./stimuli/frankfurt.jpg,./stimuli/street_plate1.png,DOMINÓ UTCA,stimuli/scenes/042a.jpg,scene,0,stimuli/scenes/042a.jpg,stimuli/scenes/042a.jpg,stimuli/scenes/042b.jpg,stimuli/objects/070a.jpg,stimuli/objects/070b.jpg,target,lure,dist1,dist2,0,0,0,0,,,,,0,56,56,63,,,,,,,713.2171742999926,,,,,,714.217082099989,,,,,,,,711.9671724999789,711.9671724999789,711.9671724999789,711.9671724999789,711.9671724999789,711.9671724999789,left,None,1.2256498000351712,,,,,,,,,,,,,,,,,,,,,,,,student1,2022-10-20_15h10.30.486,Hippopolis_Learning,2022.2.2,59.990197607384104,
Hippopolis,stimuli/subj_files/student1_cityA.csv,./stimuli/frankfurt.jpg,./stimuli/street_plate1.png,PIZSAMA UTCA,stimuli/scenes/060a.jpg,scene,2,stimuli/objects/006a.jpg,stimuli/scenes/007b.jpg,stimuli/scenes/007a.jpg,stimuli/objects/006b.jpg,stimuli/objects/006a.jpg,dist2,dist1,lure,target,0,0,0,0,,,,,0,57,57,79,,,,,,,715.9336694999947,,,,,,716.933985199983,,,,,,,,714.217082099989,714.217082099989,714.217082099989,714.217082099989,714.217082099989,714.217082099989,left,None,1.6881727000290994,,,,,,,,,,,,,,,,,,,,,,,,student1,2022-10-20_15h10.30.486,Hippopolis_Learning,2022.2.2,59.990197607384104,
Hippopolis,stimuli/subj_files/student1_cityA.csv,./stimuli/frankfurt.jpg,./stimuli/street_plate1.png,LÉTRA UTCA,stimuli/objects/047a.jpg,object,1,stimuli/objects/015a.jpg,stimuli/objects/108b.jpg,stimuli/objects/015b.jpg,stimuli/objects/108a.jpg,stimuli/objects/015a.jpg,dist2,lure,dist1,target,0,0,0,0,,,,,0,58,58,33,,,,,,,719.1331269999791,,,,,,720.133566799981,,,,,,,,716.933985199983,716.933985199983,716.933985199983,716.933985199983,716.933985199983,716.933985199983,left,None,2.1827272000082303,,,,,,,,,,,,,,,,,,,,,,,,student1,2022-10-20_15h10.30.486,Hippopolis_Learning,2022.2.2,59.990197607384104,
Hippopolis,stimuli/subj_files/student1_cityA.csv,./stimuli/frankfurt.jpg,./stimuli/street_plate1.png,KOKTÉL UTCA,stimuli/scenes/008a.jpg,scene,2,stimuli/objects/012a.jpg,stimuli/objects/036b.jpg,stimuli/objects/012b.jpg,stimuli/objects/036a.jpg,stimuli/objects/012a.jpg,dist2,lure,dist1,target,0,0,0,0,,,,,0,59,59,46,,,,,,,724.1333701999974,,,,,,725.1335906999884,,,,,,,,720.133566799981,720.133566799981,720.133566799981,720.133566799981,720.133566799981,720.133566799981,None,None,,724.1333701999974,724.1333701999974,724.1333701999974,724.1333701999974,724.1333701999974,724.1333701999974,,,,,,,,,,,,,,,,,,student1,2022-10-20_15h10.30.486,Hippopolis_Learning,2022.2.2,59.990197607384104,
Hippopolis,stimuli/subj_files/student1_cityA.csv,./stimuli/frankfurt.jpg,./stimuli/street_plate1.png,CUKOR UTCA,stimuli/objects/111a.jpg,object,0,stimuli/objects/111a.jpg,stimuli/objects/089b.jpg,stimuli/objects/111b.jpg,stimuli/objects/111a.jpg,stimuli/objects/089a.jpg,dist2,lure,target,dist1,0,0,0,0,,,,,0,60,60,30,,,,,,,726.3497556999791,,,,,,727.3510188999935,,,,,,,,725.1335906999884,725.1335906999884,725.1335906999884,725.1335906999884,725.1335906999884,725.1335906999884,left,None,1.1926313000149094,,,,,,,,,,,,,,,,,,,,,,,,student1,2022-10-20_15h10.30.486,Hippopolis_Learning,2022.2.2,59.990197607384104,
Hippopolis,stimuli/subj_files/student1_cityA.csv,./stimuli/frankfurt.jpg,./stimuli/street_plate1.png,KORONG UTCA,stimuli/scenes/065a.jpg,scene,1,stimuli/scenes/004a.jpg,stimuli/scenes/004a.jpg,stimuli/scenes/011b.jpg,stimuli/scenes/011a.jpg,stimuli/scenes/004b.jpg,target,dist2,dist1,lure,0,0,0,0,,,,,0,61,61,53,,,,,,,729.6331739999878,,,,,,730.6335158000002,,,,,,,,727.3510188999935,727.3510188999935,727.3510188999935,727.3510188999935,727.3510188999935,727.3510188999935,left,None,2.258150200039381,,,,,,,,,,,,,,,,,,,,,,,,student1,2022-10-20_15h10.30.486,Hippopolis_Learning,2022.2.2,59.990197607384104,
Hippopolis,stimuli/subj_files/student1_cityA.csv,./stimuli/frankfurt.jpg,./stimuli/street_plate1.png,KARTON UTCA,stimuli/objects/101a.jpg,object,2,stimuli/scenes/044a.jpg,stimuli/scenes/074a.jpg,stimuli/scenes/044b.jpg,stimuli/scenes/044a.jpg,stimuli/scenes/074b.jpg,dist1,lure,target,dist2,0,0,0,0,,,,,0,62,62,8,,,,,,,731.8335292999982,,,,,,732.8334879999747,,,,,,,,730.6335158000002,730.6335158000002,730.6335158000002,730.6335158000002,730.6335158000002,730.6335158000002,left,None,1.1831028000160586,,,,,,,,,,,,,,,,,,,,,,,,student1,2022-10-20_15h10.30.486,Hippopolis_Learning,2022.2.2,59.990197607384104,
Hippopolis,stimuli/subj_files/student1_cityA.csv,./stimuli/frankfurt.jpg,./stimuli/street_plate1.png,MÁLNA UTCA,stimuli/objects/069a.jpg,object,2,stimuli/scenes/053a.jpg,stimuli/objects/073a.jpg,stimuli/objects/073b.jpg,stimuli/scenes/053b.jpg,stimuli/scenes/053a.jpg,dist1,dist2,lure,target,0,0,0,0,,,,,0,63,63,14,,,,,,,735.7170067999978,,,,,,736.7165768999839,,,,,,,,732.8334879999747,732.8334879999747,732.8334879999747,732.8334879999747,732.8334879999747,732.8334879999747,left,None,2.8568922000122257,,,,,,,,,,,,,,,,,,,,,,,,student1,2022-10-20_15h10.30.486,Hippopolis_Learning,2022.2.2,59.990197607384104,
Hippopolis,stimuli/subj_files/student1_cityA.csv,./stimuli/frankfurt.jpg,./stimuli/street_plate1.png,NARANCS UTCA,stimuli/objects/017a.jpg,object,1,stimuli/objects/075a.jpg,stimuli/objects/075a.jpg,stimuli/scenes/041b.jpg,stimuli/scenes/041a.jpg,stimuli/objects/075b.jpg,target,dist2,dist1,lure,0,0,0,0,,,,,0,64,64,76,,,,,,,738.8362398999743,,,,,,,,,,,,,,736.7165768999839,736.7165768999839,736.7165768999839,736.7165768999839,736.7165768999839,736.7165768999839,left,None,2.0881877000210807,,,,,,,,,,,,,,,,,,,,,,,,student1,2022-10-20_15h10.30.486,Hippopolis_Learning,2022.2.2,59.990197607384104,
Hippopolis,stimuli/subj_files/student1_cityA.csv,./stimuli/frankfurt.jpg,./stimuli/street_plate1.png,KÖTÉL UTCA,stimuli/objects/051a.jpg,object,0,stimuli/objects/051a.jpg,stimuli/scenes/024b.jpg,stimuli/objects/051b.jpg,stimuli/scenes/024a.jpg,stimuli/objects/051a.jpg,dist2,lure,dist1,target,0,0,0,0,,,,,0,65,65,7,,,,,,,741.9493920999812,,,,,,742.9500165999925,,,,,,,,739.8501101000002,739.8501101000002,739.8501101000002,739.8501101000002,739.8501101000002,739.8501101000002,left,None,2.081217600032687,,,,,,,,,,,,,,,,,,,,,,,,student1,2022-10-20_15h10.30.486,Hippopolis_Learning,2022.2.2,59.990197607384104,
Hippopolis,stimuli/subj_files/student1_cityA.csv,./stimuli/frankfurt.jpg,./stimuli/street_plate1.png,PULÓVER UTCA,stimuli/objects/114a.jpg,object,0,stimuli/objects/114a.jpg,stimuli/scenes/050b.jpg,stimuli/scenes/050a.jpg,stimuli/objects/114b.jpg,stimuli/objects/114a.jpg,dist2,dist1,lure,target,0,0,0,0,,,,,0,66,66,43,,,,,,,744.6327156999905,,,,,,745.6330060999899,,,,,,,,742.9500165999925,742.9500165999925,742.9500165999925,742.9500165999925,742.9500165999925,742.9500165999925,left,None,1.6591200000257231,,,,,,,,,,,,,,,,,,,,,,,,student1,2022-10-20_15h10.30.486,Hippopolis_Learning,2022.2.2,59.990197607384104,
Hippopolis,stimuli/subj_files/student1_cityA.csv,./stimuli/frankfurt.jpg,./stimuli/street_plate1.png,OLDAL UTCA,stimuli/scenes/093a.jpg,scene,2,stimuli/objects/107a.jpg,stimuli/objects/107b.jpg,stimuli/objects/022a.jpg,stimuli/objects/107a.jpg,stimuli/objects/022b.jpg,lure,dist1,target,dist2,0,0,0,0,,,,,0,67,67,11,,,,,,,747.9673692999932,,,,,,,,,,,,,,745.6330060999899,745.6330060999899,745.6330060999899,745.6330060999899,745.6330060999899,745.6330060999899,right,None,2.316732800041791,,,,,,,,,,,,,,,,,,,,,,,,student1,2022-10-20_15h10.30.486,Hippopolis_Learning,2022.2.2,59.990197607384104,
Hippopolis,stimuli/subj_files/student1_cityA.csv,./stimuli/frankfurt.jpg,./stimuli/street_plate1.png,MOCSÁR UTCA,stimuli/objects/080a.jpg,object,0,stimuli/objects/080a.jpg,stimuli/objects/080b.jpg,stimuli/objects/080a.jpg,stimuli/scenes/043b.jpg,stimuli/scenes/043a.jpg,lure,target,dist2,dist1,0,0,0,0,,,,,0,68,68,17,,,,,,,751.0829781999928,,,,,,752.0829505999864,,,,,,,,748.9831034999806,748.9831034999806,748.9831034999806,748.9831034999806,748.9831034999806,748.9831034999806,left,None,2.078672700037714,,,,,,,,,,,,,,,,,,,,,,,,student1,2022-10-20_15h10.30.486,Hippopolis_Learning,2022.2.2,59.990197607384104,
Hippopolis,stimuli/subj_files/student1_cityA.csv,./stimuli/frankfurt.jpg,./stimuli/street_plate1.png,LIGET UTCA,stimuli/objects/038a.jpg,object,2,stimuli/scenes/109a.jpg,stimuli/scenes/109a.jpg,stimuli/objects/055a.jpg,stimuli/scenes/109b.jpg,stimuli/objects/055b.jpg,target,dist1,lure,dist2,0,0,0,0,,,,,0,69,69,62,,,,,,,753.0357895999914,,,,,,,,,,,,,,752.0829505999864,752.0829505999864,752.0829505999864,752.0829505999864,752.0829505999864,752.0829505999864,right,None,0.9291302000056021,,,,,,,,,,,,,,,,,,,,,,,,student1,2022-10-20_15h10.30.486,Hippopolis_Learning,2022.2.2,59.990197607384104,
Hippopolis,stimuli/subj_files/student1_cityA.csv,./stimuli/frankfurt.jpg,./stimuli/street_plate1.png,SZIKLA UTCA,stimuli/scenes/111a.jpg,scene,2,stimuli/objects/073a.jpg,stimuli/objects/120b.jpg,stimuli/objects/120a.jpg,stimuli/objects/073a.jpg,stimuli/objects/073b.jpg,dist2,dist1,target,lure,0,0,0,0,,,,,0,70,70,1,,,,,,,757.3827526999812,,,,,,758.3829273999727,,,,,,,,754.0497281999851,754.0497281999851,754.0497281999851,754.0497281999851,754.0497281999851,754.0497281999851,left,None,3.3030948000377975,,,,,,,,,,,,,,,,,,,,,,,,student1,2022-10-20_15h10.30.486,Hippopolis_Learning,2022.2.2,59.990197607384104,
Hippopolis,stimuli/subj_files/student1_cityA.csv,./stimuli/frankfurt.jpg,./stimuli/street_plate1.png,KECSKE UTCA,stimuli/scenes/085a.jpg,scene,2,stimuli/objects/022a.jpg,stimuli/objects/022b.jpg,stimuli/objects/022a.jpg,stimuli/scenes/053a.jpg,stimuli/scenes/053b.jpg,lure,target,dist1,dist2,0,0,0,0,,,,,0,71,71,6,,,,,,,760.1662908999715,,,,,,761.1673966999806,,,,,,,,758.3829273999727,758.3829273999727,758.3829273999727,758.3829273999727,758.3829273999727,758.3829273999727,left,None,1.7631236000161152,,,,,,,,,,,,,,,,,,,,,,,,student1,2022-10-20_15h10.30.486,Hippopolis_Learning,2022.2.2,59.990197607384104,
Hippopolis,stimuli/subj_files/student1_cityA.csv,./stimuli/frankfurt.jpg,./stimuli/street_plate1.png,PÁLMAFA UTCA,stimuli/objects/090a.jpg,object,1,stimuli/objects/007a.jpg,stimuli/objects/053a.jpg,stimuli/objects/007a.jpg,stimuli/objects/053b.jpg,stimuli/objects/007b.jpg,dist1,target,dist2,lure,0,0,0,0,,,,,0,72,72,12,,,,,,,763.3491431000002,,,,,,764.3499878999719,,,,,,,,761.1673966999806,761.1673966999806,761.1673966999806,761.1673966999806,761.1673966999806,761.1673966999806,left,None,2.1504525000345893,,,,,,,,,,,,,,,,,,,,,,,,student1,2022-10-20_15h10.30.486,Hippopolis_Learning,2022.2.2,59.990197607384104,
Hippopolis,stimuli/subj_files/student1_cityA.csv,./stimuli/frankfurt.jpg,./stimuli/street_plate1.png,KIRAKÓ UTCA,stimuli/objects/079a.jpg,object,2,stimuli/scenes/070a.jpg,stimuli/scenes/070a.jpg,stimuli/scenes/070b.jpg,stimuli/objects/043b.jpg,stimuli/objects/043a.jpg,target,lure,dist2,dist1,0,0,0,0,,,,,0,73,73,57,,,,,,,766.2830493999936,,,,,,767.2828445999767,,,,,,,,764.3499878999719,764.3499878999719,764.3499878999719,764.3499878999719,764.3499878999719,764.3499878999719,left,None,1.9164912000123877,,,,,,,,,,,,,,,,,,,,,,,,student1,2022-10-20_15h10.30.486,Hippopolis_Learning,2022.2.2,59.990197607384104,
Hippopolis,stimuli/subj_files/student1_cityA.csv,./stimuli/frankfurt.jpg,./stimuli/street_plate1.png,LÁNDZSA UTCA,stimuli/scenes/090a.jpg,scene,0,stimuli/scenes/090a.jpg,stimuli/scenes/090a.jpg,stimuli/objects/091b.jpg,stimuli/scenes/090b.jpg,stimuli/objects/091a.jpg,target,dist2,lure,dist1,0,0,0,0,,,,,0,74,74,39,,,,,,,770.1989546999976,,,,,,771.1995643999835,,,,,,,,767.2828445999767,767.2828445999767,767.2828445999767,767.2828445999767,767.2828445999767,767.2828445999767,left,None,2.8971665000135545,,,,,,,,,,,,,,,,,,,,,,,,student1,2022-10-20_15h10.30.486,Hippopolis_Learning,2022.2.2,59.990197607384104,
Hippopolis,stimuli/subj_files/student1_cityA.csv,./stimuli/frankfurt.jpg,./stimuli/street_plate1.png,RÁDIÓ UTCA,stimuli/scenes/068a.jpg,scene,1,stimuli/scenes/067a.jpg,stimuli/scenes/018b.jpg,stimuli/scenes/067a.jpg,stimuli/scenes/067b.jpg,stimuli/scenes/018a.jpg,dist2,target,lure,dist1,0,0,0,0,,,,,0,75,75,44,,,,,,,774.3490748999757,,,,,,775.3492448999896,,,,,,,,771.1995643999835,771.1995643999835,771.1995643999835,771.1995643999835,771.1995643999835,771.1995643999835,left,None,3.125272000033874,,,,,,,,,,,,,,,,,,,,,,,,student1,2022-10-20_15h10.30.486,Hippopolis_Learning,2022.2.2,59.990197607384104,
Hippopolis,stimuli/subj_files/student1_cityA.csv,./stimuli/frankfurt.jpg,./stimuli/street_plate1.png,CSILLAG UTCA,stimuli/scenes/083a.jpg,scene,1,stimuli/scenes/117a.jpg,stimuli/scenes/117a.jpg,stimuli/scenes/117b.jpg,stimuli/objects/041a.jpg,stimuli/objects/041b.jpg,target,lure,dist1,dist2,0,0,0,0,,,,,0,76,76,15,,,,,,,777.4990009999892,,,,,,778.4996951999783,,,,,,,,775.3492448999896,775.3492448999896,775.3492448999896,775.3492448999896,775.3492448999896,775.3492448999896,left,None,2.125616200035438,,,,,,,,,,,,,,,,,,,,,,,,student1,2022-10-20_15h10.30.486,Hippopolis_Learning,2022.2.2,59.990197607384104,
Hippopolis,stimuli/subj_files/student1_cityA.csv,./stimuli/frankfurt.jpg,./stimuli/street_plate1.png,KÖTÉNY UTCA,stimuli/scenes/031a.jpg,scene,1,stimuli/scenes/064a.jpg,stimuli/objects/103a.jpg,stimuli/objects/103b.jpg,stimuli/scenes/064b.jpg,stimuli/scenes/064a.jpg,dist1,dist2,lure,target,0,0,0,0,,,,,0,77,77,22,,,,,,,780.4154272999731,,,,,,781.4159264999907,,,,,,,,778.4996951999783,778.4996951999783,778.4996951999783,778.4996951999783,778.4996951999783,778.4996951999783,left,None,1.8843391000118572,,,,,,,,,,,,,,,,,,,,,,,,student1,2022-10-20_15h10.30.486,Hippopolis_Learning,2022.2.2,59.990197607384104,
Hippopolis,stimuli/subj_files/student1_cityA.csv,./stimuli/frankfurt.jpg,./stimuli/street_plate1.png,ÁRNYÉK UTCA,stimuli/objects/020a.jpg,object,1,stimuli/objects/027a.jpg,stimuli/scenes/004a.jpg,stimuli/objects/027b.jpg,stimuli/objects/027a.jpg,stimuli/scenes/004b.jpg,dist1,lure,target,dist2,0,0,0,0,,,,,0,78,78,52,,,,,,,783.1153950999724,,,,,,784.1162611999898,,,,,,,,781.4159264999907,781.4159264999907,781.4159264999907,781.4159264999907,781.4159264999907,781.4159264999907,left,None,1.6671292000100948,,,,,,,,,,,,,,,,,,,,,,,,student1,2022-10-20_15h10.30.486,Hippopolis_Learning,2022.2.2,59.990197607384104,
Hippopolis,stimuli/subj_files/student1_cityA.csv,./stimuli/frankfurt.jpg,./stimuli/street_plate1.png,HÁRFA UTCA,stimuli/objects/083a.jpg,object,2,stimuli/scenes/028a.jpg,stimuli/scenes/028b.jpg,stimuli/objects/012b.jpg,stimuli/objects/012a.jpg,stimuli/scenes/028a.jpg,lure,dist2,dist1,target,0,0,0,0,,,,,0,79,79,16,,,,,,,788.1157091999776,,,,,,789.1155602999788,,,,,,,,784.1162611999898,784.1162611999898,784.1162611999898,784.1162611999898,784.1162611999898,784.1162611999898,None,None,,788.1157091999776,788.1157091999776,788.1157091999776,788.1157091999776,788.1157091999776,788.1157091999776,,,,,,,,,,,,,,,,,,student1,2022-10-20_15h10.30.486,Hippopolis_Learning,2022.2.2,59.990197607384104,
Camponello,stimuli/subj_files/student1_cityB.csv,./stimuli/leipzig.jpg,./stimuli/street_plate2.png,KÁRTYA UTCA,stimuli/scenes/076a.jpg,scene,0,stimuli/scenes/076a.jpg,stimuli/objects/008a.jpg,stimuli/scenes/076b.jpg,stimuli/scenes/076a.jpg,stimuli/objects/008b.jpg,dist1,lure,target,dist2,0,1,1,1,0,0,0,64,,,,,,,,,804.8242985999968,804.8242985999968,807.8193037999736,808.8232747000002,808.8232747000002,808.8232747000002,808.8232747000002,None,,,,,,,,,,,,,,,,,,,,,,,,,,,,,,21,789.1155602999788,789.1155602999788,space,15.634581000020262,,,,,,,student1,2022-10-20_15h10.30.486,Hippopolis_Learning,2022.2.2,59.990197607384104,
Camponello,stimuli/subj_files/student1_cityB.csv,./stimuli/leipzig.jpg,./stimuli/street_plate2.png,FOLYÓ UTCA,stimuli/scenes/035a.jpg,scene,0,stimuli/scenes/035a.jpg,stimuli/objects/034a.jpg,stimuli/scenes/035a.jpg,stimuli/objects/034b.jpg,stimuli/scenes/035b.jpg,dist1,target,dist2,lure,0,1,1,1,0,1,1,61,,,,,,,,,,,811.7985210999905,812.8124511999777,812.8124511999777,812.8124511999777,812.8124511999777,None,812.8124511999777,,,,,,,,,,,,,,,,,,,,,,,,,,,,,,,,,,,,,,,,student1,2022-10-20_15h10.30.486,Hippopolis_Learning,2022.2.2,59.990197607384104,
Camponello,stimuli/subj_files/student1_cityB.csv,./stimuli/leipzig.jpg,./stimuli/street_plate2.png,SZAXOFON UTCA,stimuli/objects/117a.jpg,object,0,stimuli/objects/117a.jpg,stimuli/scenes/021a.jpg,stimuli/objects/117a.jpg,stimuli/objects/117b.jpg,stimuli/scenes/021b.jpg,dist1,target,lure,dist2,0,1,1,1,0,2,2,20,,,,,,,,,,,815.8150685999717,816.8397610999818,816.8397610999818,816.8397610999818,816.8397610999818,None,816.8397610999818,,,,,,,,,,,,,,,,,,,,,,,,,,,,,,,,,,,,,,,,student1,2022-10-20_15h10.30.486,Hippopolis_Learning,2022.2.2,59.990197607384104,
Camponello,stimuli/subj_files/student1_cityB.csv,./stimuli/leipzig.jpg,./stimuli/street_plate2.png,MANDARIN UTCA,stimuli/scenes/075a.jpg,scene,0,stimuli/scenes/075a.jpg,stimuli/objects/072a.jpg,stimuli/objects/072b.jpg,stimuli/scenes/075b.jpg,stimuli/scenes/075a.jpg,dist1,dist2,lure,target,0,1,1,1,0,3,3,37,,,,,,,,,,,819.8316012999858,820.8422722999821,820.8422722999821,820.8422722999821,820.8422722999821,None,820.8422722999821,,,,,,,,,,,,,,,,,,,,,,,,,,,,,,,,,,,,,,,,student1,2022-10-20_15h10.30.486,Hippopolis_Learning,2022.2.2,59.990197607384104,
Camponello,stimuli/subj_files/student1_cityB.csv,./stimuli/leipzig.jpg,./stimuli/street_plate2.png,HARCSA UTCA,stimuli/scenes/080a.jpg,scene,2,stimuli/objects/029a.jpg,stimuli/scenes/054b.jpg,stimuli/scenes/054a.jpg,stimuli/objects/029b.jpg,stimuli/objects/029a.jpg,dist2,dist1,lure,target,0,1,1,1,0,4,4,59,,,,,,,,,,,823.8482668999932,824.8586664999893,824.8586664999893,824.8586664999893,824.8586664999893,None,824.8586664999893,,,,,,,,,,,,,,,,,,,,,,,,,,,,,,,,,,,,,,,,student1,2022-10-20_15h10.30.486,Hippopolis_Learning,2022.2.2,59.990197607384104,
Camponello,stimuli/subj_files/student1_cityB.csv,./stimuli/leipzig.jpg,./stimuli/street_plate2.png,SZILVA UTCA,stimuli/objects/105a.jpg,object,0,stimuli/objects/105a.jpg,stimuli/objects/049b.jpg,stimuli/objects/105b.jpg,stimuli/objects/049a.jpg,stimuli/objects/105a.jpg,dist2,lure,dist1,target,0,1,1,1,0,5,5,36,,,,,,,,,,,827.8648667999951,828.8798624999763,828.8798624999763,828.8798624999763,828.8798624999763,None,828.8798624999763,,,,,,,,,,,,,,,,,,,,,,,,,,,,,,,,,,,,,,,,student1,2022-10-20_15h10.30.486,Hippopolis_Learning,2022.2.2,59.990197607384104,
Camponello,stimuli/subj_files/student1_cityB.csv,./stimuli/leipzig.jpg,./stimuli/street_plate2.png,ÁLLOMÁS UTCA,stimuli/scenes/069a.jpg,scene,0,stimuli/scenes/069a.jpg,stimuli/scenes/106a.jpg,stimuli/scenes/106b.jpg,stimuli/scenes/069b.jpg,stimuli/scenes/069a.jpg,dist1,dist2,lure,target,0,1,1,1,0,6,6,42,,,,,,,,,,,831.8813599999994,832.8971851999813,832.8971851999813,832.8971851999813,832.8971851999813,None,832.8971851999813,,,,,,,,,,,,,,,,,,,,,,,,,,,,,,,,,,,,,,,,student1,2022-10-20_15h10.30.486,Hippopolis_Learning,2022.2.2,59.990197607384104,
