CityName,StimuliFile,CityImage,StreetSign,Cue,Image,Category,Novelty,UpdateImage,TestImage1,TestImage2,TestImage3,TestImage4,TestImage1Type,TestImage2Type,TestImage3Type,TestImage4Type,CityBlock.thisRepN,CityBlock.thisTrialN,CityBlock.thisN,CityBlock.thisIndex,LearningTrials.thisRepN,LearningTrials.thisTrialN,LearningTrials.thisN,LearningTrials.thisIndex,trials.thisRepN,trials.thisTrialN,trials.thisN,trials.thisIndex,learning_instructions_text.started,intro_key.started,intro_key.keys,intro_key.rt,cityname_text.started,city_image.started,fx_cross.started,plate.started,city_text.started,street_text.started,learning_image.started,short_break_key.keys,fx_cross.stopped,plate.stopped,city_text.stopped,street_text.stopped,learning_image.stopped,short_break_text.started,short_break_key.started,short_break_key.rt,test_text.started,key_resp.started,key_resp.keys,key_resp.rt,plate_test.started,city_text_test.started,street_text_test.started,test_question.started,test_key_resp.started,button_image.started,test_key_resp.keys,verbal_test_key_resp.keys,test_key_resp.rt,plate_verbal.started,street_text_verbal.started,city_text_verbal.started,question_verbal.started,verbal_test_key_resp.started,verbal_test_key_resp.rt,plate_test.stopped,city_text_test.stopped,street_text_test.stopped,test_question.stopped,test_key_resp.stopped,button_image.stopped,n_remembered,break_text.started,break_key_resp.started,break_key_resp.keys,break_key_resp.rt,end_text.started,end_text.stopped,participant,date,expName,psychopyVersion,frameRate,
,,,,,,,,,,,,,,,,,,,,,,,,,,,,,356.5187384999881,356.5187384999881,space,45.11853100001463,,,,,,,,,,,,,,,,,,,,,,,,,,,,,,,,,,,,,,,,,,,,,,,,,student1,2022-10-21_12h11.50.023,Hippopolis_Learning,2022.2.2,59.794879645729225,
Hippopolis,stimuli/subj_files/student1_cityA.csv,./stimuli/frankfurt.jpg,./stimuli/street_plate1.png,KÖTÉL UTCA,stimuli/objects/051a.jpg,object,0,stimuli/objects/051a.jpg,stimuli/scenes/024b.jpg,stimuli/objects/051b.jpg,stimuli/scenes/024a.jpg,stimuli/objects/051a.jpg,dist2,lure,dist1,target,0,0,0,0,0,0,0,7,,,,,,,,,401.7946501999977,401.7946501999977,404.70553030000883,405.7154028000077,405.7154028000077,405.7154028000077,405.7154028000077,None,,,,,,,,,,,,,,,,,,,,,,,,,,,,,,,,,,,,,,,,,student1,2022-10-21_12h11.50.023,Hippopolis_Learning,2022.2.2,59.794879645729225,
Hippopolis,stimuli/subj_files/student1_cityA.csv,./stimuli/frankfurt.jpg,./stimuli/street_plate1.png,AJÁNDÉK UTCA,stimuli/scenes/005a.jpg,scene,1,stimuli/scenes/009a.jpg,stimuli/scenes/078b.jpg,stimuli/scenes/078a.jpg,stimuli/scenes/009a.jpg,stimuli/scenes/009b.jpg,dist2,dist1,target,lure,0,0,0,0,0,1,1,28,,,,,,,,,,,408.68174729999737,409.702369000006,409.702369000006,409.702369000006,409.702369000006,None,409.702369000006,,,,,,,,,,,,,,,,,,,,,,,,,,,,,,,,,,,,,,,,student1,2022-10-21_12h11.50.023,Hippopolis_Learning,2022.2.2,59.794879645729225,
Hippopolis,stimuli/subj_files/student1_cityA.csv,./stimuli/frankfurt.jpg,./stimuli/street_plate1.png,FIÓK UTCA,stimuli/scenes/002a.jpg,scene,1,stimuli/scenes/014a.jpg,stimuli/scenes/014a.jpg,stimuli/objects/004a.jpg,stimuli/objects/004b.jpg,stimuli/scenes/014b.jpg,target,dist1,dist2,lure,0,0,0,0,0,2,2,73,,,,,,,,,,,412.6988461999863,413.7119787999836,413.7119787999836,413.7119787999836,413.7119787999836,None,413.7119787999836,,,,,,,,,,,,,,,,,,,,,,,,,,,,,,,,,,,,,,,,student1,2022-10-21_12h11.50.023,Hippopolis_Learning,2022.2.2,59.794879645729225,
Hippopolis,stimuli/subj_files/student1_cityA.csv,./stimuli/frankfurt.jpg,./stimuli/street_plate1.png,NARANCS UTCA,stimuli/objects/017a.jpg,object,1,stimuli/objects/075a.jpg,stimuli/objects/075a.jpg,stimuli/scenes/041b.jpg,stimuli/scenes/041a.jpg,stimuli/objects/075b.jpg,target,dist2,dist1,lure,0,0,0,0,0,3,3,76,,,,,,,,,,,416.71501069999067,417.731171899999,417.731171899999,417.731171899999,417.731171899999,None,417.731171899999,,,,,,,,,,,,,,,,,,,,,,,,,,,,,,,,,,,,,,,,student1,2022-10-21_12h11.50.023,Hippopolis_Learning,2022.2.2,59.794879645729225,
Hippopolis,stimuli/subj_files/student1_cityA.csv,./stimuli/frankfurt.jpg,./stimuli/street_plate1.png,ZSEMLE UTCA,stimuli/objects/115a.jpg,object,1,stimuli/objects/053a.jpg,stimuli/objects/007a.jpg,stimuli/objects/053a.jpg,stimuli/objects/007b.jpg,stimuli/objects/053b.jpg,dist1,target,dist2,lure,0,0,0,0,0,4,4,47,,,,,,,,,,,420.7317027999961,421.7481848000025,421.7481848000025,421.7481848000025,421.7481848000025,None,421.7481848000025,,,,,,,,,,,,,,,,,,,,,,,,,,,,,,,,,,,,,,,,student1,2022-10-21_12h11.50.023,Hippopolis_Learning,2022.2.2,59.794879645729225,
Hippopolis,stimuli/subj_files/student1_cityA.csv,./stimuli/frankfurt.jpg,./stimuli/street_plate1.png,PÁLMAFA UTCA,stimuli/objects/090a.jpg,object,1,stimuli/objects/007a.jpg,stimuli/objects/053a.jpg,stimuli/objects/007a.jpg,stimuli/objects/053b.jpg,stimuli/objects/007b.jpg,dist1,target,dist2,lure,0,0,0,0,0,5,5,12,,,,,,,,,,,424.74820509998244,425.75707369999145,425.75707369999145,425.75707369999145,425.75707369999145,None,425.75707369999145,,,,,,,,,,,,,,,,,,,,,,,,,,,,,,,,,,,,,,,,student1,2022-10-21_12h11.50.023,Hippopolis_Learning,2022.2.2,59.794879645729225,
Hippopolis,stimuli/subj_files/student1_cityA.csv,./stimuli/frankfurt.jpg,./stimuli/street_plate1.png,HARMONIKA UTCA,stimuli/scenes/024a.jpg,scene,0,stimuli/scenes/024a.jpg,stimuli/scenes/101b.jpg,stimuli/scenes/024b.jpg,stimuli/scenes/101a.jpg,stimuli/scenes/024a.jpg,dist2,lure,dist1,target,0,0,0,0,0,6,6,25,,,,,,,,,,,428.76497339998605,429.7769576999999,429.7769576999999,429.7769576999999,429.7769576999999,None,429.7769576999999,,,,,,,,,,,,,,,,,,,,,,,,,,,,,,,,,,,,,,,,student1,2022-10-21_12h11.50.023,Hippopolis_Learning,2022.2.2,59.794879645729225,
Hippopolis,stimuli/subj_files/student1_cityA.csv,./stimuli/frankfurt.jpg,./stimuli/street_plate1.png,TRIATLON UTCA,stimuli/objects/024a.jpg,object,0,stimuli/objects/024a.jpg,stimuli/objects/024b.jpg,stimuli/objects/080a.jpg,stimuli/objects/024a.jpg,stimuli/objects/080b.jpg,lure,dist1,target,dist2,0,0,0,0,0,7,7,2,,,,,,,,,,,432.7811138999823,433.7818551000091,433.7818551000091,433.7818551000091,433.7818551000091,None,433.7818551000091,436.78155600000173,436.78155600000173,436.78155600000173,436.78155600000173,,,,,,,,,,,,,,,,,,,,,,,,,,,,,,,,,,,,student1,2022-10-21_12h11.50.023,Hippopolis_Learning,2022.2.2,59.794879645729225,
Hippopolis,stimuli/subj_files/student1_cityA.csv,./stimuli/frankfurt.jpg,./stimuli/street_plate1.png,KOKTÉL UTCA,stimuli/scenes/008a.jpg,scene,2,stimuli/objects/012a.jpg,stimuli/objects/036b.jpg,stimuli/objects/012b.jpg,stimuli/objects/036a.jpg,stimuli/objects/012a.jpg,dist2,lure,dist1,target,0,0,0,0,0,8,8,46,,,,,,,,,,,436.78155600000173,437.7914836999844,437.7914836999844,437.7914836999844,437.7914836999844,None,437.7914836999844,,,,,,,,,,,,,,,,,,,,,,,,,,,,,,,,,,,,,,,,student1,2022-10-21_12h11.50.023,Hippopolis_Learning,2022.2.2,59.794879645729225,
Hippopolis,stimuli/subj_files/student1_cityA.csv,./stimuli/frankfurt.jpg,./stimuli/street_plate1.png,KORONG UTCA,stimuli/scenes/065a.jpg,scene,1,stimuli/scenes/004a.jpg,stimuli/scenes/004a.jpg,stimuli/scenes/011b.jpg,stimuli/scenes/011a.jpg,stimuli/scenes/004b.jpg,target,dist2,dist1,lure,0,0,0,0,0,9,9,53,,,,,,,,,,,440.79791550000664,441.8071750999952,441.8071750999952,441.8071750999952,441.8071750999952,None,441.8071750999952,,,,,,,,,,,,,,,,,,,,,,,,,,,,,,,,,,,,,,,,student1,2022-10-21_12h11.50.023,Hippopolis_Learning,2022.2.2,59.794879645729225,
Hippopolis,stimuli/subj_files/student1_cityA.csv,./stimuli/frankfurt.jpg,./stimuli/street_plate1.png,BAGOLY UTCA,stimuli/scenes/029a.jpg,scene,2,stimuli/objects/028a.jpg,stimuli/objects/028b.jpg,stimuli/objects/028a.jpg,stimuli/scenes/028a.jpg,stimuli/scenes/028b.jpg,lure,target,dist1,dist2,0,0,0,0,0,10,10,21,,,,,,,,,,,444.8146505999903,445.8247737000056,445.8247737000056,445.8247737000056,445.8247737000056,None,445.8247737000056,,,,,,,,,,,,,,,,,,,,,,,,,,,,,,,,,,,,,,,,student1,2022-10-21_12h11.50.023,Hippopolis_Learning,2022.2.2,59.794879645729225,
Hippopolis,stimuli/subj_files/student1_cityA.csv,./stimuli/frankfurt.jpg,./stimuli/street_plate1.png,PIZSAMA UTCA,stimuli/scenes/060a.jpg,scene,2,stimuli/objects/006a.jpg,stimuli/scenes/007b.jpg,stimuli/scenes/007a.jpg,stimuli/objects/006b.jpg,stimuli/objects/006a.jpg,dist2,dist1,lure,target,0,0,0,0,0,11,11,79,,,,,,,,,,,448.83138739998685,449.8352565999958,449.8352565999958,449.8352565999958,449.8352565999958,None,449.8352565999958,,,,,,,,,,,,,,,,,,,,,,,,,,,,,,,,,,,,,,,,student1,2022-10-21_12h11.50.023,Hippopolis_Learning,2022.2.2,59.794879645729225,
Hippopolis,stimuli/subj_files/student1_cityA.csv,./stimuli/frankfurt.jpg,./stimuli/street_plate1.png,ÁLOM UTCA,stimuli/objects/070a.jpg,object,0,stimuli/objects/070a.jpg,stimuli/objects/070b.jpg,stimuli/objects/114b.jpg,stimuli/objects/114a.jpg,stimuli/objects/070a.jpg,lure,dist2,dist1,target,0,0,0,0,0,12,12,50,,,,,,,,,,,452.8478827000072,453.8658700000087,453.8658700000087,453.8658700000087,453.8658700000087,None,453.8658700000087,,,,,,,,,,,,,,,,,,,,,,,,,,,,,,,,,,,,,,,,student1,2022-10-21_12h11.50.023,Hippopolis_Learning,2022.2.2,59.794879645729225,
Hippopolis,stimuli/subj_files/student1_cityA.csv,./stimuli/frankfurt.jpg,./stimuli/street_plate1.png,KIRAKÓ UTCA,stimuli/objects/079a.jpg,object,2,stimuli/scenes/070a.jpg,stimuli/scenes/070a.jpg,stimuli/scenes/070b.jpg,stimuli/objects/043b.jpg,stimuli/objects/043a.jpg,target,lure,dist2,dist1,0,0,0,0,0,13,13,57,,,,,,,,,,,456.8643737999955,457.8824911999982,457.8824911999982,457.8824911999982,457.8824911999982,None,457.8824911999982,,,,,,,,,,,,,,,,,,,,,,,,,,,,,,,,,,,,,,,,student1,2022-10-21_12h11.50.023,Hippopolis_Learning,2022.2.2,59.794879645729225,
Hippopolis,stimuli/subj_files/student1_cityA.csv,./stimuli/frankfurt.jpg,./stimuli/street_plate1.png,KAKAS UTCA,stimuli/objects/002a.jpg,object,2,stimuli/scenes/074a.jpg,stimuli/scenes/074b.jpg,stimuli/scenes/074a.jpg,stimuli/scenes/070a.jpg,stimuli/scenes/070b.jpg,lure,target,dist1,dist2,0,0,0,0,0,14,14,24,,,,,,,,,,,460.8810254999844,461.8932179999829,461.8932179999829,461.8932179999829,461.8932179999829,None,461.8932179999829,,,,,,,,,,,,,,,,,,,,,,,,,,,,,,,,,,,,,,,,student1,2022-10-21_12h11.50.023,Hippopolis_Learning,2022.2.2,59.794879645729225,
Hippopolis,stimuli/subj_files/student1_cityA.csv,./stimuli/frankfurt.jpg,./stimuli/street_plate1.png,BONBON UTCA,stimuli/objects/095a.jpg,object,2,stimuli/scenes/007a.jpg,stimuli/objects/028b.jpg,stimuli/objects/028a.jpg,stimuli/scenes/007a.jpg,stimuli/scenes/007b.jpg,dist2,dist1,target,lure,0,0,0,0,0,15,15,72,,,,,,,,,,,464.8976967000053,465.9049387999985,465.9049387999985,465.9049387999985,465.9049387999985,None,465.9049387999985,,,,,,,,,,,,,,,,,,,,,,,,,,,,,,,,,,,,,,,,student1,2022-10-21_12h11.50.023,Hippopolis_Learning,2022.2.2,59.794879645729225,
Hippopolis,stimuli/subj_files/student1_cityA.csv,./stimuli/frankfurt.jpg,./stimuli/street_plate1.png,CSAVAR UTCA,stimuli/objects/078a.jpg,object,0,stimuli/objects/078a.jpg,stimuli/objects/078b.jpg,stimuli/objects/024b.jpg,stimuli/objects/078a.jpg,stimuli/objects/024a.jpg,lure,dist2,target,dist1,0,0,0,0,0,16,16,10,,,,,,,,,,,468.91452289998415,469.92175720000523,469.92175720000523,469.92175720000523,469.92175720000523,None,469.92175720000523,,,,,,,,,,,,,,,,,,,,,,,,,,,,,,,,,,,,,,,,student1,2022-10-21_12h11.50.023,Hippopolis_Learning,2022.2.2,59.794879645729225,
Hippopolis,stimuli/subj_files/student1_cityA.csv,./stimuli/frankfurt.jpg,./stimuli/street_plate1.png,TOBOZ UTCA,stimuli/objects/001a.jpg,object,2,stimuli/scenes/059a.jpg,stimuli/scenes/059a.jpg,stimuli/objects/085a.jpg,stimuli/objects/085b.jpg,stimuli/scenes/059b.jpg,target,dist1,dist2,lure,0,0,0,0,0,17,17,40,,,,,,,,,,,472.93105939999805,473.95334010000806,473.95334010000806,473.95334010000806,473.95334010000806,None,473.95334010000806,,,,,,,,,,,,,,,,,,,,,,,,,,,,,,,,,,,,,,,,student1,2022-10-21_12h11.50.023,Hippopolis_Learning,2022.2.2,59.794879645729225,
Hippopolis,stimuli/subj_files/student1_cityA.csv,./stimuli/frankfurt.jpg,./stimuli/street_plate1.png,AKÁC UTCA,stimuli/scenes/081a.jpg,scene,2,stimuli/objects/055a.jpg,stimuli/objects/055b.jpg,stimuli/objects/107b.jpg,stimuli/objects/107a.jpg,stimuli/objects/055a.jpg,lure,dist2,dist1,target,0,0,0,0,0,18,18,74,,,,,,,,,,,476.9474904999952,477.95357919999515,477.95357919999515,477.95357919999515,477.95357919999515,None,477.95357919999515,,,,,,,,,,,,,,,,,,,,,,,,,,,,,,,,,,,,,,,,student1,2022-10-21_12h11.50.023,Hippopolis_Learning,2022.2.2,59.794879645729225,
Hippopolis,stimuli/subj_files/student1_cityA.csv,./stimuli/frankfurt.jpg,./stimuli/street_plate1.png,FÓKA UTCA,stimuli/scenes/058a.jpg,scene,0,stimuli/scenes/058a.jpg,stimuli/scenes/058a.jpg,stimuli/scenes/058b.jpg,stimuli/objects/111b.jpg,stimuli/objects/111a.jpg,target,lure,dist2,dist1,0,0,0,0,0,19,19,51,,,,,,,,,,,480.9639283999859,481.9707172999915,481.9707172999915,481.9707172999915,481.9707172999915,None,481.9707172999915,,,,,,,,,,,,,,,,,,,,,,,,,,,,,,,,,,,,,,,,student1,2022-10-21_12h11.50.023,Hippopolis_Learning,2022.2.2,59.794879645729225,
Hippopolis,stimuli/subj_files/student1_cityA.csv,./stimuli/frankfurt.jpg,./stimuli/street_plate1.png,FÉNYKÉP UTCA,stimuli/scenes/010a.jpg,scene,1,stimuli/scenes/078a.jpg,stimuli/scenes/088a.jpg,stimuli/scenes/078a.jpg,stimuli/scenes/088b.jpg,stimuli/scenes/078b.jpg,dist1,target,dist2,lure,0,0,0,0,0,20,20,32,,,,,,,,,,,484.9805772000109,485.988509399991,485.988509399991,485.988509399991,485.988509399991,None,485.988509399991,,,,,,,,,,,,,,,,,,,,,,,,,,,,,,,,,,,,,,,,student1,2022-10-21_12h11.50.023,Hippopolis_Learning,2022.2.2,59.794879645729225,
Hippopolis,stimuli/subj_files/student1_cityA.csv,./stimuli/frankfurt.jpg,./stimuli/street_plate1.png,TOJÁS UTCA,stimuli/objects/021a.jpg,object,2,stimuli/scenes/034a.jpg,stimuli/scenes/034a.jpg,stimuli/objects/059a.jpg,stimuli/objects/059b.jpg,stimuli/scenes/034b.jpg,target,dist1,dist2,lure,0,0,0,0,0,21,21,37,,,,,,,,,,,488.99749129998963,490.016552999994,490.016552999994,490.016552999994,490.016552999994,None,490.016552999994,,,,,,,,,,,,,,,,,,,,,,,,,,,,,,,,,,,,,,,,student1,2022-10-21_12h11.50.023,Hippopolis_Learning,2022.2.2,59.794879645729225,
Hippopolis,stimuli/subj_files/student1_cityA.csv,./stimuli/frankfurt.jpg,./stimuli/street_plate1.png,PAPAGÁJ UTCA,stimuli/objects/093a.jpg,object,2,stimuli/scenes/097a.jpg,stimuli/scenes/097a.jpg,stimuli/scenes/109b.jpg,stimuli/scenes/109a.jpg,stimuli/scenes/097b.jpg,target,dist2,dist1,lure,0,0,0,0,0,22,22,55,,,,,,,,,,,493.0139474000025,494.0289754999976,494.0289754999976,494.0289754999976,494.0289754999976,None,494.0289754999976,,,,,,,,,,,,,,,,,,,,,,,,,,,,,,,,,,,,,,,,student1,2022-10-21_12h11.50.023,Hippopolis_Learning,2022.2.2,59.794879645729225,
Hippopolis,stimuli/subj_files/student1_cityA.csv,./stimuli/frankfurt.jpg,./stimuli/street_plate1.png,KULLANCS UTCA,stimuli/objects/089a.jpg,object,0,stimuli/objects/089a.jpg,stimuli/scenes/072a.jpg,stimuli/objects/089a.jpg,stimuli/scenes/072b.jpg,stimuli/objects/089b.jpg,dist1,target,dist2,lure,0,0,0,0,0,23,23,34,,,,,,,,,,,497.03037639998365,498.0407234999875,498.0407234999875,498.0407234999875,498.0407234999875,None,498.0407234999875,,,,,,,,,,,,,,,,,,,,,,,,,,,,,,,,,,,,,,,,student1,2022-10-21_12h11.50.023,Hippopolis_Learning,2022.2.2,59.794879645729225,
Hippopolis,stimuli/subj_files/student1_cityA.csv,./stimuli/frankfurt.jpg,./stimuli/street_plate1.png,ÁRNYÉK UTCA,stimuli/objects/020a.jpg,object,1,stimuli/objects/027a.jpg,stimuli/scenes/004a.jpg,stimuli/objects/027b.jpg,stimuli/objects/027a.jpg,stimuli/scenes/004b.jpg,dist1,lure,target,dist2,0,0,0,0,0,24,24,52,,,,,,,,,,,501.04700220000814,502.05427649998455,502.05427649998455,502.05427649998455,502.05427649998455,None,502.05427649998455,,,,,,,,,,,,,,,,,,,,,,,,,,,,,,,,,,,,,,,,student1,2022-10-21_12h11.50.023,Hippopolis_Learning,2022.2.2,59.794879645729225,
Hippopolis,stimuli/subj_files/student1_cityA.csv,./stimuli/frankfurt.jpg,./stimuli/street_plate1.png,VÖDÖR UTCA,stimuli/scenes/055a.jpg,scene,1,stimuli/scenes/088a.jpg,stimuli/scenes/088b.jpg,stimuli/scenes/088a.jpg,stimuli/scenes/087b.jpg,stimuli/scenes/087a.jpg,lure,target,dist2,dist1,0,0,0,0,0,25,25,56,,,,,,,,,,,505.0638694000081,506.0761074000038,506.0761074000038,506.0761074000038,506.0761074000038,None,506.0761074000038,,,,,,,,,,,,,,,,,,,,,,,,,,,,,,,,,,,,,,,,student1,2022-10-21_12h11.50.023,Hippopolis_Learning,2022.2.2,59.794879645729225,
Hippopolis,stimuli/subj_files/student1_cityA.csv,./stimuli/frankfurt.jpg,./stimuli/street_plate1.png,BOLYGÓ UTCA,stimuli/scenes/118a.jpg,scene,1,stimuli/scenes/087a.jpg,stimuli/objects/011a.jpg,stimuli/scenes/087b.jpg,stimuli/objects/011b.jpg,stimuli/scenes/087a.jpg,dist1,lure,dist2,target,0,0,0,0,0,26,26,31,,,,,,,,,,,509.0803464000055,510.0934541999886,510.0934541999886,510.0934541999886,510.0934541999886,None,510.0934541999886,,,,,,,,,,,,,,,,,,,,,,,,,,,,,,,,,,,,,,,,student1,2022-10-21_12h11.50.023,Hippopolis_Learning,2022.2.2,59.794879645729225,
Hippopolis,stimuli/subj_files/student1_cityA.csv,./stimuli/frankfurt.jpg,./stimuli/street_plate1.png,KÖNYVTÁR UTCA,stimuli/objects/113a.jpg,object,1,stimuli/objects/109a.jpg,stimuli/objects/109a.jpg,stimuli/objects/109b.jpg,stimuli/scenes/067a.jpg,stimuli/scenes/067b.jpg,target,lure,dist1,dist2,0,0,0,0,0,27,27,42,,,,,,,,,,,513.0967692999984,514.1068746999954,514.1068746999954,514.1068746999954,514.1068746999954,None,514.1068746999954,,,,,,,,,,,,,,,,,,,,,,,,,,,,,,,,,,,,,,,,student1,2022-10-21_12h11.50.023,Hippopolis_Learning,2022.2.2,59.794879645729225,
Hippopolis,stimuli/subj_files/student1_cityA.csv,./stimuli/frankfurt.jpg,./stimuli/street_plate1.png,LIGET UTCA,stimuli/objects/038a.jpg,object,2,stimuli/scenes/109a.jpg,stimuli/scenes/109a.jpg,stimuli/objects/055a.jpg,stimuli/scenes/109b.jpg,stimuli/objects/055b.jpg,target,dist1,lure,dist2,0,0,0,0,0,28,28,62,,,,,,,,,,,517.1134932999848,518.1241605000105,518.1241605000105,518.1241605000105,518.1241605000105,None,518.1241605000105,,,,,,,,,,,,,,,,,,,,,,,,,,,,,,,,,,,,,,,,student1,2022-10-21_12h11.50.023,Hippopolis_Learning,2022.2.2,59.794879645729225,
Hippopolis,stimuli/subj_files/student1_cityA.csv,./stimuli/frankfurt.jpg,./stimuli/street_plate1.png,CUKOR UTCA,stimuli/objects/111a.jpg,object,0,stimuli/objects/111a.jpg,stimuli/objects/089b.jpg,stimuli/objects/111b.jpg,stimuli/objects/111a.jpg,stimuli/objects/089a.jpg,dist2,lure,target,dist1,0,0,0,0,0,29,29,30,,,,,,,,,,,521.1300440999912,522.1496132999891,522.1496132999891,522.1496132999891,522.1496132999891,None,522.1496132999891,,,,,,,,,,,,,,,,,,,,,,,,,,,,,,,,,,,,,,,,student1,2022-10-21_12h11.50.023,Hippopolis_Learning,2022.2.2,59.794879645729225,
Hippopolis,stimuli/subj_files/student1_cityA.csv,./stimuli/frankfurt.jpg,./stimuli/street_plate1.png,DOMINÓ UTCA,stimuli/scenes/042a.jpg,scene,0,stimuli/scenes/042a.jpg,stimuli/scenes/042a.jpg,stimuli/scenes/042b.jpg,stimuli/objects/070a.jpg,stimuli/objects/070b.jpg,target,lure,dist1,dist2,0,0,0,0,0,30,30,63,,,,,,,,,,,525.1465666999866,526.1609489999828,526.1609489999828,526.1609489999828,526.1609489999828,None,526.1609489999828,,,,,,,,,,,,,,,,,,,,,,,,,,,,,,,,,,,,,,,,student1,2022-10-21_12h11.50.023,Hippopolis_Learning,2022.2.2,59.794879645729225,
Hippopolis,stimuli/subj_files/student1_cityA.csv,./stimuli/frankfurt.jpg,./stimuli/street_plate1.png,MOCSÁR UTCA,stimuli/objects/080a.jpg,object,0,stimuli/objects/080a.jpg,stimuli/objects/080b.jpg,stimuli/objects/080a.jpg,stimuli/scenes/043b.jpg,stimuli/scenes/043a.jpg,lure,target,dist2,dist1,0,0,0,0,0,31,31,17,,,,,,,,,,,529.163532000006,530.1748516999942,530.1748516999942,530.1748516999942,530.1748516999942,None,530.1748516999942,,,,,,,,,,,,,,,,,,,,,,,,,,,,,,,,,,,,,,,,student1,2022-10-21_12h11.50.023,Hippopolis_Learning,2022.2.2,59.794879645729225,
Hippopolis,stimuli/subj_files/student1_cityA.csv,./stimuli/frankfurt.jpg,./stimuli/street_plate1.png,ÜVEG UTCA,stimuli/scenes/061a.jpg,scene,2,stimuli/objects/085a.jpg,stimuli/objects/085b.jpg,stimuli/scenes/084a.jpg,stimuli/objects/085a.jpg,stimuli/scenes/084b.jpg,lure,dist1,target,dist2,0,0,0,0,0,32,32,19,,,,,,,,,,,533.1797502999834,534.1903317999968,534.1903317999968,534.1903317999968,534.1903317999968,None,534.1903317999968,,,,,,,,,,,,,,,,,,,,,,,,,,,,,,,,,,,,,,,,student1,2022-10-21_12h11.50.023,Hippopolis_Learning,2022.2.2,59.794879645729225,
Hippopolis,stimuli/subj_files/student1_cityA.csv,./stimuli/frankfurt.jpg,./stimuli/street_plate1.png,RÓZSA UTCA,stimuli/objects/091a.jpg,object,0,stimuli/objects/091a.jpg,stimuli/objects/091b.jpg,stimuli/objects/078b.jpg,stimuli/objects/078a.jpg,stimuli/objects/091a.jpg,lure,dist2,dist1,target,0,0,0,0,0,33,33,45,,,,,,,,,,,537.1965073999891,538.2096253999916,538.2096253999916,538.2096253999916,538.2096253999916,None,538.2096253999916,,,,,,,,,,,,,,,,,,,,,,,,,,,,,,,,,,,,,,,,student1,2022-10-21_12h11.50.023,Hippopolis_Learning,2022.2.2,59.794879645729225,
Hippopolis,stimuli/subj_files/student1_cityA.csv,./stimuli/frankfurt.jpg,./stimuli/street_plate1.png,MOTOR UTCA,stimuli/objects/097a.jpg,object,1,stimuli/objects/071a.jpg,stimuli/objects/015b.jpg,stimuli/objects/071b.jpg,stimuli/objects/071a.jpg,stimuli/objects/015a.jpg,dist2,lure,target,dist1,0,0,0,0,0,34,34,36,,,,,,,,,,,541.2128567000036,542.2235699000012,542.2235699000012,542.2235699000012,542.2235699000012,None,542.2235699000012,,,,,,,,,,,,,,,,,,,,,,,,,,,,,,,,,,,,,,,,student1,2022-10-21_12h11.50.023,Hippopolis_Learning,2022.2.2,59.794879645729225,
Hippopolis,stimuli/subj_files/student1_cityA.csv,./stimuli/frankfurt.jpg,./stimuli/street_plate1.png,PADLÓ UTCA,stimuli/objects/100a.jpg,object,0,stimuli/objects/100a.jpg,stimuli/scenes/058a.jpg,stimuli/scenes/058b.jpg,stimuli/objects/100a.jpg,stimuli/objects/100b.jpg,dist1,dist2,target,lure,0,0,0,0,0,35,35,59,,,,,,,,,,,545.2293548999878,546.2344435999985,546.2344435999985,546.2344435999985,546.2344435999985,None,546.2344435999985,,,,,,,,,,,,,,,,,,,,,,,,,,,,,,,,,,,,,,,,student1,2022-10-21_12h11.50.023,Hippopolis_Learning,2022.2.2,59.794879645729225,
Hippopolis,stimuli/subj_files/student1_cityA.csv,./stimuli/frankfurt.jpg,./stimuli/street_plate1.png,HAJÓ UTCA,stimuli/objects/086a.jpg,object,1,stimuli/objects/041a.jpg,stimuli/scenes/014a.jpg,stimuli/scenes/014b.jpg,stimuli/objects/041a.jpg,stimuli/objects/041b.jpg,dist1,dist2,target,lure,0,0,0,0,0,36,36,71,,,,,,,,,,,549.2461790000089,550.2649447000003,550.2649447000003,550.2649447000003,550.2649447000003,None,550.2649447000003,,,,,,,,,,,,,,,,,,,,,,,,,,,,,,,,,,,,,,,,student1,2022-10-21_12h11.50.023,Hippopolis_Learning,2022.2.2,59.794879645729225,
Hippopolis,stimuli/subj_files/student1_cityA.csv,./stimuli/frankfurt.jpg,./stimuli/street_plate1.png,HEGESZTŐ UTCA,stimuli/scenes/043a.jpg,scene,0,stimuli/scenes/043a.jpg,stimuli/scenes/043b.jpg,stimuli/scenes/043a.jpg,stimuli/objects/062a.jpg,stimuli/objects/062b.jpg,lure,target,dist1,dist2,0,0,0,0,0,37,37,77,,,,,,,,,,,553.2626648999867,554.2650411000068,554.2650411000068,554.2650411000068,554.2650411000068,None,554.2650411000068,,,,,,,,,,,,,,,,,,,,,,,,,,,,,,,,,,,,,,,,student1,2022-10-21_12h11.50.023,Hippopolis_Learning,2022.2.2,59.794879645729225,
Hippopolis,stimuli/subj_files/student1_cityA.csv,./stimuli/frankfurt.jpg,./stimuli/street_plate1.png,LÉTRA UTCA,stimuli/objects/047a.jpg,object,1,stimuli/objects/015a.jpg,stimuli/objects/108b.jpg,stimuli/objects/015b.jpg,stimuli/objects/108a.jpg,stimuli/objects/015a.jpg,dist2,lure,dist1,target,0,0,0,0,0,38,38,33,,,,,,,,,,,557.2792702000006,558.2836346999975,558.2836346999975,558.2836346999975,558.2836346999975,None,,,,,,,,,,,,,,,,,,,,,,,,,,,,,,,,,,,,,,,,,student1,2022-10-21_12h11.50.023,Hippopolis_Learning,2022.2.2,59.794879645729225,
Hippopolis,stimuli/subj_files/student1_cityA.csv,./stimuli/frankfurt.jpg,./stimuli/street_plate1.png,TALICSKA UTCA,stimuli/objects/014a.jpg,object,1,stimuli/objects/108a.jpg,stimuli/objects/109a.jpg,stimuli/objects/109b.jpg,stimuli/objects/108a.jpg,stimuli/objects/108b.jpg,dist1,dist2,target,lure,0,0,0,0,0,39,39,13,,,,,,,,,,,561.2958135000081,562.3135459999903,562.3135459999903,562.3135459999903,562.3135459999903,None,562.3135459999903,,,,,,,,,,,,,,,,,,,,,,,,,,,,,,,,,,,,,,,,student1,2022-10-21_12h11.50.023,Hippopolis_Learning,2022.2.2,59.794879645729225,
Hippopolis,stimuli/subj_files/student1_cityA.csv,./stimuli/frankfurt.jpg,./stimuli/street_plate1.png,KERÉK UTCA,stimuli/scenes/096a.jpg,scene,1,stimuli/scenes/041a.jpg,stimuli/scenes/117a.jpg,stimuli/scenes/041b.jpg,stimuli/scenes/041a.jpg,stimuli/scenes/117b.jpg,dist1,lure,target,dist2,0,0,0,0,0,40,40,20,,,,,,,,,,,565.3126652000064,566.3343353999953,566.3343353999953,566.3343353999953,566.3343353999953,None,566.3343353999953,,,,,,,,,,,,,,,,,,,,,,,,,,,,,,,,,,,,,,,,student1,2022-10-21_12h11.50.023,Hippopolis_Learning,2022.2.2,59.794879645729225,
Hippopolis,stimuli/subj_files/student1_cityA.csv,./stimuli/frankfurt.jpg,./stimuli/street_plate1.png,PETÁRDA UTCA,stimuli/objects/009a.jpg,object,0,stimuli/objects/009a.jpg,stimuli/objects/009a.jpg,stimuli/scenes/051a.jpg,stimuli/objects/009b.jpg,stimuli/scenes/051b.jpg,target,dist1,lure,dist2,0,0,0,0,0,41,41,64,,,,,,,,,,,569.3291620000091,570.3325773999968,570.3325773999968,570.3325773999968,570.3325773999968,None,570.3325773999968,,,,,,,,,,,,,,,,,,,,,,,,,,,,,,,,,,,,,,,,student1,2022-10-21_12h11.50.023,Hippopolis_Learning,2022.2.2,59.794879645729225,
Hippopolis,stimuli/subj_files/student1_cityA.csv,./stimuli/frankfurt.jpg,./stimuli/street_plate1.png,VASALÓ UTCA,stimuli/objects/025a.jpg,object,2,stimuli/scenes/056a.jpg,stimuli/scenes/044a.jpg,stimuli/scenes/056b.jpg,stimuli/scenes/056a.jpg,stimuli/scenes/044b.jpg,dist1,lure,target,dist2,0,0,0,0,0,42,42,70,,,,,,,,,,,573.3457046999829,574.3516499999969,574.3516499999969,574.3516499999969,574.3516499999969,None,574.3516499999969,,,,,,,,,,,,,,,,,,,,,,,,,,,,,,,,,,,,,,,,student1,2022-10-21_12h11.50.023,Hippopolis_Learning,2022.2.2,59.794879645729225,
Hippopolis,stimuli/subj_files/student1_cityA.csv,./stimuli/frankfurt.jpg,./stimuli/street_plate1.png,BÖGRE UTCA,stimuli/objects/050a.jpg,object,1,stimuli/objects/076a.jpg,stimuli/scenes/037a.jpg,stimuli/objects/076a.jpg,stimuli/objects/076b.jpg,stimuli/scenes/037b.jpg,dist1,target,lure,dist2,0,0,0,0,0,43,43,41,,,,,,,,,,,577.3626681999885,578.3679936999979,578.3679936999979,578.3679936999979,578.3679936999979,None,578.3679936999979,,,,,,,,,,,,,,,,,,,,,,,,,,,,,,,,,,,,,,,,student1,2022-10-21_12h11.50.023,Hippopolis_Learning,2022.2.2,59.794879645729225,
Hippopolis,stimuli/subj_files/student1_cityA.csv,./stimuli/frankfurt.jpg,./stimuli/street_plate1.png,KORONA UTCA,stimuli/scenes/108a.jpg,scene,1,stimuli/scenes/011a.jpg,stimuli/objects/076a.jpg,stimuli/scenes/011b.jpg,stimuli/objects/076b.jpg,stimuli/scenes/011a.jpg,dist1,lure,dist2,target,0,0,0,0,0,44,44,9,,,,,,,,,,,581.3789799000078,582.3891614000022,582.3891614000022,582.3891614000022,582.3891614000022,space,582.3891614000022,,,,,585.3956790000084,585.3956790000084,3.7788113000278827,,,,,,,,,,,,,,,,,,,,,,,,,,,,,,,,,student1,2022-10-21_12h11.50.023,Hippopolis_Learning,2022.2.2,59.794879645729225,
Hippopolis,stimuli/subj_files/student1_cityA.csv,./stimuli/frankfurt.jpg,./stimuli/street_plate1.png,KOCKA UTCA,stimuli/objects/062a.jpg,object,0,stimuli/objects/062a.jpg,stimuli/scenes/095b.jpg,stimuli/objects/062a.jpg,stimuli/objects/062b.jpg,stimuli/scenes/095a.jpg,dist2,target,lure,dist1,0,0,0,0,0,45,45,35,,,,,,,,,,,589.1956486999989,590.2073147000046,590.2073147000046,590.2073147000046,590.2073147000046,None,590.2073147000046,,,,,,,,,,,,,,,,,,,,,,,,,,,,,,,,,,,,,,,,student1,2022-10-21_12h11.50.023,Hippopolis_Learning,2022.2.2,59.794879645729225,
Hippopolis,stimuli/subj_files/student1_cityA.csv,./stimuli/frankfurt.jpg,./stimuli/street_plate1.png,SIVATAG UTCA,stimuli/scenes/016a.jpg,scene,2,stimuli/objects/046a.jpg,stimuli/objects/046b.jpg,stimuli/objects/006a.jpg,stimuli/objects/006b.jpg,stimuli/objects/046a.jpg,lure,dist1,dist2,target,0,0,0,0,0,46,46,23,,,,,,,,,,,593.2120988999959,594.2281722000043,594.2281722000043,594.2281722000043,594.2281722000043,None,594.2281722000043,,,,,,,,,,,,,,,,,,,,,,,,,,,,,,,,,,,,,,,,student1,2022-10-21_12h11.50.023,Hippopolis_Learning,2022.2.2,59.794879645729225,
Hippopolis,stimuli/subj_files/student1_cityA.csv,./stimuli/frankfurt.jpg,./stimuli/street_plate1.png,KERET UTCA,stimuli/scenes/027a.jpg,scene,0,stimuli/scenes/027a.jpg,stimuli/objects/100a.jpg,stimuli/objects/100b.jpg,stimuli/scenes/027a.jpg,stimuli/scenes/027b.jpg,dist1,dist2,target,lure,0,0,0,0,0,47,47,3,,,,,,,,,,,597.2290481000091,598.2336991000047,598.2336991000047,598.2336991000047,598.2336991000047,None,598.2336991000047,,,,,,,,,,,,,,,,,,,,,,,,,,,,,,,,,,,,,,,,student1,2022-10-21_12h11.50.023,Hippopolis_Learning,2022.2.2,59.794879645729225,
Hippopolis,stimuli/subj_files/student1_cityA.csv,./stimuli/frankfurt.jpg,./stimuli/street_plate1.png,TOLLTARTÓ UTCA,stimuli/objects/032a.jpg,object,2,stimuli/scenes/119a.jpg,stimuli/scenes/119a.jpg,stimuli/scenes/104b.jpg,stimuli/scenes/104a.jpg,stimuli/scenes/119b.jpg,target,dist2,dist1,lure,0,0,0,0,0,48,48,67,,,,,,,,,,,601.2452885000093,602.2514849999861,602.2514849999861,602.2514849999861,602.2514849999861,None,602.2514849999861,,,,,,,,,,,,,,,,,,,,,,,,,,,,,,,,,,,,,,,,student1,2022-10-21_12h11.50.023,Hippopolis_Learning,2022.2.2,59.794879645729225,
Hippopolis,stimuli/subj_files/student1_cityA.csv,./stimuli/frankfurt.jpg,./stimuli/street_plate1.png,PAPUCS UTCA,stimuli/scenes/051a.jpg,scene,0,stimuli/scenes/051a.jpg,stimuli/scenes/051b.jpg,stimuli/scenes/051a.jpg,stimuli/scenes/090a.jpg,stimuli/scenes/090b.jpg,lure,target,dist1,dist2,0,0,0,0,0,49,49,68,,,,,,,,,,,605.2451452999958,606.2564113999833,606.2564113999833,606.2564113999833,606.2564113999833,None,606.2564113999833,,,,,,,,,,,,,,,,,,,,,,,,,,,,,,,,,,,,,,,,student1,2022-10-21_12h11.50.023,Hippopolis_Learning,2022.2.2,59.794879645729225,
Hippopolis,stimuli/subj_files/student1_cityA.csv,./stimuli/frankfurt.jpg,./stimuli/street_plate1.png,TELEP UTCA,stimuli/scenes/048a.jpg,scene,2,stimuli/objects/120a.jpg,stimuli/objects/120a.jpg,stimuli/objects/120b.jpg,stimuli/scenes/119b.jpg,stimuli/scenes/119a.jpg,target,lure,dist2,dist1,0,0,0,0,0,50,50,75,,,,,,,,,,,609.26214050001,610.267863599991,610.267863599991,610.267863599991,610.267863599991,None,610.267863599991,,,,,,,,,,,,,,,,,,,,,,,,,,,,,,,,,,,,,,,,student1,2022-10-21_12h11.50.023,Hippopolis_Learning,2022.2.2,59.794879645729225,
Hippopolis,stimuli/subj_files/student1_cityA.csv,./stimuli/frankfurt.jpg,./stimuli/street_plate1.png,OLDAL UTCA,stimuli/scenes/093a.jpg,scene,2,stimuli/objects/107a.jpg,stimuli/objects/107b.jpg,stimuli/objects/022a.jpg,stimuli/objects/107a.jpg,stimuli/objects/022b.jpg,lure,dist1,target,dist2,0,0,0,0,0,51,51,11,,,,,,,,,,,613.278578700003,614.2977214999846,614.2977214999846,614.2977214999846,614.2977214999846,None,614.2977214999846,,,,,,,,,,,,,,,,,,,,,,,,,,,,,,,,,,,,,,,,student1,2022-10-21_12h11.50.023,Hippopolis_Learning,2022.2.2,59.794879645729225,
Hippopolis,stimuli/subj_files/student1_cityA.csv,./stimuli/frankfurt.jpg,./stimuli/street_plate1.png,SZOMSZÉD UTCA,stimuli/objects/026a.jpg,object,1,stimuli/objects/004a.jpg,stimuli/objects/027b.jpg,stimuli/objects/004b.jpg,stimuli/objects/004a.jpg,stimuli/objects/027a.jpg,dist2,lure,target,dist1,0,0,0,0,0,52,52,65,,,,,,,,,,,617.2950032000081,618.3073389999918,618.3073389999918,618.3073389999918,618.3073389999918,None,618.3073389999918,,,,,,,,,,,,,,,,,,,,,,,,,,,,,,,,,,,,,,,,student1,2022-10-21_12h11.50.023,Hippopolis_Learning,2022.2.2,59.794879645729225,
Hippopolis,stimuli/subj_files/student1_cityA.csv,./stimuli/frankfurt.jpg,./stimuli/street_plate1.png,MUNKA UTCA,stimuli/scenes/039a.jpg,scene,2,stimuli/objects/067a.jpg,stimuli/scenes/097a.jpg,stimuli/objects/067b.jpg,stimuli/objects/067a.jpg,stimuli/scenes/097b.jpg,dist1,lure,target,dist2,0,0,0,0,0,53,53,4,,,,,,,,,,,621.3119769000041,622.3211142999935,622.3211142999935,622.3211142999935,622.3211142999935,None,622.3211142999935,,,,,,,,,,,,,,,,,,,,,,,,,,,,,,,,,,,,,,,,student1,2022-10-21_12h11.50.023,Hippopolis_Learning,2022.2.2,59.794879645729225,
Hippopolis,stimuli/subj_files/student1_cityA.csv,./stimuli/frankfurt.jpg,./stimuli/street_plate1.png,RÁDIÓ UTCA,stimuli/scenes/068a.jpg,scene,1,stimuli/scenes/067a.jpg,stimuli/scenes/018b.jpg,stimuli/scenes/067a.jpg,stimuli/scenes/067b.jpg,stimuli/scenes/018a.jpg,dist2,target,lure,dist1,0,0,0,0,0,54,54,44,,,,,,,,,,,625.3289030999877,626.3344688999932,626.3344688999932,626.3344688999932,626.3344688999932,None,626.3344688999932,,,,,,,,,,,,,,,,,,,,,,,,,,,,,,,,,,,,,,,,student1,2022-10-21_12h11.50.023,Hippopolis_Learning,2022.2.2,59.794879645729225,
Hippopolis,stimuli/subj_files/student1_cityA.csv,./stimuli/frankfurt.jpg,./stimuli/street_plate1.png,TERASZ UTCA,stimuli/objects/063a.jpg,object,2,stimuli/scenes/104a.jpg,stimuli/scenes/104a.jpg,stimuli/scenes/056a.jpg,stimuli/scenes/104b.jpg,stimuli/scenes/056b.jpg,target,dist1,lure,dist2,0,0,0,0,0,55,55,48,,,,,,,,,,,629.3448837999895,630.3584149999951,630.3584149999951,630.3584149999951,630.3584149999951,None,630.3584149999951,,,,,,,,,,,,,,,,,,,,,,,,,,,,,,,,,,,,,,,,student1,2022-10-21_12h11.50.023,Hippopolis_Learning,2022.2.2,59.794879645729225,
Hippopolis,stimuli/subj_files/student1_cityA.csv,./stimuli/frankfurt.jpg,./stimuli/street_plate1.png,KÖTÉNY UTCA,stimuli/scenes/031a.jpg,scene,1,stimuli/scenes/064a.jpg,stimuli/objects/103a.jpg,stimuli/objects/103b.jpg,stimuli/scenes/064b.jpg,stimuli/scenes/064a.jpg,dist1,dist2,lure,target,0,0,0,0,0,56,56,22,,,,,,,,,,,633.3616138999932,634.3690379000036,634.3690379000036,634.3690379000036,634.3690379000036,None,634.3690379000036,,,,,,,,,,,,,,,,,,,,,,,,,,,,,,,,,,,,,,,,student1,2022-10-21_12h11.50.023,Hippopolis_Learning,2022.2.2,59.794879645729225,
Hippopolis,stimuli/subj_files/student1_cityA.csv,./stimuli/frankfurt.jpg,./stimuli/street_plate1.png,PÁFRÁNY UTCA,stimuli/scenes/101a.jpg,scene,0,stimuli/scenes/101a.jpg,stimuli/scenes/101a.jpg,stimuli/scenes/101b.jpg,stimuli/objects/051a.jpg,stimuli/objects/051b.jpg,target,lure,dist1,dist2,0,0,0,0,0,57,57,0,,,,,,,,,,,637.3783637000015,638.3870808999927,638.3870808999927,638.3870808999927,638.3870808999927,None,638.3870808999927,,,,,,,,,,,,,,,,,,,,,,,,,,,,,,,,,,,,,,,,student1,2022-10-21_12h11.50.023,Hippopolis_Learning,2022.2.2,59.794879645729225,
Hippopolis,stimuli/subj_files/student1_cityA.csv,./stimuli/frankfurt.jpg,./stimuli/street_plate1.png,MÁLNA UTCA,stimuli/objects/069a.jpg,object,2,stimuli/scenes/053a.jpg,stimuli/objects/073a.jpg,stimuli/objects/073b.jpg,stimuli/scenes/053b.jpg,stimuli/scenes/053a.jpg,dist1,dist2,lure,target,0,0,0,0,0,58,58,14,,,,,,,,,,,641.3948162999877,642.4123097999836,642.4123097999836,642.4123097999836,642.4123097999836,None,642.4123097999836,,,,,,,,,,,,,,,,,,,,,,,,,,,,,,,,,,,,,,,,student1,2022-10-21_12h11.50.023,Hippopolis_Learning,2022.2.2,59.794879645729225,
Hippopolis,stimuli/subj_files/student1_cityA.csv,./stimuli/frankfurt.jpg,./stimuli/street_plate1.png,LAKAT UTCA,stimuli/objects/066a.jpg,object,2,stimuli/scenes/084a.jpg,stimuli/scenes/084b.jpg,stimuli/scenes/034a.jpg,stimuli/scenes/084a.jpg,stimuli/scenes/034b.jpg,lure,dist1,target,dist2,0,0,0,0,0,59,59,58,,,,,,,,,,,645.4112920000043,646.4240855000098,646.4240855000098,646.4240855000098,646.4240855000098,None,646.4240855000098,,,,,,,,,,,,,,,,,,,,,,,,,,,,,,,,,,,,,,,,student1,2022-10-21_12h11.50.023,Hippopolis_Learning,2022.2.2,59.794879645729225,
Hippopolis,stimuli/subj_files/student1_cityA.csv,./stimuli/frankfurt.jpg,./stimuli/street_plate1.png,HERNYÓ UTCA,stimuli/scenes/066a.jpg,scene,1,stimuli/scenes/037a.jpg,stimuli/scenes/037a.jpg,stimuli/objects/045b.jpg,stimuli/scenes/037b.jpg,stimuli/objects/045a.jpg,target,dist2,lure,dist1,0,0,0,0,0,60,60,5,,,,,,,,,,,649.4277668999857,650.439855900011,650.439855900011,650.439855900011,650.439855900011,None,650.439855900011,,,,,,,,,,,,,,,,,,,,,,,,,,,,,,,,,,,,,,,,student1,2022-10-21_12h11.50.023,Hippopolis_Learning,2022.2.2,59.794879645729225,
Hippopolis,stimuli/subj_files/student1_cityA.csv,./stimuli/frankfurt.jpg,./stimuli/street_plate1.png,HORDÓ UTCA,stimuli/scenes/095a.jpg,scene,0,stimuli/scenes/095a.jpg,stimuli/scenes/095a.jpg,stimuli/scenes/046a.jpg,stimuli/scenes/095b.jpg,stimuli/scenes/046b.jpg,target,dist1,lure,dist2,0,0,0,0,0,61,61,27,,,,,,,,,,,653.4447273999976,654.45822890001,654.45822890001,654.45822890001,654.45822890001,None,654.45822890001,,,,,,,,,,,,,,,,,,,,,,,,,,,,,,,,,,,,,,,,student1,2022-10-21_12h11.50.023,Hippopolis_Learning,2022.2.2,59.794879645729225,
Hippopolis,stimuli/subj_files/student1_cityA.csv,./stimuli/frankfurt.jpg,./stimuli/street_plate1.png,KARTON UTCA,stimuli/objects/101a.jpg,object,2,stimuli/scenes/044a.jpg,stimuli/scenes/074a.jpg,stimuli/scenes/044b.jpg,stimuli/scenes/044a.jpg,stimuli/scenes/074b.jpg,dist1,lure,target,dist2,0,0,0,0,0,62,62,8,,,,,,,,,,,657.4608592999866,658.4709377999825,658.4709377999825,658.4709377999825,658.4709377999825,None,658.4709377999825,,,,,,,,,,,,,,,,,,,,,,,,,,,,,,,,,,,,,,,,student1,2022-10-21_12h11.50.023,Hippopolis_Learning,2022.2.2,59.794879645729225,
Hippopolis,stimuli/subj_files/student1_cityA.csv,./stimuli/frankfurt.jpg,./stimuli/street_plate1.png,MUSTÁR UTCA,stimuli/scenes/050a.jpg,scene,0,stimuli/scenes/050a.jpg,stimuli/objects/009a.jpg,stimuli/objects/009b.jpg,stimuli/scenes/050a.jpg,stimuli/scenes/050b.jpg,dist1,dist2,target,lure,0,0,0,0,0,63,63,78,,,,,,,,,,,661.4775653000106,662.4857379999885,662.4857379999885,662.4857379999885,662.4857379999885,None,662.4857379999885,,,,,,,,,,,,,,,,,,,,,,,,,,,,,,,,,,,,,,,,student1,2022-10-21_12h11.50.023,Hippopolis_Learning,2022.2.2,59.794879645729225,
Hippopolis,stimuli/subj_files/student1_cityA.csv,./stimuli/frankfurt.jpg,./stimuli/street_plate1.png,PULÓVER UTCA,stimuli/objects/114a.jpg,object,0,stimuli/objects/114a.jpg,stimuli/scenes/050b.jpg,stimuli/scenes/050a.jpg,stimuli/objects/114b.jpg,stimuli/objects/114a.jpg,dist2,dist1,lure,target,0,0,0,0,0,64,64,43,,,,,,,,,,,665.4940490000008,666.5037991999998,666.5037991999998,666.5037991999998,666.5037991999998,None,666.5037991999998,,,,,,,,,,,,,,,,,,,,,,,,,,,,,,,,,,,,,,,,student1,2022-10-21_12h11.50.023,Hippopolis_Learning,2022.2.2,59.794879645729225,
Hippopolis,stimuli/subj_files/student1_cityA.csv,./stimuli/frankfurt.jpg,./stimuli/street_plate1.png,CSILLAG UTCA,stimuli/scenes/083a.jpg,scene,1,stimuli/scenes/117a.jpg,stimuli/scenes/117a.jpg,stimuli/scenes/117b.jpg,stimuli/objects/041a.jpg,stimuli/objects/041b.jpg,target,lure,dist1,dist2,0,0,0,0,0,65,65,15,,,,,,,,,,,669.5111581000092,670.5180462999851,670.5180462999851,670.5180462999851,670.5180462999851,None,670.5180462999851,,,,,,,,,,,,,,,,,,,,,,,,,,,,,,,,,,,,,,,,student1,2022-10-21_12h11.50.023,Hippopolis_Learning,2022.2.2,59.794879645729225,
Hippopolis,stimuli/subj_files/student1_cityA.csv,./stimuli/frankfurt.jpg,./stimuli/street_plate1.png,POGÁCSA UTCA,stimuli/scenes/046a.jpg,scene,0,stimuli/scenes/046a.jpg,stimuli/scenes/042a.jpg,stimuli/scenes/046a.jpg,stimuli/scenes/046b.jpg,stimuli/scenes/042b.jpg,dist1,target,lure,dist2,0,0,0,0,0,66,66,49,,,,,,,,,,,673.5273340999847,674.5326618999825,674.5326618999825,674.5326618999825,674.5326618999825,None,674.5326618999825,,,,,,,,,,,,,,,,,,,,,,,,,,,,,,,,,,,,,,,,student1,2022-10-21_12h11.50.023,Hippopolis_Learning,2022.2.2,59.794879645729225,
Hippopolis,stimuli/subj_files/student1_cityA.csv,./stimuli/frankfurt.jpg,./stimuli/street_plate1.png,HEGEDŰ UTCA,stimuli/scenes/113a.jpg,scene,2,stimuli/objects/036a.jpg,stimuli/objects/036b.jpg,stimuli/scenes/059b.jpg,stimuli/scenes/059a.jpg,stimuli/objects/036a.jpg,lure,dist2,dist1,target,0,0,0,0,0,67,67,69,,,,,,,,,,,677.5441695000045,678.561583200004,678.561583200004,678.561583200004,678.561583200004,None,678.561583200004,,,,,,,,,,,,,,,,,,,,,,,,,,,,,,,,,,,,,,,,student1,2022-10-21_12h11.50.023,Hippopolis_Learning,2022.2.2,59.794879645729225,
Hippopolis,stimuli/subj_files/student1_cityA.csv,./stimuli/frankfurt.jpg,./stimuli/street_plate1.png,EGÉR UTCA,stimuli/scenes/071a.jpg,scene,1,stimuli/scenes/116a.jpg,stimuli/scenes/116b.jpg,stimuli/scenes/116a.jpg,stimuli/scenes/009b.jpg,stimuli/scenes/009a.jpg,lure,target,dist2,dist1,0,0,0,0,0,68,68,29,,,,,,,,,,,681.5611334999849,682.573098599998,682.573098599998,682.573098599998,682.573098599998,None,682.573098599998,,,,,,,,,,,,,,,,,,,,,,,,,,,,,,,,,,,,,,,,student1,2022-10-21_12h11.50.023,Hippopolis_Learning,2022.2.2,59.794879645729225,
Hippopolis,stimuli/subj_files/student1_cityA.csv,./stimuli/frankfurt.jpg,./stimuli/street_plate1.png,MARTINI UTCA,stimuli/objects/060a.jpg,object,1,stimuli/objects/011a.jpg,stimuli/objects/075b.jpg,stimuli/objects/075a.jpg,stimuli/objects/011b.jpg,stimuli/objects/011a.jpg,dist2,dist1,lure,target,0,0,0,0,0,69,69,60,,,,,,,,,,,685.5776251000061,686.58723189999,686.58723189999,686.58723189999,686.58723189999,None,686.58723189999,,,,,,,,,,,,,,,,,,,,,,,,,,,,,,,,,,,,,,,,student1,2022-10-21_12h11.50.023,Hippopolis_Learning,2022.2.2,59.794879645729225,
Hippopolis,stimuli/subj_files/student1_cityA.csv,./stimuli/frankfurt.jpg,./stimuli/street_plate1.png,KÖMÉNYMAG UTCA,stimuli/objects/068a.jpg,object,1,stimuli/objects/045a.jpg,stimuli/objects/045a.jpg,stimuli/objects/045b.jpg,stimuli/objects/071a.jpg,stimuli/objects/071b.jpg,target,lure,dist1,dist2,0,0,0,0,0,70,70,18,,,,,,,,,,,689.5938078000036,690.6103121000051,690.6103121000051,690.6103121000051,690.6103121000051,None,690.6103121000051,,,,,,,,,,,,,,,,,,,,,,,,,,,,,,,,,,,,,,,,student1,2022-10-21_12h11.50.023,Hippopolis_Learning,2022.2.2,59.794879645729225,
Hippopolis,stimuli/subj_files/student1_cityA.csv,./stimuli/frankfurt.jpg,./stimuli/street_plate1.png,SZIKLA UTCA,stimuli/scenes/111a.jpg,scene,2,stimuli/objects/073a.jpg,stimuli/objects/120b.jpg,stimuli/objects/120a.jpg,stimuli/objects/073a.jpg,stimuli/objects/073b.jpg,dist2,dist1,target,lure,0,0,0,0,0,71,71,1,,,,,,,,,,,693.6109272000031,694.6315445000073,694.6315445000073,694.6315445000073,694.6315445000073,None,694.6315445000073,,,,,,,,,,,,,,,,,,,,,,,,,,,,,,,,,,,,,,,,student1,2022-10-21_12h11.50.023,Hippopolis_Learning,2022.2.2,59.794879645729225,
Hippopolis,stimuli/subj_files/student1_cityA.csv,./stimuli/frankfurt.jpg,./stimuli/street_plate1.png,KECSKE UTCA,stimuli/scenes/085a.jpg,scene,2,stimuli/objects/022a.jpg,stimuli/objects/022b.jpg,stimuli/objects/022a.jpg,stimuli/scenes/053a.jpg,stimuli/scenes/053b.jpg,lure,target,dist1,dist2,0,0,0,0,0,72,72,6,,,,,,,,,,,697.6271568000084,698.6335370999877,698.6335370999877,698.6335370999877,698.6335370999877,None,698.6335370999877,,,,,,,,,,,,,,,,,,,,,,,,,,,,,,,,,,,,,,,,student1,2022-10-21_12h11.50.023,Hippopolis_Learning,2022.2.2,59.794879645729225,
Hippopolis,stimuli/subj_files/student1_cityA.csv,./stimuli/frankfurt.jpg,./stimuli/street_plate1.png,FOGAS UTCA,stimuli/scenes/025a.jpg,scene,1,stimuli/scenes/018a.jpg,stimuli/scenes/018b.jpg,stimuli/scenes/064a.jpg,stimuli/scenes/018a.jpg,stimuli/scenes/064b.jpg,lure,dist1,target,dist2,0,0,0,0,0,73,73,38,,,,,,,,,,,701.643662699993,702.6498489000078,702.6498489000078,702.6498489000078,702.6498489000078,None,702.6498489000078,,,,,,,,,,,,,,,,,,,,,,,,,,,,,,,,,,,,,,,,student1,2022-10-21_12h11.50.023,Hippopolis_Learning,2022.2.2,59.794879645729225,
Hippopolis,stimuli/subj_files/student1_cityA.csv,./stimuli/frankfurt.jpg,./stimuli/street_plate1.png,HÁRFA UTCA,stimuli/objects/083a.jpg,object,2,stimuli/scenes/028a.jpg,stimuli/scenes/028b.jpg,stimuli/objects/012b.jpg,stimuli/objects/012a.jpg,stimuli/scenes/028a.jpg,lure,dist2,dist1,target,0,0,0,0,0,74,74,16,,,,,,,,,,,705.6603534999886,706.6691105999926,706.6691105999926,706.6691105999926,706.6691105999926,None,706.6691105999926,,,,,,,,,,,,,,,,,,,,,,,,,,,,,,,,,,,,,,,,student1,2022-10-21_12h11.50.023,Hippopolis_Learning,2022.2.2,59.794879645729225,
Hippopolis,stimuli/subj_files/student1_cityA.csv,./stimuli/frankfurt.jpg,./stimuli/street_plate1.png,MOGYORÓ UTCA,stimuli/objects/106a.jpg,object,1,stimuli/objects/103a.jpg,stimuli/scenes/116a.jpg,stimuli/objects/103b.jpg,stimuli/objects/103a.jpg,stimuli/scenes/116b.jpg,dist1,lure,target,dist2,0,0,0,0,0,75,75,54,,,,,,,,,,,709.6769813999999,710.6978493999923,710.6978493999923,710.6978493999923,710.6978493999923,None,710.6978493999923,,,,,,,,,,,,,,,,,,,,,,,,,,,,,,,,,,,,,,,,student1,2022-10-21_12h11.50.023,Hippopolis_Learning,2022.2.2,59.794879645729225,
Hippopolis,stimuli/subj_files/student1_cityA.csv,./stimuli/frankfurt.jpg,./stimuli/street_plate1.png,PÉKSÉG UTCA,stimuli/scenes/073a.jpg,scene,2,stimuli/objects/059a.jpg,stimuli/objects/059a.jpg,stimuli/objects/046b.jpg,stimuli/objects/059b.jpg,stimuli/objects/046a.jpg,target,dist2,lure,dist1,0,0,0,0,0,76,76,61,,,,,,,,,,,713.6937787999923,714.7022563999926,714.7022563999926,714.7022563999926,714.7022563999926,None,714.7022563999926,,,,,,,,,,,,,,,,,,,,,,,,,,,,,,,,,,,,,,,,student1,2022-10-21_12h11.50.023,Hippopolis_Learning,2022.2.2,59.794879645729225,
Hippopolis,stimuli/subj_files/student1_cityA.csv,./stimuli/frankfurt.jpg,./stimuli/street_plate1.png,LÁNDZSA UTCA,stimuli/scenes/090a.jpg,scene,0,stimuli/scenes/090a.jpg,stimuli/scenes/090a.jpg,stimuli/objects/091b.jpg,stimuli/scenes/090b.jpg,stimuli/objects/091a.jpg,target,dist2,lure,dist1,0,0,0,0,0,77,77,39,,,,,,,,,,,717.7104581999884,718.717574499984,718.717574499984,718.717574499984,718.717574499984,None,718.717574499984,,,,,,,,,,,,,,,,,,,,,,,,,,,,,,,,,,,,,,,,student1,2022-10-21_12h11.50.023,Hippopolis_Learning,2022.2.2,59.794879645729225,
Hippopolis,stimuli/subj_files/student1_cityA.csv,./stimuli/frankfurt.jpg,./stimuli/street_plate1.png,OROSZLÁN UTCA,stimuli/scenes/072a.jpg,scene,0,stimuli/scenes/072a.jpg,stimuli/scenes/072a.jpg,stimuli/scenes/072b.jpg,stimuli/scenes/027b.jpg,stimuli/scenes/027a.jpg,target,lure,dist2,dist1,0,0,0,0,0,78,78,66,,,,,,,,,,,721.7266709999822,722.7333539999963,722.7333539999963,722.7333539999963,722.7333539999963,None,722.7333539999963,,,,,,,,,,,,,,,,,,,,,,,,,,,,,,,,,,,,,,,,student1,2022-10-21_12h11.50.023,Hippopolis_Learning,2022.2.2,59.794879645729225,
Hippopolis,stimuli/subj_files/student1_cityA.csv,./stimuli/frankfurt.jpg,./stimuli/street_plate1.png,CITROM UTCA,stimuli/scenes/036a.jpg,scene,2,stimuli/objects/043a.jpg,stimuli/objects/043b.jpg,stimuli/objects/067a.jpg,stimuli/objects/043a.jpg,stimuli/objects/067b.jpg,lure,dist1,target,dist2,0,0,0,0,0,79,79,26,,,,,,,,,,,725.7434167999891,726.7518946999917,726.7518946999917,726.7518946999917,726.7518946999917,None,726.7518946999917,,,,,,,,,,,,,,,,,,,,,,,,,,,,,,,,,,,,,,,,student1,2022-10-21_12h11.50.023,Hippopolis_Learning,2022.2.2,59.794879645729225,
Hippopolis,stimuli/subj_files/student1_cityA.csv,./stimuli/frankfurt.jpg,./stimuli/street_plate1.png,BAGOLY UTCA,stimuli/scenes/029a.jpg,scene,2,stimuli/objects/028a.jpg,stimuli/objects/028b.jpg,stimuli/objects/028a.jpg,stimuli/scenes/028a.jpg,stimuli/scenes/028b.jpg,lure,target,dist1,dist2,0,0,0,0,,,,,0,0,0,21,,,,,,,737.3994403000106,,,,,,738.4132746999967,,,,,,,,729.7598596999887,729.7598596999887,space,3.596979000023566,733.3942917000095,733.3942917000095,733.3942917000095,733.3942917000095,733.3942917000095,733.3942917000095,None,None,,,,,,,,,,,,,,,,,,,,,student1,2022-10-21_12h11.50.023,Hippopolis_Learning,2022.2.2,59.794879645729225,
Hippopolis,stimuli/subj_files/student1_cityA.csv,./stimuli/frankfurt.jpg,./stimuli/street_plate1.png,FÉNYKÉP UTCA,stimuli/scenes/010a.jpg,scene,1,stimuli/scenes/078a.jpg,stimuli/scenes/088a.jpg,stimuli/scenes/078a.jpg,stimuli/scenes/088b.jpg,stimuli/scenes/078b.jpg,dist1,target,dist2,lure,0,0,0,0,,,,,0,1,1,32,,,,,,,742.4261485000025,,,,,,743.4265441999887,,,,,,,,,,,,738.4132746999967,738.4132746999967,738.4132746999967,738.4132746999967,738.4132746999967,738.4132746999967,None,None,,,,,,,,,,,,,,,,,,,,,student1,2022-10-21_12h11.50.023,Hippopolis_Learning,2022.2.2,59.794879645729225,
Hippopolis,stimuli/subj_files/student1_cityA.csv,./stimuli/frankfurt.jpg,./stimuli/street_plate1.png,PETÁRDA UTCA,stimuli/objects/009a.jpg,object,0,stimuli/objects/009a.jpg,stimuli/objects/009a.jpg,stimuli/scenes/051a.jpg,stimuli/objects/009b.jpg,stimuli/scenes/051b.jpg,target,dist1,lure,dist2,0,0,0,0,,,,,0,2,2,64,,,,,,,747.3268248999957,,,,,,748.3277562999865,,,,,,,,,,,,743.4265441999887,743.4265441999887,743.4265441999887,743.4265441999887,743.4265441999887,743.4265441999887,left,None,3.8822466999990866,,,,,,,,,,,,,,,,,,,,student1,2022-10-21_12h11.50.023,Hippopolis_Learning,2022.2.2,59.794879645729225,
Hippopolis,stimuli/subj_files/student1_cityA.csv,./stimuli/frankfurt.jpg,./stimuli/street_plate1.png,LAKAT UTCA,stimuli/objects/066a.jpg,object,2,stimuli/scenes/084a.jpg,stimuli/scenes/084b.jpg,stimuli/scenes/034a.jpg,stimuli/scenes/084a.jpg,stimuli/scenes/034b.jpg,lure,dist1,target,dist2,0,0,0,0,,,,,0,3,3,58,,,,,,,751.7624664999894,,,,,,,,,,,,,,,,,,748.3277562999865,748.3277562999865,748.3277562999865,748.3277562999865,748.3277562999865,748.3277562999865,right,None,3.4084471999958623,,,,,,,,,,,,,,,,,,,,student1,2022-10-21_12h11.50.023,Hippopolis_Learning,2022.2.2,59.794879645729225,
Hippopolis,stimuli/subj_files/student1_cityA.csv,./stimuli/frankfurt.jpg,./stimuli/street_plate1.png,KERÉK UTCA,stimuli/scenes/096a.jpg,scene,1,stimuli/scenes/041a.jpg,stimuli/scenes/117a.jpg,stimuli/scenes/041b.jpg,stimuli/scenes/041a.jpg,stimuli/scenes/117b.jpg,dist1,lure,target,dist2,0,0,0,0,,,,,0,4,4,20,,,,,,,756.777222100005,,,,,,757.7778102000011,,,,,,,,,,,,752.7766784999985,752.7766784999985,752.7766784999985,752.7766784999985,752.7766784999985,752.7766784999985,None,None,,,,,,,,,,,,,,,,,,,,,student1,2022-10-21_12h11.50.023,Hippopolis_Learning,2022.2.2,59.794879645729225,
Hippopolis,stimuli/subj_files/student1_cityA.csv,./stimuli/frankfurt.jpg,./stimuli/street_plate1.png,DOMINÓ UTCA,stimuli/scenes/042a.jpg,scene,0,stimuli/scenes/042a.jpg,stimuli/scenes/042a.jpg,stimuli/scenes/042b.jpg,stimuli/objects/070a.jpg,stimuli/objects/070b.jpg,target,lure,dist1,dist2,0,0,0,0,,,,,0,5,5,63,,,,,,,761.3443045000022,,,,,,,,,,,,,,,,,,757.7778102000011,757.7778102000011,757.7778102000011,757.7778102000011,757.7778102000011,757.7778102000011,right,None,3.5490364999859594,,,,,,,,,,,,,,,,,,,,student1,2022-10-21_12h11.50.023,Hippopolis_Learning,2022.2.2,59.794879645729225,
Hippopolis,stimuli/subj_files/student1_cityA.csv,./stimuli/frankfurt.jpg,./stimuli/street_plate1.png,PULÓVER UTCA,stimuli/objects/114a.jpg,object,0,stimuli/objects/114a.jpg,stimuli/scenes/050b.jpg,stimuli/scenes/050a.jpg,stimuli/objects/114b.jpg,stimuli/objects/114a.jpg,dist2,dist1,lure,target,0,0,0,0,,,,,0,6,6,43,,,,,,,780.1423098999949,,,,,,781.1492072999827,,,,,,,,,,,,762.3645436000079,762.3645436000079,762.3645436000079,762.3645436000079,762.3645436000079,762.3645436000079,right,space,2.0175065000075847,764.4134604999854,764.4134604999854,764.4134604999854,764.4134604999854,764.4134604999854,15.707579800015083,,,,,,,,,,,,,,student1,2022-10-21_12h11.50.023,Hippopolis_Learning,2022.2.2,59.794879645729225,
Hippopolis,stimuli/subj_files/student1_cityA.csv,./stimuli/frankfurt.jpg,./stimuli/street_plate1.png,MOCSÁR UTCA,stimuli/objects/080a.jpg,object,0,stimuli/objects/080a.jpg,stimuli/objects/080b.jpg,stimuli/objects/080a.jpg,stimuli/scenes/043b.jpg,stimuli/scenes/043a.jpg,lure,target,dist2,dist1,0,0,0,0,,,,,0,7,7,17,,,,,,,783.1595285999938,,,,,,784.159078800003,,,,,,,,,,,,781.1492072999827,781.1492072999827,781.1492072999827,781.1492072999827,781.1492072999827,781.1492072999827,left,None,1.9820827000075951,,,,,,,,,,,,,,,,,,,,student1,2022-10-21_12h11.50.023,Hippopolis_Learning,2022.2.2,59.794879645729225,
Hippopolis,stimuli/subj_files/student1_cityA.csv,./stimuli/frankfurt.jpg,./stimuli/street_plate1.png,SZIKLA UTCA,stimuli/scenes/111a.jpg,scene,2,stimuli/objects/073a.jpg,stimuli/objects/120b.jpg,stimuli/objects/120a.jpg,stimuli/objects/073a.jpg,stimuli/objects/073b.jpg,dist2,dist1,target,lure,0,0,0,0,,,,,0,8,8,1,,,,,,,786.0587450999883,,,,,,787.0610097000026,,,,,,,,,,,,784.159078800003,784.159078800003,784.159078800003,784.159078800003,784.159078800003,784.159078800003,right,None,1.8799736000073608,,,,,,,,,,,,,,,,,,,,student1,2022-10-21_12h11.50.023,Hippopolis_Learning,2022.2.2,59.794879645729225,
Hippopolis,stimuli/subj_files/student1_cityA.csv,./stimuli/frankfurt.jpg,./stimuli/street_plate1.png,ZSEMLE UTCA,stimuli/objects/115a.jpg,object,1,stimuli/objects/053a.jpg,stimuli/objects/007a.jpg,stimuli/objects/053a.jpg,stimuli/objects/007b.jpg,stimuli/objects/053b.jpg,dist1,target,dist2,lure,0,0,0,0,,,,,0,9,9,47,,,,,,,789.0425572000095,,,,,,790.0438109000097,,,,,,,,,,,,787.0610097000026,787.0610097000026,787.0610097000026,787.0610097000026,787.0610097000026,787.0610097000026,left,None,1.9531720000086352,,,,,,,,,,,,,,,,,,,,student1,2022-10-21_12h11.50.023,Hippopolis_Learning,2022.2.2,59.794879645729225,
Hippopolis,stimuli/subj_files/student1_cityA.csv,./stimuli/frankfurt.jpg,./stimuli/street_plate1.png,KERET UTCA,stimuli/scenes/027a.jpg,scene,0,stimuli/scenes/027a.jpg,stimuli/objects/100a.jpg,stimuli/objects/100b.jpg,stimuli/scenes/027a.jpg,stimuli/scenes/027b.jpg,dist1,dist2,target,lure,0,0,0,0,,,,,0,10,10,3,,,,,,,799.0085226999945,,,,,,800.0088633999985,,,,,,,,,,,,790.0438109000097,790.0438109000097,790.0438109000097,790.0438109000097,790.0438109000097,790.0438109000097,right,space,1.6110961000085808,791.6789986999938,791.6789986999938,791.6789986999938,791.6789986999938,791.6789986999938,7.306976599997142,,,,,,,,,,,,,,student1,2022-10-21_12h11.50.023,Hippopolis_Learning,2022.2.2,59.794879645729225,
Hippopolis,stimuli/subj_files/student1_cityA.csv,./stimuli/frankfurt.jpg,./stimuli/street_plate1.png,MUSTÁR UTCA,stimuli/scenes/050a.jpg,scene,0,stimuli/scenes/050a.jpg,stimuli/objects/009a.jpg,stimuli/objects/009b.jpg,stimuli/scenes/050a.jpg,stimuli/scenes/050b.jpg,dist1,dist2,target,lure,0,0,0,0,,,,,0,11,11,78,,,,,,,802.3918721000082,,,,,,803.3946544000064,,,,,,,,,,,,800.0088633999985,800.0088633999985,800.0088633999985,800.0088633999985,800.0088633999985,800.0088633999985,right,None,2.357321499992395,,,,,,,,,,,,,,,,,,,,student1,2022-10-21_12h11.50.023,Hippopolis_Learning,2022.2.2,59.794879645729225,
Hippopolis,stimuli/subj_files/student1_cityA.csv,./stimuli/frankfurt.jpg,./stimuli/street_plate1.png,OLDAL UTCA,stimuli/scenes/093a.jpg,scene,2,stimuli/objects/107a.jpg,stimuli/objects/107b.jpg,stimuli/objects/022a.jpg,stimuli/objects/107a.jpg,stimuli/objects/022b.jpg,lure,dist1,target,dist2,0,0,0,0,,,,,0,12,12,11,,,,,,,805.8107333999942,,,,,,,,,,,,,,,,,,803.3946544000064,803.3946544000064,803.3946544000064,803.3946544000064,803.3946544000064,803.3946544000064,left,None,2.384412200015504,,,,,,,,,,,,,,,,,,,,student1,2022-10-21_12h11.50.023,Hippopolis_Learning,2022.2.2,59.794879645729225,
Hippopolis,stimuli/subj_files/student1_cityA.csv,./stimuli/frankfurt.jpg,./stimuli/street_plate1.png,TALICSKA UTCA,stimuli/objects/014a.jpg,object,1,stimuli/objects/108a.jpg,stimuli/objects/109a.jpg,stimuli/objects/109b.jpg,stimuli/objects/108a.jpg,stimuli/objects/108b.jpg,dist1,dist2,target,lure,0,0,0,0,,,,,0,13,13,13,,,,,,,810.6588045000099,,,,,,811.6595277999877,,,,,,,,,,,,806.8256908000039,806.8256908000039,806.8256908000039,806.8256908000039,806.8256908000039,806.8256908000039,right,None,3.8061611000157427,,,,,,,,,,,,,,,,,,,,student1,2022-10-21_12h11.50.023,Hippopolis_Learning,2022.2.2,59.794879645729225,
Hippopolis,stimuli/subj_files/student1_cityA.csv,./stimuli/frankfurt.jpg,./stimuli/street_plate1.png,FIÓK UTCA,stimuli/scenes/002a.jpg,scene,1,stimuli/scenes/014a.jpg,stimuli/scenes/014a.jpg,stimuli/objects/004a.jpg,stimuli/objects/004b.jpg,stimuli/scenes/014b.jpg,target,dist1,dist2,lure,0,0,0,0,,,,,0,14,14,73,,,,,,,814.2260065999872,,,,,,815.2254117999983,,,,,,,,,,,,811.6595277999877,811.6595277999877,811.6595277999877,811.6595277999877,811.6595277999877,811.6595277999877,left,None,2.534161799994763,,,,,,,,,,,,,,,,,,,,student1,2022-10-21_12h11.50.023,Hippopolis_Learning,2022.2.2,59.794879645729225,
Hippopolis,stimuli/subj_files/student1_cityA.csv,./stimuli/frankfurt.jpg,./stimuli/street_plate1.png,PAPAGÁJ UTCA,stimuli/objects/093a.jpg,object,2,stimuli/scenes/097a.jpg,stimuli/scenes/097a.jpg,stimuli/scenes/109b.jpg,stimuli/scenes/109a.jpg,stimuli/scenes/097b.jpg,target,dist2,dist1,lure,0,0,0,0,,,,,0,15,15,55,,,,,,,817.2749059000053,,,,,,818.2749287000042,,,,,,,,,,,,815.2254117999983,815.2254117999983,815.2254117999983,815.2254117999983,815.2254117999983,815.2254117999983,right,None,2.021166499995161,,,,,,,,,,,,,,,,,,,,student1,2022-10-21_12h11.50.023,Hippopolis_Learning,2022.2.2,59.794879645729225,
Hippopolis,stimuli/subj_files/student1_cityA.csv,./stimuli/frankfurt.jpg,./stimuli/street_plate1.png,HEGEDŰ UTCA,stimuli/scenes/113a.jpg,scene,2,stimuli/objects/036a.jpg,stimuli/objects/036b.jpg,stimuli/scenes/059b.jpg,stimuli/scenes/059a.jpg,stimuli/objects/036a.jpg,lure,dist2,dist1,target,0,0,0,0,,,,,0,16,16,69,,,,,,,828.2081504999951,,,,,,829.209388599993,,,,,,,,,,,,818.2749287000042,818.2749287000042,818.2749287000042,818.2749287000042,818.2749287000042,818.2749287000042,right,space,2.466153499990469,820.7619797000079,820.7619797000079,820.7619797000079,820.7619797000079,820.7619797000079,7.419384899985744,,,,,,,,,,,,,,student1,2022-10-21_12h11.50.023,Hippopolis_Learning,2022.2.2,59.794879645729225,
Hippopolis,stimuli/subj_files/student1_cityA.csv,./stimuli/frankfurt.jpg,./stimuli/street_plate1.png,MOTOR UTCA,stimuli/objects/097a.jpg,object,1,stimuli/objects/071a.jpg,stimuli/objects/015b.jpg,stimuli/objects/071b.jpg,stimuli/objects/071a.jpg,stimuli/objects/015a.jpg,dist2,lure,target,dist1,0,0,0,0,,,,,0,17,17,36,,,,,,,838.4245989999908,,,,,,839.425456099998,,,,,,,,,,,,829.209388599993,829.209388599993,829.209388599993,829.209388599993,829.209388599993,829.209388599993,right,space,2.27365750001627,831.510275699984,831.510275699984,831.510275699984,831.510275699984,831.510275699984,6.8847767999977805,,,,,,,,,,,,,,student1,2022-10-21_12h11.50.023,Hippopolis_Learning,2022.2.2,59.794879645729225,
Hippopolis,stimuli/subj_files/student1_cityA.csv,./stimuli/frankfurt.jpg,./stimuli/street_plate1.png,TOBOZ UTCA,stimuli/objects/001a.jpg,object,2,stimuli/scenes/059a.jpg,stimuli/scenes/059a.jpg,stimuli/objects/085a.jpg,stimuli/objects/085b.jpg,stimuli/scenes/059b.jpg,target,dist1,dist2,lure,0,0,0,0,,,,,0,18,18,40,,,,,,,841.1763311999966,,,,,,,,,,,,,,,,,,839.425456099998,839.425456099998,839.425456099998,839.425456099998,839.425456099998,839.425456099998,left,None,1.7319843999866862,,,,,,,,,,,,,,,,,,,,student1,2022-10-21_12h11.50.023,Hippopolis_Learning,2022.2.2,59.794879645729225,
Hippopolis,stimuli/subj_files/student1_cityA.csv,./stimuli/frankfurt.jpg,./stimuli/street_plate1.png,FÓKA UTCA,stimuli/scenes/058a.jpg,scene,0,stimuli/scenes/058a.jpg,stimuli/scenes/058a.jpg,stimuli/scenes/058b.jpg,stimuli/objects/111b.jpg,stimuli/objects/111a.jpg,target,lure,dist2,dist1,0,0,0,0,,,,,0,19,19,51,,,,,,,846.1911158000003,,,,,,847.1921505999926,,,,,,,,,,,,842.1920319999917,842.1920319999917,842.1920319999917,842.1920319999917,842.1920319999917,842.1920319999917,None,None,,,,,,,,,,,,,,,,,,,,,student1,2022-10-21_12h11.50.023,Hippopolis_Learning,2022.2.2,59.794879645729225,
Hippopolis,stimuli/subj_files/student1_cityA.csv,./stimuli/frankfurt.jpg,./stimuli/street_plate1.png,VASALÓ UTCA,stimuli/objects/025a.jpg,object,2,stimuli/scenes/056a.jpg,stimuli/scenes/044a.jpg,stimuli/scenes/056b.jpg,stimuli/scenes/056a.jpg,stimuli/scenes/044b.jpg,dist1,lure,target,dist2,0,0,0,0,,,,,0,20,20,70,,,,,,,851.1911443999852,,,,,,852.1914978999994,,,,,,,,,,,,847.1921505999926,847.1921505999926,847.1921505999926,847.1921505999926,847.1921505999926,847.1921505999926,None,None,,,,,,,,851.1911443999852,851.1911443999852,851.1911443999852,851.1911443999852,851.1911443999852,851.1911443999852,,,,,,,,student1,2022-10-21_12h11.50.023,Hippopolis_Learning,2022.2.2,59.794879645729225,
Hippopolis,stimuli/subj_files/student1_cityA.csv,./stimuli/frankfurt.jpg,./stimuli/street_plate1.png,KÖTÉNY UTCA,stimuli/scenes/031a.jpg,scene,1,stimuli/scenes/064a.jpg,stimuli/objects/103a.jpg,stimuli/objects/103b.jpg,stimuli/scenes/064b.jpg,stimuli/scenes/064a.jpg,dist1,dist2,lure,target,0,0,0,0,,,,,0,21,21,22,,,,,,,854.6763883999956,,,,,,,,,,,,,,,,,,852.1914978999994,852.1914978999994,852.1914978999994,852.1914978999994,852.1914978999994,852.1914978999994,left,None,2.461870099999942,,,,,,,,,,,,,,,,,,,,student1,2022-10-21_12h11.50.023,Hippopolis_Learning,2022.2.2,59.794879645729225,
Hippopolis,stimuli/subj_files/student1_cityA.csv,./stimuli/frankfurt.jpg,./stimuli/street_plate1.png,SZOMSZÉD UTCA,stimuli/objects/026a.jpg,object,1,stimuli/objects/004a.jpg,stimuli/objects/027b.jpg,stimuli/objects/004b.jpg,stimuli/objects/004a.jpg,stimuli/objects/027a.jpg,dist2,lure,target,dist1,0,0,0,0,,,,,0,22,22,65,,,,,,,863.3745740999875,,,,,,864.3816482000111,,,,,,,,,,,,855.6914556999982,855.6914556999982,855.6914556999982,855.6914556999982,855.6914556999982,855.6914556999982,right,space,2.491418900026474,858.2084613000043,858.2084613000043,858.2084613000043,858.2084613000043,858.2084613000043,5.142075000010664,,,,,,,,,,,,,,student1,2022-10-21_12h11.50.023,Hippopolis_Learning,2022.2.2,59.794879645729225,
Hippopolis,stimuli/subj_files/student1_cityA.csv,./stimuli/frankfurt.jpg,./stimuli/street_plate1.png,HEGESZTŐ UTCA,stimuli/scenes/043a.jpg,scene,0,stimuli/scenes/043a.jpg,stimuli/scenes/043b.jpg,stimuli/scenes/043a.jpg,stimuli/objects/062a.jpg,stimuli/objects/062b.jpg,lure,target,dist1,dist2,0,0,0,0,,,,,0,23,23,77,,,,,,,872.7243146999972,,,,,,873.7242205000075,,,,,,,,,,,,864.3816482000111,864.3816482000111,864.3816482000111,864.3816482000111,864.3816482000111,864.3816482000111,right,space,1.73657920002006,866.1429392999853,866.1429392999853,866.1429392999853,866.1429392999853,866.1429392999853,6.559845999989193,,,,,,,,,,,,,,student1,2022-10-21_12h11.50.023,Hippopolis_Learning,2022.2.2,59.794879645729225,
Hippopolis,stimuli/subj_files/student1_cityA.csv,./stimuli/frankfurt.jpg,./stimuli/street_plate1.png,KÖNYVTÁR UTCA,stimuli/objects/113a.jpg,object,1,stimuli/objects/109a.jpg,stimuli/objects/109a.jpg,stimuli/objects/109b.jpg,stimuli/scenes/067a.jpg,stimuli/scenes/067b.jpg,target,lure,dist1,dist2,0,0,0,0,,,,,0,24,24,42,,,,,,,877.4416736999992,,,,,,878.4437612000038,,,,,,,,,,,,873.7242205000075,873.7242205000075,873.7242205000075,873.7242205000075,873.7242205000075,873.7242205000075,right,None,3.6931719000276644,,,,,,,,,,,,,,,,,,,,student1,2022-10-21_12h11.50.023,Hippopolis_Learning,2022.2.2,59.794879645729225,
Hippopolis,stimuli/subj_files/student1_cityA.csv,./stimuli/frankfurt.jpg,./stimuli/street_plate1.png,BONBON UTCA,stimuli/objects/095a.jpg,object,2,stimuli/scenes/007a.jpg,stimuli/objects/028b.jpg,stimuli/objects/028a.jpg,stimuli/scenes/007a.jpg,stimuli/scenes/007b.jpg,dist2,dist1,target,lure,0,0,0,0,,,,,0,25,25,72,,,,,,,880.4411974000104,,,,,,881.4409696999937,,,,,,,,,,,,878.4437612000038,878.4437612000038,878.4437612000038,878.4437612000038,878.4437612000038,878.4437612000038,left,None,1.9737129000131972,,,,,,,,,,,,,,,,,,,,student1,2022-10-21_12h11.50.023,Hippopolis_Learning,2022.2.2,59.794879645729225,
Hippopolis,stimuli/subj_files/student1_cityA.csv,./stimuli/frankfurt.jpg,./stimuli/street_plate1.png,CITROM UTCA,stimuli/scenes/036a.jpg,scene,2,stimuli/objects/043a.jpg,stimuli/objects/043b.jpg,stimuli/objects/067a.jpg,stimuli/objects/043a.jpg,stimuli/objects/067b.jpg,lure,dist1,target,dist2,0,0,0,0,,,,,0,26,26,26,,,,,,,882.8069925000018,,,,,,883.8121497000102,,,,,,,,,,,,881.4409696999937,881.4409696999937,881.4409696999937,881.4409696999937,881.4409696999937,881.4409696999937,right,None,1.334875100001227,,,,,,,,,,,,,,,,,,,,student1,2022-10-21_12h11.50.023,Hippopolis_Learning,2022.2.2,59.794879645729225,
Hippopolis,stimuli/subj_files/student1_cityA.csv,./stimuli/frankfurt.jpg,./stimuli/street_plate1.png,TERASZ UTCA,stimuli/objects/063a.jpg,object,2,stimuli/scenes/104a.jpg,stimuli/scenes/104a.jpg,stimuli/scenes/056a.jpg,stimuli/scenes/104b.jpg,stimuli/scenes/056b.jpg,target,dist1,lure,dist2,0,0,0,0,,,,,0,27,27,48,,,,,,,887.7595733999915,,,,,,,,,,,,,,,,,,883.8121497000102,883.8121497000102,883.8121497000102,883.8121497000102,883.8121497000102,883.8121497000102,left,None,3.915398000011919,,,,,,,,,,,,,,,,,,,,student1,2022-10-21_12h11.50.023,Hippopolis_Learning,2022.2.2,59.794879645729225,
Hippopolis,stimuli/subj_files/student1_cityA.csv,./stimuli/frankfurt.jpg,./stimuli/street_plate1.png,KULLANCS UTCA,stimuli/objects/089a.jpg,object,0,stimuli/objects/089a.jpg,stimuli/scenes/072a.jpg,stimuli/objects/089a.jpg,stimuli/scenes/072b.jpg,stimuli/objects/089b.jpg,dist1,target,dist2,lure,0,0,0,0,,,,,0,28,28,34,,,,,,,898.6903273999924,,,,,,899.6910702000023,,,,,,,,,,,,888.7745757999946,888.7745757999946,888.7745757999946,888.7745757999946,888.7745757999946,888.7745757999946,right,space,3.0921885000134353,891.8965931999846,891.8965931999846,891.8965931999846,891.8965931999846,891.8965931999846,6.762508400017396,,,,,,,,,,,,,,student1,2022-10-21_12h11.50.023,Hippopolis_Learning,2022.2.2,59.794879645729225,
Hippopolis,stimuli/subj_files/student1_cityA.csv,./stimuli/frankfurt.jpg,./stimuli/street_plate1.png,CUKOR UTCA,stimuli/objects/111a.jpg,object,0,stimuli/objects/111a.jpg,stimuli/objects/089b.jpg,stimuli/objects/111b.jpg,stimuli/objects/111a.jpg,stimuli/objects/089a.jpg,dist2,lure,target,dist1,0,0,0,0,,,,,0,29,29,30,,,,,,,901.6748401999939,,,,,,,,,,,,,,,,,,899.6910702000023,899.6910702000023,899.6910702000023,899.6910702000023,899.6910702000023,899.6910702000023,left,None,1.9583895000105258,,,,,,,,,,,,,,,,,,,,student1,2022-10-21_12h11.50.023,Hippopolis_Learning,2022.2.2,59.794879645729225,
Hippopolis,stimuli/subj_files/student1_cityA.csv,./stimuli/frankfurt.jpg,./stimuli/street_plate1.png,PAPUCS UTCA,stimuli/scenes/051a.jpg,scene,0,stimuli/scenes/051a.jpg,stimuli/scenes/051b.jpg,stimuli/scenes/051a.jpg,stimuli/scenes/090a.jpg,stimuli/scenes/090b.jpg,lure,target,dist1,dist2,0,0,0,0,,,,,0,30,30,68,,,,,,,904.3092144999828,,,,,,,,,,,,,,,,,,902.6909850999946,902.6909850999946,902.6909850999946,902.6909850999946,902.6909850999946,902.6909850999946,left,None,1.5948015000030864,,,,,,,,,,,,,,,,,,,,student1,2022-10-21_12h11.50.023,Hippopolis_Learning,2022.2.2,59.794879645729225,
Hippopolis,stimuli/subj_files/student1_cityA.csv,./stimuli/frankfurt.jpg,./stimuli/street_plate1.png,RÁDIÓ UTCA,stimuli/scenes/068a.jpg,scene,1,stimuli/scenes/067a.jpg,stimuli/scenes/018b.jpg,stimuli/scenes/067a.jpg,stimuli/scenes/067b.jpg,stimuli/scenes/018a.jpg,dist2,target,lure,dist1,0,0,0,0,,,,,0,31,31,44,,,,,,,907.3730795999872,,,,,,908.3749884999997,,,,,,,,,,,,905.323836399999,905.323836399999,905.323836399999,905.323836399999,905.323836399999,905.323836399999,left,None,2.021725900005549,,,,,,,,,,,,,,,,,,,,student1,2022-10-21_12h11.50.023,Hippopolis_Learning,2022.2.2,59.794879645729225,
Hippopolis,stimuli/subj_files/student1_cityA.csv,./stimuli/frankfurt.jpg,./stimuli/street_plate1.png,KÖMÉNYMAG UTCA,stimuli/objects/068a.jpg,object,1,stimuli/objects/045a.jpg,stimuli/objects/045a.jpg,stimuli/objects/045b.jpg,stimuli/objects/071a.jpg,stimuli/objects/071b.jpg,target,lure,dist1,dist2,0,0,0,0,,,,,0,32,32,18,,,,,,,917.6901547999878,,,,,,918.6989266999881,,,,,,,,,,,,908.3749884999997,908.3749884999997,908.3749884999997,908.3749884999997,908.3749884999997,908.3749884999997,right,space,2.2586637000204064,910.6598537999962,910.6598537999962,910.6598537999962,910.6598537999962,910.6598537999962,7.00729730000603,,,,,,,,,,,,,,student1,2022-10-21_12h11.50.023,Hippopolis_Learning,2022.2.2,59.794879645729225,
Hippopolis,stimuli/subj_files/student1_cityA.csv,./stimuli/frankfurt.jpg,./stimuli/street_plate1.png,KOCKA UTCA,stimuli/objects/062a.jpg,object,0,stimuli/objects/062a.jpg,stimuli/scenes/095b.jpg,stimuli/objects/062a.jpg,stimuli/objects/062b.jpg,stimuli/scenes/095a.jpg,dist2,target,lure,dist1,0,0,0,0,,,,,0,33,33,35,,,,,,,921.6612816999841,,,,,,922.6735776999849,,,,,,,,,,,,918.6989266999881,918.6989266999881,918.6989266999881,918.6989266999881,918.6989266999881,918.6989266999881,left,None,2.9409808999917004,,,,,,,,,,,,,,,,,,,,student1,2022-10-21_12h11.50.023,Hippopolis_Learning,2022.2.2,59.794879645729225,
Hippopolis,stimuli/subj_files/student1_cityA.csv,./stimuli/frankfurt.jpg,./stimuli/street_plate1.png,MOGYORÓ UTCA,stimuli/objects/106a.jpg,object,1,stimuli/objects/103a.jpg,stimuli/scenes/116a.jpg,stimuli/objects/103b.jpg,stimuli/objects/103a.jpg,stimuli/scenes/116b.jpg,dist1,lure,target,dist2,0,0,0,0,,,,,0,34,34,54,,,,,,,924.008540699986,,,,,,,,,,,,,,,,,,922.6735776999849,922.6735776999849,922.6735776999849,922.6735776999849,922.6735776999849,922.6735776999849,left,None,1.3074017000035383,,,,,,,,,,,,,,,,,,,,student1,2022-10-21_12h11.50.023,Hippopolis_Learning,2022.2.2,59.794879645729225,
Hippopolis,stimuli/subj_files/student1_cityA.csv,./stimuli/frankfurt.jpg,./stimuli/street_plate1.png,OROSZLÁN UTCA,stimuli/scenes/072a.jpg,scene,0,stimuli/scenes/072a.jpg,stimuli/scenes/072a.jpg,stimuli/scenes/072b.jpg,stimuli/scenes/027b.jpg,stimuli/scenes/027a.jpg,target,lure,dist2,dist1,0,0,0,0,,,,,0,35,35,66,,,,,,,926.9580217000039,,,,,,,,,,,,,,,,,,925.0235416000069,925.0235416000069,925.0235416000069,925.0235416000069,925.0235416000069,925.0235416000069,left,None,1.9024614000227302,,,,,,,,,,,,,,,,,,,,student1,2022-10-21_12h11.50.023,Hippopolis_Learning,2022.2.2,59.794879645729225,
Hippopolis,stimuli/subj_files/student1_cityA.csv,./stimuli/frankfurt.jpg,./stimuli/street_plate1.png,HARMONIKA UTCA,stimuli/scenes/024a.jpg,scene,0,stimuli/scenes/024a.jpg,stimuli/scenes/101b.jpg,stimuli/scenes/024b.jpg,stimuli/scenes/101a.jpg,stimuli/scenes/024a.jpg,dist2,lure,dist1,target,0,0,0,0,,,,,0,36,36,25,,,,,,,929.3729351999937,,,,,,930.3734802999825,,,,,,,,,,,,927.9739120999875,927.9739120999875,927.9739120999875,927.9739120999875,927.9739120999875,927.9739120999875,left,None,1.3819900999951642,,,,,,,,,,,,,,,,,,,,student1,2022-10-21_12h11.50.023,Hippopolis_Learning,2022.2.2,59.794879645729225,
Hippopolis,stimuli/subj_files/student1_cityA.csv,./stimuli/frankfurt.jpg,./stimuli/street_plate1.png,PÁLMAFA UTCA,stimuli/objects/090a.jpg,object,1,stimuli/objects/007a.jpg,stimuli/objects/053a.jpg,stimuli/objects/007a.jpg,stimuli/objects/053b.jpg,stimuli/objects/007b.jpg,dist1,target,dist2,lure,0,0,0,0,,,,,0,37,37,12,,,,,,,932.0418010999856,,,,,,,,,,,,,,,,,,930.3734802999825,930.3734802999825,930.3734802999825,930.3734802999825,930.3734802999825,930.3734802999825,left,None,1.6437059000018053,,,,,,,,,,,,,,,,,,,,student1,2022-10-21_12h11.50.023,Hippopolis_Learning,2022.2.2,59.794879645729225,
Hippopolis,stimuli/subj_files/student1_cityA.csv,./stimuli/frankfurt.jpg,./stimuli/street_plate1.png,TOJÁS UTCA,stimuli/objects/021a.jpg,object,2,stimuli/scenes/034a.jpg,stimuli/scenes/034a.jpg,stimuli/objects/059a.jpg,stimuli/objects/059b.jpg,stimuli/scenes/034b.jpg,target,dist1,dist2,lure,0,0,0,0,,,,,0,38,38,37,,,,,,,936.0572578999854,,,,,,937.0601030999969,,,,,,,,,,,,933.057759999996,933.057759999996,933.057759999996,933.057759999996,933.057759999996,933.057759999996,left,None,2.976160299993353,,,,,,,,,,,,,,,,,,,,student1,2022-10-21_12h11.50.023,Hippopolis_Learning,2022.2.2,59.794879645729225,
Hippopolis,stimuli/subj_files/student1_cityA.csv,./stimuli/frankfurt.jpg,./stimuli/street_plate1.png,HORDÓ UTCA,stimuli/scenes/095a.jpg,scene,0,stimuli/scenes/095a.jpg,stimuli/scenes/095a.jpg,stimuli/scenes/046a.jpg,stimuli/scenes/095b.jpg,stimuli/scenes/046b.jpg,target,dist1,lure,dist2,0,0,0,0,,,,,0,39,39,27,,,,,,,940.4901133000094,,,,,,941.4919816000038,,,,,,,,,,,,937.0601030999969,937.0601030999969,937.0601030999969,937.0601030999969,937.0601030999969,937.0601030999969,left,None,3.3984621000126936,,,,,,,,,,,,,,,,,,,,student1,2022-10-21_12h11.50.023,Hippopolis_Learning,2022.2.2,59.794879645729225,
Hippopolis,stimuli/subj_files/student1_cityA.csv,./stimuli/frankfurt.jpg,./stimuli/street_plate1.png,PIZSAMA UTCA,stimuli/scenes/060a.jpg,scene,2,stimuli/objects/006a.jpg,stimuli/scenes/007b.jpg,stimuli/scenes/007a.jpg,stimuli/objects/006b.jpg,stimuli/objects/006a.jpg,dist2,dist1,lure,target,0,0,0,0,,,,,0,40,40,79,,,,,,,943.6893572999979,,,,,,944.6914207999944,,,,,,,,,,,,941.4919816000038,941.4919816000038,941.4919816000038,941.4919816000038,941.4919816000038,941.4919816000038,left,None,2.1747452999989036,,,,,,,,,,,,,,,,,,,,student1,2022-10-21_12h11.50.023,Hippopolis_Learning,2022.2.2,59.794879645729225,
Hippopolis,stimuli/subj_files/student1_cityA.csv,./stimuli/frankfurt.jpg,./stimuli/street_plate1.png,SIVATAG UTCA,stimuli/scenes/016a.jpg,scene,2,stimuli/objects/046a.jpg,stimuli/objects/046b.jpg,stimuli/objects/006a.jpg,stimuli/objects/006b.jpg,stimuli/objects/046a.jpg,lure,dist1,dist2,target,0,0,0,0,,,,,0,41,41,23,,,,,,,947.3586636999971,,,,,,,,,,,,,,,,,,944.6914207999944,944.6914207999944,944.6914207999944,944.6914207999944,944.6914207999944,944.6914207999944,left,None,2.640389400010463,,,,,,,,,,,,,,,,,,,,student1,2022-10-21_12h11.50.023,Hippopolis_Learning,2022.2.2,59.794879645729225,
Hippopolis,stimuli/subj_files/student1_cityA.csv,./stimuli/frankfurt.jpg,./stimuli/street_plate1.png,LÉTRA UTCA,stimuli/objects/047a.jpg,object,1,stimuli/objects/015a.jpg,stimuli/objects/108b.jpg,stimuli/objects/015b.jpg,stimuli/objects/108a.jpg,stimuli/objects/015a.jpg,dist2,lure,dist1,target,0,0,0,0,,,,,0,42,42,33,,,,,,,959.9560769000091,,,,,,960.9588101999834,,,,,,,,,,,,948.3739593999926,948.3739593999926,948.3739593999926,948.3739593999926,948.3739593999926,948.3739593999926,right,space,3.5811008000164293,951.9764645000105,951.9764645000105,951.9764645000105,951.9764645000105,951.9764645000105,7.9606648000190035,,,,,,,,,,,,,,student1,2022-10-21_12h11.50.023,Hippopolis_Learning,2022.2.2,59.794879645729225,
Hippopolis,stimuli/subj_files/student1_cityA.csv,./stimuli/frankfurt.jpg,./stimuli/street_plate1.png,PÉKSÉG UTCA,stimuli/scenes/073a.jpg,scene,2,stimuli/objects/059a.jpg,stimuli/objects/059a.jpg,stimuli/objects/046b.jpg,stimuli/objects/059b.jpg,stimuli/objects/046a.jpg,target,dist2,lure,dist1,0,0,0,0,,,,,0,43,43,61,,,,,,,963.7905589999864,,,,,,,,,,,,,,,,,,960.9588101999834,960.9588101999834,960.9588101999834,960.9588101999834,960.9588101999834,960.9588101999834,left,None,2.8059737000148743,,,,,,,,,,,,,,,,,,,,student1,2022-10-21_12h11.50.023,Hippopolis_Learning,2022.2.2,59.794879645729225,
Hippopolis,stimuli/subj_files/student1_cityA.csv,./stimuli/frankfurt.jpg,./stimuli/street_plate1.png,KÖTÉL UTCA,stimuli/objects/051a.jpg,object,0,stimuli/objects/051a.jpg,stimuli/scenes/024b.jpg,stimuli/objects/051b.jpg,stimuli/scenes/024a.jpg,stimuli/objects/051a.jpg,dist2,lure,dist1,target,0,0,0,0,,,,,0,44,44,7,,,,,,,966.6222953999822,,,,,,967.623494600004,,,,,,,,,,,,964.8060292000009,964.8060292000009,964.8060292000009,964.8060292000009,964.8060292000009,964.8060292000009,left,None,1.7864414000068791,,,,,,,,,,,,,,,,,,,,student1,2022-10-21_12h11.50.023,Hippopolis_Learning,2022.2.2,59.794879645729225,
Hippopolis,stimuli/subj_files/student1_cityA.csv,./stimuli/frankfurt.jpg,./stimuli/street_plate1.png,BOLYGÓ UTCA,stimuli/scenes/118a.jpg,scene,1,stimuli/scenes/087a.jpg,stimuli/objects/011a.jpg,stimuli/scenes/087b.jpg,stimuli/objects/011b.jpg,stimuli/scenes/087a.jpg,dist1,lure,dist2,target,0,0,0,0,,,,,0,45,45,31,,,,,,,969.3777422999847,,,,,,970.3901631000044,,,,,,,,,,,,967.623494600004,967.623494600004,967.623494600004,967.623494600004,967.623494600004,967.623494600004,right,None,1.7265583999978844,,,,,,,,,,,,,,,,,,,,student1,2022-10-21_12h11.50.023,Hippopolis_Learning,2022.2.2,59.794879645729225,
Hippopolis,stimuli/subj_files/student1_cityA.csv,./stimuli/frankfurt.jpg,./stimuli/street_plate1.png,KAKAS UTCA,stimuli/objects/002a.jpg,object,2,stimuli/scenes/074a.jpg,stimuli/scenes/074b.jpg,stimuli/scenes/074a.jpg,stimuli/scenes/070a.jpg,stimuli/scenes/070b.jpg,lure,target,dist1,dist2,0,0,0,0,,,,,0,46,46,24,,,,,,,971.9575535999902,,,,,,,,,,,,,,,,,,970.3901631000044,970.3901631000044,970.3901631000044,970.3901631000044,970.3901631000044,970.3901631000044,left,None,1.5418515999917872,,,,,,,,,,,,,,,,,,,,student1,2022-10-21_12h11.50.023,Hippopolis_Learning,2022.2.2,59.794879645729225,
Hippopolis,stimuli/subj_files/student1_cityA.csv,./stimuli/frankfurt.jpg,./stimuli/street_plate1.png,ÜVEG UTCA,stimuli/scenes/061a.jpg,scene,2,stimuli/objects/085a.jpg,stimuli/objects/085b.jpg,stimuli/scenes/084a.jpg,stimuli/objects/085a.jpg,stimuli/scenes/084b.jpg,lure,dist1,target,dist2,0,0,0,0,,,,,0,47,47,19,,,,,,,976.9725986999983,,,,,,977.9737289999903,,,,,,,,,,,,972.9727703999961,972.9727703999961,972.9727703999961,972.9727703999961,972.9727703999961,972.9727703999961,None,None,,,,,,,,,,,,,,,,,,,,,student1,2022-10-21_12h11.50.023,Hippopolis_Learning,2022.2.2,59.794879645729225,
Hippopolis,stimuli/subj_files/student1_cityA.csv,./stimuli/frankfurt.jpg,./stimuli/street_plate1.png,KORONA UTCA,stimuli/scenes/108a.jpg,scene,1,stimuli/scenes/011a.jpg,stimuli/objects/076a.jpg,stimuli/scenes/011b.jpg,stimuli/objects/076b.jpg,stimuli/scenes/011a.jpg,dist1,lure,dist2,target,0,0,0,0,,,,,0,48,48,9,,,,,,,981.3555170999898,,,,,,982.3563871000079,,,,,,,,,,,,977.9737289999903,977.9737289999903,977.9737289999903,977.9737289999903,977.9737289999903,977.9737289999903,left,None,3.360769099992467,,,,,,,,,,,,,,,,,,,,student1,2022-10-21_12h11.50.023,Hippopolis_Learning,2022.2.2,59.794879645729225,
Hippopolis,stimuli/subj_files/student1_cityA.csv,./stimuli/frankfurt.jpg,./stimuli/street_plate1.png,PADLÓ UTCA,stimuli/objects/100a.jpg,object,0,stimuli/objects/100a.jpg,stimuli/scenes/058a.jpg,stimuli/scenes/058b.jpg,stimuli/objects/100a.jpg,stimuli/objects/100b.jpg,dist1,dist2,target,lure,0,0,0,0,,,,,0,49,49,59,,,,,,,986.3554279000091,,,,,,987.3582958999905,,,,,,,,,,,,982.3563871000079,982.3563871000079,982.3563871000079,982.3563871000079,982.3563871000079,982.3563871000079,None,None,,,,,,,,986.3554279000091,986.3554279000091,986.3554279000091,986.3554279000091,986.3554279000091,986.3554279000091,,,,,,,,student1,2022-10-21_12h11.50.023,Hippopolis_Learning,2022.2.2,59.794879645729225,
Hippopolis,stimuli/subj_files/student1_cityA.csv,./stimuli/frankfurt.jpg,./stimuli/street_plate1.png,PÁFRÁNY UTCA,stimuli/scenes/101a.jpg,scene,0,stimuli/scenes/101a.jpg,stimuli/scenes/101a.jpg,stimuli/scenes/101b.jpg,stimuli/objects/051a.jpg,stimuli/objects/051b.jpg,target,lure,dist1,dist2,0,0,0,0,,,,,0,50,50,0,,,,,,,989.8585265000002,,,,,,,,,,,,,,,,,,987.3582958999905,987.3582958999905,987.3582958999905,987.3582958999905,987.3582958999905,987.3582958999905,left,None,2.4766171000082977,,,,,,,,,,,,,,,,,,,,student1,2022-10-21_12h11.50.023,Hippopolis_Learning,2022.2.2,59.794879645729225,
Hippopolis,stimuli/subj_files/student1_cityA.csv,./stimuli/frankfurt.jpg,./stimuli/street_plate1.png,FOGAS UTCA,stimuli/scenes/025a.jpg,scene,1,stimuli/scenes/018a.jpg,stimuli/scenes/018b.jpg,stimuli/scenes/064a.jpg,stimuli/scenes/018a.jpg,stimuli/scenes/064b.jpg,lure,dist1,target,dist2,0,0,0,0,,,,,0,51,51,38,,,,,,,992.5218253000057,,,,,,993.5232226999942,,,,,,,,,,,,990.8743322000082,990.8743322000082,990.8743322000082,990.8743322000082,990.8743322000082,990.8743322000082,left,None,1.6192338000109885,,,,,,,,,,,,,,,,,,,,student1,2022-10-21_12h11.50.023,Hippopolis_Learning,2022.2.2,59.794879645729225,
Hippopolis,stimuli/subj_files/student1_cityA.csv,./stimuli/frankfurt.jpg,./stimuli/street_plate1.png,MUNKA UTCA,stimuli/scenes/039a.jpg,scene,2,stimuli/objects/067a.jpg,stimuli/scenes/097a.jpg,stimuli/objects/067b.jpg,stimuli/objects/067a.jpg,stimuli/scenes/097b.jpg,dist1,lure,target,dist2,0,0,0,0,,,,,0,52,52,4,,,,,,,995.4418361999851,,,,,,,,,,,,,,,,,,993.5232226999942,993.5232226999942,993.5232226999942,993.5232226999942,993.5232226999942,993.5232226999942,right,None,1.8925084999937098,,,,,,,,,,,,,,,,,,,,student1,2022-10-21_12h11.50.023,Hippopolis_Learning,2022.2.2,59.794879645729225,
Hippopolis,stimuli/subj_files/student1_cityA.csv,./stimuli/frankfurt.jpg,./stimuli/street_plate1.png,VÖDÖR UTCA,stimuli/scenes/055a.jpg,scene,1,stimuli/scenes/088a.jpg,stimuli/scenes/088b.jpg,stimuli/scenes/088a.jpg,stimuli/scenes/087b.jpg,stimuli/scenes/087a.jpg,lure,target,dist2,dist1,0,0,0,0,,,,,0,53,53,56,,,,,,,999.6414572999929,,,,,,,,,,,,,,,,,,996.456121700001,996.456121700001,996.456121700001,996.456121700001,996.456121700001,996.456121700001,right,None,3.1537019000097644,,,,,,,,,,,,,,,,,,,,student1,2022-10-21_12h11.50.023,Hippopolis_Learning,2022.2.2,59.794879645729225,
Hippopolis,stimuli/subj_files/student1_cityA.csv,./stimuli/frankfurt.jpg,./stimuli/street_plate1.png,LIGET UTCA,stimuli/objects/038a.jpg,object,2,stimuli/scenes/109a.jpg,stimuli/scenes/109a.jpg,stimuli/objects/055a.jpg,stimuli/scenes/109b.jpg,stimuli/objects/055b.jpg,target,dist1,lure,dist2,0,0,0,0,,,,,0,54,54,62,,,,,,,1002.3884755999898,,,,,,1003.3908718999883,,,,,,,,,,,,1000.6560337999836,1000.6560337999836,1000.6560337999836,1000.6560337999836,1000.6560337999836,1000.6560337999836,left,None,1.712170699989656,,,,,,,,,,,,,,,,,,,,student1,2022-10-21_12h11.50.023,Hippopolis_Learning,2022.2.2,59.794879645729225,
Hippopolis,stimuli/subj_files/student1_cityA.csv,./stimuli/frankfurt.jpg,./stimuli/street_plate1.png,KIRAKÓ UTCA,stimuli/objects/079a.jpg,object,2,stimuli/scenes/070a.jpg,stimuli/scenes/070a.jpg,stimuli/scenes/070b.jpg,stimuli/objects/043b.jpg,stimuli/objects/043a.jpg,target,lure,dist2,dist1,0,0,0,0,,,,,0,55,55,57,,,,,,,1004.7081338999851,,,,,,,,,,,,,,,,,,1003.3908718999883,1003.3908718999883,1003.3908718999883,1003.3908718999883,1003.3908718999883,1003.3908718999883,left,None,1.296292099985294,,,,,,,,,,,,,,,,,,,,student1,2022-10-21_12h11.50.023,Hippopolis_Learning,2022.2.2,59.794879645729225,
Hippopolis,stimuli/subj_files/student1_cityA.csv,./stimuli/frankfurt.jpg,./stimuli/street_plate1.png,KECSKE UTCA,stimuli/scenes/085a.jpg,scene,2,stimuli/objects/022a.jpg,stimuli/objects/022b.jpg,stimuli/objects/022a.jpg,stimuli/scenes/053a.jpg,stimuli/scenes/053b.jpg,lure,target,dist1,dist2,0,0,0,0,,,,,0,56,56,6,,,,,,,1006.9882149999903,,,,,,1007.9888171000057,,,,,,,,,,,,1005.7220119999838,1005.7220119999838,1005.7220119999838,1005.7220119999838,1005.7220119999838,1005.7220119999838,left,None,1.2497520000033546,,,,,,,,,,,,,,,,,,,,student1,2022-10-21_12h11.50.023,Hippopolis_Learning,2022.2.2,59.794879645729225,
Hippopolis,stimuli/subj_files/student1_cityA.csv,./stimuli/frankfurt.jpg,./stimuli/street_plate1.png,EGÉR UTCA,stimuli/scenes/071a.jpg,scene,1,stimuli/scenes/116a.jpg,stimuli/scenes/116b.jpg,stimuli/scenes/116a.jpg,stimuli/scenes/009b.jpg,stimuli/scenes/009a.jpg,lure,target,dist2,dist1,0,0,0,0,,,,,0,57,57,29,,,,,,,1010.4717027999868,,,,,,1011.4723665000056,,,,,,,,,,,,1007.9888171000057,1007.9888171000057,1007.9888171000057,1007.9888171000057,1007.9888171000057,1007.9888171000057,left,None,2.465668899996672,,,,,,,,,,,,,,,,,,,,student1,2022-10-21_12h11.50.023,Hippopolis_Learning,2022.2.2,59.794879645729225,
Hippopolis,stimuli/subj_files/student1_cityA.csv,./stimuli/frankfurt.jpg,./stimuli/street_plate1.png,MÁLNA UTCA,stimuli/objects/069a.jpg,object,2,stimuli/scenes/053a.jpg,stimuli/objects/073a.jpg,stimuli/objects/073b.jpg,stimuli/scenes/053b.jpg,stimuli/scenes/053a.jpg,dist1,dist2,lure,target,0,0,0,0,,,,,0,58,58,14,,,,,,,1015.4717056000081,,,,,,1016.4736011000059,,,,,,,,,,,,1011.4723665000056,1011.4723665000056,1011.4723665000056,1011.4723665000056,1011.4723665000056,1011.4723665000056,None,None,,,,,,,,1015.4717056000081,1015.4717056000081,1015.4717056000081,1015.4717056000081,1015.4717056000081,1015.4717056000081,,,,,,,,student1,2022-10-21_12h11.50.023,Hippopolis_Learning,2022.2.2,59.794879645729225,
Hippopolis,stimuli/subj_files/student1_cityA.csv,./stimuli/frankfurt.jpg,./stimuli/street_plate1.png,HAJÓ UTCA,stimuli/objects/086a.jpg,object,1,stimuli/objects/041a.jpg,stimuli/scenes/014a.jpg,stimuli/scenes/014b.jpg,stimuli/objects/041a.jpg,stimuli/objects/041b.jpg,dist1,dist2,target,lure,0,0,0,0,,,,,0,59,59,71,,,,,,,1019.4569446000096,,,,,,,,,,,,,,,,,,1016.4736011000059,1016.4736011000059,1016.4736011000059,1016.4736011000059,1016.4736011000059,1016.4736011000059,right,None,2.957890099991346,,,,,,,,,,,,,,,,,,,,student1,2022-10-21_12h11.50.023,Hippopolis_Learning,2022.2.2,59.794879645729225,
Hippopolis,stimuli/subj_files/student1_cityA.csv,./stimuli/frankfurt.jpg,./stimuli/street_plate1.png,KORONG UTCA,stimuli/scenes/065a.jpg,scene,1,stimuli/scenes/004a.jpg,stimuli/scenes/004a.jpg,stimuli/scenes/011b.jpg,stimuli/scenes/011a.jpg,stimuli/scenes/004b.jpg,target,dist2,dist1,lure,0,0,0,0,,,,,0,60,60,53,,,,,,,1022.3229831999924,,,,,,,,,,,,,,,,,,1020.4721473999962,1020.4721473999962,1020.4721473999962,1020.4721473999962,1020.4721473999962,1020.4721473999962,left,None,1.8320826000126544,,,,,,,,,,,,,,,,,,,,student1,2022-10-21_12h11.50.023,Hippopolis_Learning,2022.2.2,59.794879645729225,
Hippopolis,stimuli/subj_files/student1_cityA.csv,./stimuli/frankfurt.jpg,./stimuli/street_plate1.png,TRIATLON UTCA,stimuli/objects/024a.jpg,object,0,stimuli/objects/024a.jpg,stimuli/objects/024b.jpg,stimuli/objects/080a.jpg,stimuli/objects/024a.jpg,stimuli/objects/080b.jpg,lure,dist1,target,dist2,0,0,0,0,,,,,0,61,61,2,,,,,,,1024.8568839000072,,,,,,,,,,,,,,,,,,1023.3389029999962,1023.3389029999962,1023.3389029999962,1023.3389029999962,1023.3389029999962,1023.3389029999962,left,None,1.4910956000094302,,,,,,,,,,,,,,,,,,,,student1,2022-10-21_12h11.50.023,Hippopolis_Learning,2022.2.2,59.794879645729225,
Hippopolis,stimuli/subj_files/student1_cityA.csv,./stimuli/frankfurt.jpg,./stimuli/street_plate1.png,CSILLAG UTCA,stimuli/scenes/083a.jpg,scene,1,stimuli/scenes/117a.jpg,stimuli/scenes/117a.jpg,stimuli/scenes/117b.jpg,stimuli/objects/041a.jpg,stimuli/objects/041b.jpg,target,lure,dist1,dist2,0,0,0,0,,,,,0,62,62,15,,,,,,,1029.87173720001,,,,,,1030.873178299982,,,,,,,,,,,,1025.8732783999876,1025.8732783999876,1025.8732783999876,1025.8732783999876,1025.8732783999876,1025.8732783999876,None,None,,,,,,,,,,,,,,,,,,,,,student1,2022-10-21_12h11.50.023,Hippopolis_Learning,2022.2.2,59.794879645729225,
Hippopolis,stimuli/subj_files/student1_cityA.csv,./stimuli/frankfurt.jpg,./stimuli/street_plate1.png,HÁRFA UTCA,stimuli/objects/083a.jpg,object,2,stimuli/scenes/028a.jpg,stimuli/scenes/028b.jpg,stimuli/objects/012b.jpg,stimuli/objects/012a.jpg,stimuli/scenes/028a.jpg,lure,dist2,dist1,target,0,0,0,0,,,,,0,63,63,16,,,,,,,1032.9060304999875,,,,,,,,,,,,,,,,,,1030.873178299982,1030.873178299982,1030.873178299982,1030.873178299982,1030.873178299982,1030.873178299982,left,None,2.002673799986951,,,,,,,,,,,,,,,,,,,,student1,2022-10-21_12h11.50.023,Hippopolis_Learning,2022.2.2,59.794879645729225,
Hippopolis,stimuli/subj_files/student1_cityA.csv,./stimuli/frankfurt.jpg,./stimuli/street_plate1.png,NARANCS UTCA,stimuli/objects/017a.jpg,object,1,stimuli/objects/075a.jpg,stimuli/objects/075a.jpg,stimuli/scenes/041b.jpg,stimuli/scenes/041a.jpg,stimuli/objects/075b.jpg,target,dist2,dist1,lure,0,0,0,0,,,,,0,64,64,76,,,,,,,1035.9547900999896,,,,,,1036.9574364,,,,,,,,,,,,1033.9217261000013,1033.9217261000013,1033.9217261000013,1033.9217261000013,1033.9217261000013,1033.9217261000013,left,None,2.0128096000116784,,,,,,,,,,,,,,,,,,,,student1,2022-10-21_12h11.50.023,Hippopolis_Learning,2022.2.2,59.794879645729225,
Hippopolis,stimuli/subj_files/student1_cityA.csv,./stimuli/frankfurt.jpg,./stimuli/street_plate1.png,POGÁCSA UTCA,stimuli/scenes/046a.jpg,scene,0,stimuli/scenes/046a.jpg,stimuli/scenes/042a.jpg,stimuli/scenes/046a.jpg,stimuli/scenes/046b.jpg,stimuli/scenes/042b.jpg,dist1,target,lure,dist2,0,0,0,0,,,,,0,65,65,49,,,,,,,1040.5886193999904,,,,,,1041.5899045999977,,,,,,,,,,,,1036.9574364,1036.9574364,1036.9574364,1036.9574364,1036.9574364,1036.9574364,left,None,3.6039421999885235,,,,,,,,,,,,,,,,,,,,student1,2022-10-21_12h11.50.023,Hippopolis_Learning,2022.2.2,59.794879645729225,
Hippopolis,stimuli/subj_files/student1_cityA.csv,./stimuli/frankfurt.jpg,./stimuli/street_plate1.png,KOKTÉL UTCA,stimuli/scenes/008a.jpg,scene,2,stimuli/objects/012a.jpg,stimuli/objects/036b.jpg,stimuli/objects/012b.jpg,stimuli/objects/036a.jpg,stimuli/objects/012a.jpg,dist2,lure,dist1,target,0,0,0,0,,,,,0,66,66,46,,,,,,,1043.1878952999832,,,,,,1044.1880425999989,,,,,,,,,,,,1041.5899045999977,1041.5899045999977,1041.5899045999977,1041.5899045999977,1041.5899045999977,1041.5899045999977,left,None,1.5775782999990042,,,,,,,,,,,,,,,,,,,,student1,2022-10-21_12h11.50.023,Hippopolis_Learning,2022.2.2,59.794879645729225,
Hippopolis,stimuli/subj_files/student1_cityA.csv,./stimuli/frankfurt.jpg,./stimuli/street_plate1.png,HERNYÓ UTCA,stimuli/scenes/066a.jpg,scene,1,stimuli/scenes/037a.jpg,stimuli/scenes/037a.jpg,stimuli/objects/045b.jpg,stimuli/scenes/037b.jpg,stimuli/objects/045a.jpg,target,dist2,lure,dist1,0,0,0,0,,,,,0,67,67,5,,,,,,,1048.1054231000016,,,,,,1049.105221100006,,,,,,,,,,,,1044.1880425999989,1044.1880425999989,1044.1880425999989,1044.1880425999989,1044.1880425999989,1044.1880425999989,left,None,3.898203899996588,,,,,,,,,,,,,,,,,,,,student1,2022-10-21_12h11.50.023,Hippopolis_Learning,2022.2.2,59.794879645729225,
Hippopolis,stimuli/subj_files/student1_cityA.csv,./stimuli/frankfurt.jpg,./stimuli/street_plate1.png,KARTON UTCA,stimuli/objects/101a.jpg,object,2,stimuli/scenes/044a.jpg,stimuli/scenes/074a.jpg,stimuli/scenes/044b.jpg,stimuli/scenes/044a.jpg,stimuli/scenes/074b.jpg,dist1,lure,target,dist2,0,0,0,0,,,,,0,68,68,8,,,,,,,1051.2067987000046,,,,,,,,,,,,,,,,,,1049.105221100006,1049.105221100006,1049.105221100006,1049.105221100006,1049.105221100006,1049.105221100006,left,None,2.080679600010626,,,,,,,,,,,,,,,,,,,,student1,2022-10-21_12h11.50.023,Hippopolis_Learning,2022.2.2,59.794879645729225,
Hippopolis,stimuli/subj_files/student1_cityA.csv,./stimuli/frankfurt.jpg,./stimuli/street_plate1.png,LÁNDZSA UTCA,stimuli/scenes/090a.jpg,scene,0,stimuli/scenes/090a.jpg,stimuli/scenes/090a.jpg,stimuli/objects/091b.jpg,stimuli/scenes/090b.jpg,stimuli/objects/091a.jpg,target,dist2,lure,dist1,0,0,0,0,,,,,0,69,69,39,,,,,,,1054.373990299995,,,,,,,,,,,,,,,,,,1052.221473099984,1052.221473099984,1052.221473099984,1052.221473099984,1052.221473099984,1052.221473099984,right,None,2.130269000015687,,,,,,,,,,,,,,,,,,,,student1,2022-10-21_12h11.50.023,Hippopolis_Learning,2022.2.2,59.794879645729225,
Hippopolis,stimuli/subj_files/student1_cityA.csv,./stimuli/frankfurt.jpg,./stimuli/street_plate1.png,RÓZSA UTCA,stimuli/objects/091a.jpg,object,0,stimuli/objects/091a.jpg,stimuli/objects/091b.jpg,stimuli/objects/078b.jpg,stimuli/objects/078a.jpg,stimuli/objects/091a.jpg,lure,dist2,dist1,target,0,0,0,0,,,,,0,70,70,45,,,,,,,1057.971320199984,,,,,,1058.9729712999833,,,,,,,,,,,,1055.3880451000005,1055.3880451000005,1055.3880451000005,1055.3880451000005,1055.3880451000005,1055.3880451000005,left,None,2.5669317999854684,,,,,,,,,,,,,,,,,,,,student1,2022-10-21_12h11.50.023,Hippopolis_Learning,2022.2.2,59.794879645729225,
Hippopolis,stimuli/subj_files/student1_cityA.csv,./stimuli/frankfurt.jpg,./stimuli/street_plate1.png,BÖGRE UTCA,stimuli/objects/050a.jpg,object,1,stimuli/objects/076a.jpg,stimuli/scenes/037a.jpg,stimuli/objects/076a.jpg,stimuli/objects/076b.jpg,stimuli/scenes/037b.jpg,dist1,target,lure,dist2,0,0,0,0,,,,,0,71,71,41,,,,,,,1060.6541874000104,,,,,,1061.6566970999993,,,,,,,,,,,,1058.9729712999833,1058.9729712999833,1058.9729712999833,1058.9729712999833,1058.9729712999833,1058.9729712999833,left,None,1.6593473000102676,,,,,,,,,,,,,,,,,,,,student1,2022-10-21_12h11.50.023,Hippopolis_Learning,2022.2.2,59.794879645729225,
Hippopolis,stimuli/subj_files/student1_cityA.csv,./stimuli/frankfurt.jpg,./stimuli/street_plate1.png,ÁRNYÉK UTCA,stimuli/objects/020a.jpg,object,1,stimuli/objects/027a.jpg,stimuli/scenes/004a.jpg,stimuli/objects/027b.jpg,stimuli/objects/027a.jpg,stimuli/scenes/004b.jpg,dist1,lure,target,dist2,0,0,0,0,,,,,0,72,72,52,,,,,,,1063.3068952999893,,,,,,,,,,,,,,,,,,1061.6566970999993,1061.6566970999993,1061.6566970999993,1061.6566970999993,1061.6566970999993,1061.6566970999993,left,None,1.6165030000265688,,,,,,,,,,,,,,,,,,,,student1,2022-10-21_12h11.50.023,Hippopolis_Learning,2022.2.2,59.794879645729225,
Hippopolis,stimuli/subj_files/student1_cityA.csv,./stimuli/frankfurt.jpg,./stimuli/street_plate1.png,TOLLTARTÓ UTCA,stimuli/objects/032a.jpg,object,2,stimuli/scenes/119a.jpg,stimuli/scenes/119a.jpg,stimuli/scenes/104b.jpg,stimuli/scenes/104a.jpg,stimuli/scenes/119b.jpg,target,dist2,dist1,lure,0,0,0,0,,,,,0,73,73,67,,,,,,,1067.1893941999879,,,,,,,,,,,,,,,,,,1064.3217943999916,1064.3217943999916,1064.3217943999916,1064.3217943999916,1064.3217943999916,1064.3217943999916,left,None,2.8470138999982737,,,,,,,,,,,,,,,,,,,,student1,2022-10-21_12h11.50.023,Hippopolis_Learning,2022.2.2,59.794879645729225,
Hippopolis,stimuli/subj_files/student1_cityA.csv,./stimuli/frankfurt.jpg,./stimuli/street_plate1.png,AJÁNDÉK UTCA,stimuli/scenes/005a.jpg,scene,1,stimuli/scenes/009a.jpg,stimuli/scenes/078b.jpg,stimuli/scenes/078a.jpg,stimuli/scenes/009a.jpg,stimuli/scenes/009b.jpg,dist2,dist1,target,lure,0,0,0,0,,,,,0,74,74,28,,,,,,,1071.5390207000019,,,,,,,,,,,,,,,,,,1068.2057204000012,1068.2057204000012,1068.2057204000012,1068.2057204000012,1068.2057204000012,1068.2057204000012,left,None,3.3124788000131957,,,,,,,,,,,,,,,,,,,,student1,2022-10-21_12h11.50.023,Hippopolis_Learning,2022.2.2,59.794879645729225,
Hippopolis,stimuli/subj_files/student1_cityA.csv,./stimuli/frankfurt.jpg,./stimuli/street_plate1.png,AKÁC UTCA,stimuli/scenes/081a.jpg,scene,2,stimuli/objects/055a.jpg,stimuli/objects/055b.jpg,stimuli/objects/107b.jpg,stimuli/objects/107a.jpg,stimuli/objects/055a.jpg,lure,dist2,dist1,target,0,0,0,0,,,,,0,75,75,74,,,,,,,1075.891996099992,,,,,,,,,,,,,,,,,,1072.554495199991,1072.554495199991,1072.554495199991,1072.554495199991,1072.554495199991,1072.554495199991,right,None,3.3014958999992814,,,,,,,,,,,,,,,,,,,,student1,2022-10-21_12h11.50.023,Hippopolis_Learning,2022.2.2,59.794879645729225,
Hippopolis,stimuli/subj_files/student1_cityA.csv,./stimuli/frankfurt.jpg,./stimuli/street_plate1.png,CSAVAR UTCA,stimuli/objects/078a.jpg,object,0,stimuli/objects/078a.jpg,stimuli/objects/078b.jpg,stimuli/objects/024b.jpg,stimuli/objects/078a.jpg,stimuli/objects/024a.jpg,lure,dist2,target,dist1,0,0,0,0,,,,,0,76,76,10,,,,,,,1080.903793000005,,,,,,1081.9043937000097,,,,,,,,,,,,1076.905135100009,1076.905135100009,1076.905135100009,1076.905135100009,1076.905135100009,1076.905135100009,None,None,,,,,,,,,,,,,,,,,,,,,student1,2022-10-21_12h11.50.023,Hippopolis_Learning,2022.2.2,59.794879645729225,
Hippopolis,stimuli/subj_files/student1_cityA.csv,./stimuli/frankfurt.jpg,./stimuli/street_plate1.png,TELEP UTCA,stimuli/scenes/048a.jpg,scene,2,stimuli/objects/120a.jpg,stimuli/objects/120a.jpg,stimuli/objects/120b.jpg,stimuli/scenes/119b.jpg,stimuli/scenes/119a.jpg,target,lure,dist2,dist1,0,0,0,0,,,,,0,77,77,75,,,,,,,1085.3895872999856,,,,,,,,,,,,,,,,,,1081.9043937000097,1081.9043937000097,1081.9043937000097,1081.9043937000097,1081.9043937000097,1081.9043937000097,left,None,3.458464700001059,,,,,,,,,,,,,,,,,,,,student1,2022-10-21_12h11.50.023,Hippopolis_Learning,2022.2.2,59.794879645729225,
Hippopolis,stimuli/subj_files/student1_cityA.csv,./stimuli/frankfurt.jpg,./stimuli/street_plate1.png,MARTINI UTCA,stimuli/objects/060a.jpg,object,1,stimuli/objects/011a.jpg,stimuli/objects/075b.jpg,stimuli/objects/075a.jpg,stimuli/objects/011b.jpg,stimuli/objects/011a.jpg,dist2,dist1,lure,target,0,0,0,0,,,,,0,78,78,60,,,,,,,1089.1877344000095,,,,,,1090.188063699985,,,,,,,,,,,,1086.405653599999,1086.405653599999,1086.405653599999,1086.405653599999,1086.405653599999,1086.405653599999,right,None,2.752258700027596,,,,,,,,,,,,,,,,,,,,student1,2022-10-21_12h11.50.023,Hippopolis_Learning,2022.2.2,59.794879645729225,
Hippopolis,stimuli/subj_files/student1_cityA.csv,./stimuli/frankfurt.jpg,./stimuli/street_plate1.png,ÁLOM UTCA,stimuli/objects/070a.jpg,object,0,stimuli/objects/070a.jpg,stimuli/objects/070b.jpg,stimuli/objects/114b.jpg,stimuli/objects/114a.jpg,stimuli/objects/070a.jpg,lure,dist2,dist1,target,0,0,0,0,,,,,0,79,79,50,,,,,,,1093.1391339999973,,,,,,,,,,,,,,,,,,1090.188063699985,1090.188063699985,1090.188063699985,1090.188063699985,1090.188063699985,1090.188063699985,left,None,2.9317080000182614,,,,,,,,,,,,,,,,,,,,student1,2022-10-21_12h11.50.023,Hippopolis_Learning,2022.2.2,59.794879645729225,
Camponello,stimuli/subj_files/student1_cityB.csv,./stimuli/leipzig.jpg,./stimuli/street_plate2.png,ECSET UTCA,stimuli/scenes/003a.jpg,scene,2,stimuli/objects/005a.jpg,stimuli/objects/035b.jpg,stimuli/objects/005b.jpg,stimuli/objects/035a.jpg,stimuli/objects/005a.jpg,dist2,lure,dist1,target,0,1,1,1,0,0,0,11,,,,,,,,,1115.0750928999914,1115.0750928999914,1118.057821800001,1119.0521975999873,1119.0521975999873,1119.0521975999873,1119.0521975999873,None,,,,,,,,,,,,,,,,,,,,,,,,,,,,,,,,,,24,1094.153617700009,1094.153617700009,space,20.837198499997612,,,student1,2022-10-21_12h11.50.023,Hippopolis_Learning,2022.2.2,59.794879645729225,
Camponello,stimuli/subj_files/student1_cityB.csv,./stimuli/leipzig.jpg,./stimuli/street_plate2.png,LEVÉL UTCA,stimuli/scenes/019a.jpg,scene,0,stimuli/scenes/019a.jpg,stimuli/objects/052a.jpg,stimuli/scenes/019a.jpg,stimuli/scenes/019b.jpg,stimuli/objects/052b.jpg,dist1,target,lure,dist2,0,1,1,1,0,1,1,8,,,,,,,,,,,1122.0363146000018,1123.0410061999864,1123.0410061999864,1123.0410061999864,1123.0410061999864,None,1123.0410061999864,,,,,,,,,,,,,,,,,,,,,,,,,,,,,,,,,,,,,,,,student1,2022-10-21_12h11.50.023,Hippopolis_Learning,2022.2.2,59.794879645729225,
Camponello,stimuli/subj_files/student1_cityB.csv,./stimuli/leipzig.jpg,./stimuli/street_plate2.png,FÉSŰ UTCA,stimuli/objects/084a.jpg,object,0,stimuli/objects/084a.jpg,stimuli/objects/118b.jpg,stimuli/objects/118a.jpg,stimuli/objects/084a.jpg,stimuli/objects/084b.jpg,dist2,dist1,target,lure,0,1,1,1,0,2,2,23,,,,,,,,,,,1126.0531304999895,1127.0700345000078,1127.0700345000078,1127.0700345000078,1127.0700345000078,None,1127.0700345000078,,,,,,,,,,,,,,,,,,,,,,,,,,,,,,,,,,,,,,,,student1,2022-10-21_12h11.50.023,Hippopolis_Learning,2022.2.2,59.794879645729225,
Camponello,stimuli/subj_files/student1_cityB.csv,./stimuli/leipzig.jpg,./stimuli/street_plate2.png,KESELYŰ UTCA,stimuli/objects/003a.jpg,object,2,stimuli/scenes/100a.jpg,stimuli/objects/029a.jpg,stimuli/scenes/100b.jpg,stimuli/objects/029b.jpg,stimuli/scenes/100a.jpg,dist1,lure,dist2,target,0,1,1,1,0,3,3,6,,,,,,,,,,,1130.0700172999932,1131.083559599996,1131.083559599996,1131.083559599996,1131.083559599996,None,1131.083559599996,,,,,,,,,,,,,,,,,,,,,,,,,,,,,,,,,,,,,,,,student1,2022-10-21_12h11.50.023,Hippopolis_Learning,2022.2.2,59.794879645729225,
Camponello,stimuli/subj_files/student1_cityB.csv,./stimuli/leipzig.jpg,./stimuli/street_plate2.png,ZONGORA UTCA,stimuli/objects/034a.jpg,object,0,stimuli/objects/034a.jpg,stimuli/objects/034a.jpg,stimuli/objects/034b.jpg,stimuli/objects/016b.jpg,stimuli/objects/016a.jpg,target,lure,dist2,dist1,0,1,1,1,0,4,4,31,,,,,,,,,,,1134.086394699989,1135.105400200002,1135.105400200002,1135.105400200002,1135.105400200002,None,1135.105400200002,,,,,,,,,,,,,,,,,,,,,,,,,,,,,,,,,,,,,,,,student1,2022-10-21_12h11.50.023,Hippopolis_Learning,2022.2.2,59.794879645729225,
Camponello,stimuli/subj_files/student1_cityB.csv,./stimuli/leipzig.jpg,./stimuli/street_plate2.png,BANÁN UTCA,stimuli/scenes/045a.jpg,scene,0,stimuli/scenes/045a.jpg,stimuli/scenes/045b.jpg,stimuli/scenes/045a.jpg,stimuli/scenes/112b.jpg,stimuli/scenes/112a.jpg,lure,target,dist2,dist1,0,1,1,1,0,5,5,57,,,,,,,,,,,1138.1031658999855,1139.107528099994,1139.107528099994,1139.107528099994,1139.107528099994,None,1139.107528099994,,,,,,,,,,,,,,,,,,,,,,,,,,,,,,,,,,,,,,,,student1,2022-10-21_12h11.50.023,Hippopolis_Learning,2022.2.2,59.794879645729225,
Camponello,stimuli/subj_files/student1_cityB.csv,./stimuli/leipzig.jpg,./stimuli/street_plate2.png,TISZTÁS UTCA,stimuli/objects/116a.jpg,object,0,stimuli/objects/116a.jpg,stimuli/objects/058a.jpg,stimuli/objects/116a.jpg,stimuli/objects/116b.jpg,stimuli/objects/058b.jpg,dist1,target,lure,dist2,0,1,1,1,0,6,6,18,,,,,,,,,,,1142.119839299994,1143.1304491999908,1143.1304491999908,1143.1304491999908,1143.1304491999908,None,1143.1304491999908,,,,,,,,,,,,,,,,,,,,,,,,,,,,,,,,,,,,,,,,student1,2022-10-21_12h11.50.023,Hippopolis_Learning,2022.2.2,59.794879645729225,
