CityName,StimuliFile,CityImage,StreetSign,Cue,Image,Category,Novelty,UpdateImage,TestImage1,TestImage2,TestImage3,TestImage4,TestImage1Type,TestImage2Type,TestImage3Type,TestImage4Type,CityBlock.thisRepN,CityBlock.thisTrialN,CityBlock.thisN,CityBlock.thisIndex,LearningTrials.thisRepN,LearningTrials.thisTrialN,LearningTrials.thisN,LearningTrials.thisIndex,learning_instructions_text.started,learning_instructions_text.stopped,intro_key.keys,intro_key.rt,intro_key.started,intro_key.stopped,cityname_text.started,cityname_text.stopped,city_image.started,city_image.stopped,fx_cross.started,fx_cross.stopped,plate.started,plate.stopped,city_text.started,city_text.stopped,street_text.started,street_text.stopped,fx_cross_prediction.started,fx_cross_prediction.stopped,plate_updating.started,plate_updating.stopped,city_text_updating.started,city_text_updating.stopped,street_text_updating.started,street_text_updating.stopped,updating_image.started,updating_image.stopped,short_break_text.started,short_break_text.stopped,short_break_key.keys,short_break_key.started,short_break_key.stopped,short_break_key.rt,break_text.started,break_text.stopped,break_key_resp.keys,break_key_resp.rt,break_key_resp.started,break_key_resp.stopped,end_text.started,end_text.stopped,participant,date,expName,psychopyVersion,frameRate,
,,,,,,,,,,,,,,,,,,,,,,,,,12.466309699928388,None,space,9.91136429994367,12.466309699928388,None,,,,,,,,,,,,,,,,,,,,,,,,,,,,,,,,,,,,,student1,2022-10-25_12h08.53.863,Hippopolis_Updating,2021.1.4,59.96041415424336,
Hippopolis,stimuli/subj_files/student1_cityA.csv,./stimuli/frankfurt.jpg,./stimuli/street_plate1.png,KÖTÉNY UTCA,stimuli/scenes/031a.jpg,scene,1,stimuli/scenes/064a.jpg,stimuli/objects/103a.jpg,stimuli/objects/103b.jpg,stimuli/scenes/064b.jpg,stimuli/scenes/064a.jpg,dist1,dist2,lure,target,0,0,0,0,0,0,0,22,,,,,,,22.50803199992515,None,22.50803199992515,None,25.40406059997622,None,26.44298599998001,None,26.44298599998001,None,26.44298599998001,None,26.44298599998001,None,29.428312300005928,None,29.428312300005928,None,29.428312300005928,None,29.428312300005928,None,None,None,None,None,None,,,,,,,,,,student1,2022-10-25_12h08.53.863,Hippopolis_Updating,2021.1.4,59.96041415424336,
Hippopolis,stimuli/subj_files/student1_cityA.csv,./stimuli/frankfurt.jpg,./stimuli/street_plate1.png,KERET UTCA,stimuli/scenes/027a.jpg,scene,0,stimuli/scenes/027a.jpg,stimuli/objects/100a.jpg,stimuli/objects/100b.jpg,stimuli/scenes/027a.jpg,stimuli/scenes/027b.jpg,dist1,dist2,target,lure,0,0,0,0,0,1,1,3,,,,,,,,,,,31.416910199914128,None,32.41829949989915,None,32.41829949989915,None,32.41829949989915,None,32.41829949989915,None,35.4193285999354,None,35.4193285999354,None,35.4193285999354,None,35.4193285999354,None,None,None,None,None,None,,,,,,,,,,student1,2022-10-25_12h08.53.863,Hippopolis_Updating,2021.1.4,59.96041415424336,
Hippopolis,stimuli/subj_files/student1_cityA.csv,./stimuli/frankfurt.jpg,./stimuli/street_plate1.png,PAPAGÁJ UTCA,stimuli/objects/093a.jpg,object,2,stimuli/scenes/097a.jpg,stimuli/scenes/097a.jpg,stimuli/scenes/109b.jpg,stimuli/scenes/109a.jpg,stimuli/scenes/097b.jpg,target,dist2,dist1,lure,0,0,0,0,0,2,2,55,,,,,,,,,,,37.4337468999438,None,38.4399645999074,None,38.4399645999074,None,38.4399645999074,None,38.4399645999074,None,41.46287579997443,None,41.46287579997443,None,41.46287579997443,None,41.46287579997443,None,None,None,None,None,None,,,,,,,,,,student1,2022-10-25_12h08.53.863,Hippopolis_Updating,2021.1.4,59.96041415424336,
Hippopolis,stimuli/subj_files/student1_cityA.csv,./stimuli/frankfurt.jpg,./stimuli/street_plate1.png,PÉKSÉG UTCA,stimuli/scenes/073a.jpg,scene,2,stimuli/objects/059a.jpg,stimuli/objects/059a.jpg,stimuli/objects/046b.jpg,stimuli/objects/059b.jpg,stimuli/objects/046a.jpg,target,dist2,lure,dist1,0,0,0,0,0,3,3,61,,,,,,,,,,,43.45000919990707,None,44.45188939990476,None,44.45188939990476,None,44.45188939990476,None,44.45188939990476,None,47.467696200008504,None,47.467696200008504,None,47.467696200008504,None,47.467696200008504,None,None,None,None,None,None,,,,,,,,,,student1,2022-10-25_12h08.53.863,Hippopolis_Updating,2021.1.4,59.96041415424336,
Hippopolis,stimuli/subj_files/student1_cityA.csv,./stimuli/frankfurt.jpg,./stimuli/street_plate1.png,TELEP UTCA,stimuli/scenes/048a.jpg,scene,2,stimuli/objects/120a.jpg,stimuli/objects/120a.jpg,stimuli/objects/120b.jpg,stimuli/scenes/119b.jpg,stimuli/scenes/119a.jpg,target,lure,dist2,dist1,0,0,0,0,0,4,4,75,,,,,,,,,,,49.466493999934755,None,50.470021099899895,None,50.470021099899895,None,50.470021099899895,None,50.470021099899895,None,53.4994646999985,None,53.4994646999985,None,53.4994646999985,None,53.4994646999985,None,None,None,None,None,None,,,,,,,,,,student1,2022-10-25_12h08.53.863,Hippopolis_Updating,2021.1.4,59.96041415424336,
Hippopolis,stimuli/subj_files/student1_cityA.csv,./stimuli/frankfurt.jpg,./stimuli/street_plate1.png,TERASZ UTCA,stimuli/objects/063a.jpg,object,2,stimuli/scenes/104a.jpg,stimuli/scenes/104a.jpg,stimuli/scenes/056a.jpg,stimuli/scenes/104b.jpg,stimuli/scenes/056b.jpg,target,dist1,lure,dist2,0,0,0,0,0,5,5,48,,,,,,,,,,,55.48301620001439,None,56.48484579997603,None,56.48484579997603,None,56.48484579997603,None,56.48484579997603,None,59.51831499999389,None,59.51831499999389,None,59.51831499999389,None,59.51831499999389,None,None,None,None,None,None,,,,,,,,,,student1,2022-10-25_12h08.53.863,Hippopolis_Updating,2021.1.4,59.96041415424336,
Hippopolis,stimuli/subj_files/student1_cityA.csv,./stimuli/frankfurt.jpg,./stimuli/street_plate1.png,PETÁRDA UTCA,stimuli/objects/009a.jpg,object,0,stimuli/objects/009a.jpg,stimuli/objects/009a.jpg,stimuli/scenes/051a.jpg,stimuli/objects/009b.jpg,stimuli/scenes/051b.jpg,target,dist1,lure,dist2,0,0,0,0,0,6,6,64,,,,,,,,,,,61.50002959999256,None,62.504204500000924,None,62.504204500000924,None,62.504204500000924,None,62.504204500000924,None,65.52850499993656,None,65.52850499993656,None,65.52850499993656,None,65.52850499993656,None,None,None,None,None,None,,,,,,,,,,student1,2022-10-25_12h08.53.863,Hippopolis_Updating,2021.1.4,59.96041415424336,
Hippopolis,stimuli/subj_files/student1_cityA.csv,./stimuli/frankfurt.jpg,./stimuli/street_plate1.png,HEGESZTŐ UTCA,stimuli/scenes/043a.jpg,scene,0,stimuli/scenes/043a.jpg,stimuli/scenes/043b.jpg,stimuli/scenes/043a.jpg,stimuli/objects/062a.jpg,stimuli/objects/062b.jpg,lure,target,dist1,dist2,0,0,0,0,0,7,7,77,,,,,,,,,,,67.51611779991072,None,68.52425829996355,None,68.52425829996355,None,68.52425829996355,None,68.52425829996355,None,71.54196900001261,None,71.54196900001261,None,71.54196900001261,None,71.54196900001261,None,None,None,None,None,None,,,,,,,,,,student1,2022-10-25_12h08.53.863,Hippopolis_Updating,2021.1.4,59.96041415424336,
Hippopolis,stimuli/subj_files/student1_cityA.csv,./stimuli/frankfurt.jpg,./stimuli/street_plate1.png,PIZSAMA UTCA,stimuli/scenes/060a.jpg,scene,2,stimuli/objects/006a.jpg,stimuli/scenes/007b.jpg,stimuli/scenes/007a.jpg,stimuli/objects/006b.jpg,stimuli/objects/006a.jpg,dist2,dist1,lure,target,0,0,0,0,0,8,8,79,,,,,,,,,,,73.53270939993672,None,74.53385199990589,None,74.53385199990589,None,74.53385199990589,None,74.53385199990589,None,77.55109339999035,None,77.55109339999035,None,77.55109339999035,None,77.55109339999035,None,None,None,None,None,None,,,,,,,,,,student1,2022-10-25_12h08.53.863,Hippopolis_Updating,2021.1.4,59.96041415424336,
Hippopolis,stimuli/subj_files/student1_cityA.csv,./stimuli/frankfurt.jpg,./stimuli/street_plate1.png,KECSKE UTCA,stimuli/scenes/085a.jpg,scene,2,stimuli/objects/022a.jpg,stimuli/objects/022b.jpg,stimuli/objects/022a.jpg,stimuli/scenes/053a.jpg,stimuli/scenes/053b.jpg,lure,target,dist1,dist2,0,0,0,0,0,9,9,6,,,,,,,,,,,79.54939439997543,None,80.54936989990529,None,80.54936989990529,None,80.54936989990529,None,80.54936989990529,None,83.56082719995175,None,83.56082719995175,None,83.56082719995175,None,83.56082719995175,None,None,None,None,None,None,,,,,,,,,,student1,2022-10-25_12h08.53.863,Hippopolis_Updating,2021.1.4,59.96041415424336,
Hippopolis,stimuli/subj_files/student1_cityA.csv,./stimuli/frankfurt.jpg,./stimuli/street_plate1.png,LAKAT UTCA,stimuli/objects/066a.jpg,object,2,stimuli/scenes/084a.jpg,stimuli/scenes/084b.jpg,stimuli/scenes/034a.jpg,stimuli/scenes/084a.jpg,stimuli/scenes/034b.jpg,lure,dist1,target,dist2,0,0,0,0,0,10,10,58,,,,,,,,,,,85.56631969998125,None,86.56604589999188,None,86.56604589999188,None,86.56604589999188,None,86.56604589999188,None,89.58011929993518,None,89.58011929993518,None,89.58011929993518,None,89.58011929993518,None,None,None,None,None,None,,,,,,,,,,student1,2022-10-25_12h08.53.863,Hippopolis_Updating,2021.1.4,59.96041415424336,
Hippopolis,stimuli/subj_files/student1_cityA.csv,./stimuli/frankfurt.jpg,./stimuli/street_plate1.png,KÖMÉNYMAG UTCA,stimuli/objects/068a.jpg,object,1,stimuli/objects/045a.jpg,stimuli/objects/045a.jpg,stimuli/objects/045b.jpg,stimuli/objects/071a.jpg,stimuli/objects/071b.jpg,target,lure,dist1,dist2,0,0,0,0,0,11,11,18,,,,,,,,,,,91.58294419990852,None,92.58346210001037,None,92.58346210001037,None,92.58346210001037,None,92.58346210001037,None,95.59913979994599,None,95.59913979994599,None,95.59913979994599,None,95.59913979994599,None,None,None,None,None,None,,,,,,,,,,student1,2022-10-25_12h08.53.863,Hippopolis_Updating,2021.1.4,59.96041415424336,
Hippopolis,stimuli/subj_files/student1_cityA.csv,./stimuli/frankfurt.jpg,./stimuli/street_plate1.png,KULLANCS UTCA,stimuli/objects/089a.jpg,object,0,stimuli/objects/089a.jpg,stimuli/scenes/072a.jpg,stimuli/objects/089a.jpg,stimuli/scenes/072b.jpg,stimuli/objects/089b.jpg,dist1,target,dist2,lure,0,0,0,0,0,12,12,34,,,,,,,,,,,97.5994302999461,None,98.59936959994957,None,98.59936959994957,None,98.59936959994957,None,98.59936959994957,None,101.60702879994642,None,101.60702879994642,None,101.60702879994642,None,101.60702879994642,None,None,None,None,None,None,,,,,,,,,,student1,2022-10-25_12h08.53.863,Hippopolis_Updating,2021.1.4,59.96041415424336,
Hippopolis,stimuli/subj_files/student1_cityA.csv,./stimuli/frankfurt.jpg,./stimuli/street_plate1.png,PADLÓ UTCA,stimuli/objects/100a.jpg,object,0,stimuli/objects/100a.jpg,stimuli/scenes/058a.jpg,stimuli/scenes/058b.jpg,stimuli/objects/100a.jpg,stimuli/objects/100b.jpg,dist1,dist2,target,lure,0,0,0,0,0,13,13,59,,,,,,,,,,,103.61566599993967,None,104.61590629990678,None,104.61590629990678,None,104.61590629990678,None,104.61590629990678,None,107.619551199954,None,107.619551199954,None,107.619551199954,None,107.619551199954,None,None,None,None,None,None,,,,,,,,,,student1,2022-10-25_12h08.53.863,Hippopolis_Updating,2021.1.4,59.96041415424336,
Hippopolis,stimuli/subj_files/student1_cityA.csv,./stimuli/frankfurt.jpg,./stimuli/street_plate1.png,BÖGRE UTCA,stimuli/objects/050a.jpg,object,1,stimuli/objects/076a.jpg,stimuli/scenes/037a.jpg,stimuli/objects/076a.jpg,stimuli/objects/076b.jpg,stimuli/scenes/037b.jpg,dist1,target,lure,dist2,0,0,0,0,0,14,14,41,,,,,,,,,,,109.63204039994162,None,110.63532829994801,None,110.63532829994801,None,110.63532829994801,None,110.63532829994801,None,113.65850099991076,None,113.65850099991076,None,113.65850099991076,None,113.65850099991076,None,None,None,None,None,None,,,,,,,,,,student1,2022-10-25_12h08.53.863,Hippopolis_Updating,2021.1.4,59.96041415424336,
Hippopolis,stimuli/subj_files/student1_cityA.csv,./stimuli/frankfurt.jpg,./stimuli/street_plate1.png,FÓKA UTCA,stimuli/scenes/058a.jpg,scene,0,stimuli/scenes/058a.jpg,stimuli/scenes/058a.jpg,stimuli/scenes/058b.jpg,stimuli/objects/111b.jpg,stimuli/objects/111a.jpg,target,lure,dist2,dist1,0,0,0,0,0,15,15,51,,,,,,,,,,,115.64876549993642,None,116.65186959994026,None,116.65186959994026,None,116.65186959994026,None,116.65186959994026,None,119.67527449992485,None,119.67527449992485,None,119.67527449992485,None,119.67527449992485,None,None,None,None,None,None,,,,,,,,,,student1,2022-10-25_12h08.53.863,Hippopolis_Updating,2021.1.4,59.96041415424336,
Hippopolis,stimuli/subj_files/student1_cityA.csv,./stimuli/frankfurt.jpg,./stimuli/street_plate1.png,RÓZSA UTCA,stimuli/objects/091a.jpg,object,0,stimuli/objects/091a.jpg,stimuli/objects/091b.jpg,stimuli/objects/078b.jpg,stimuli/objects/078a.jpg,stimuli/objects/091a.jpg,lure,dist2,dist1,target,0,0,0,0,0,16,16,45,,,,,,,,,,,121.66519059997518,None,122.66612499998882,None,122.66612499998882,None,122.66612499998882,None,122.66612499998882,None,125.67040319996886,None,125.67040319996886,None,125.67040319996886,None,125.67040319996886,None,None,None,None,None,None,,,,,,,,,,student1,2022-10-25_12h08.53.863,Hippopolis_Updating,2021.1.4,59.96041415424336,
Hippopolis,stimuli/subj_files/student1_cityA.csv,./stimuli/frankfurt.jpg,./stimuli/street_plate1.png,AJÁNDÉK UTCA,stimuli/scenes/005a.jpg,scene,1,stimuli/scenes/009a.jpg,stimuli/scenes/078b.jpg,stimuli/scenes/078a.jpg,stimuli/scenes/009a.jpg,stimuli/scenes/009b.jpg,dist2,dist1,target,lure,0,0,0,0,0,17,17,28,,,,,,,,,,,127.68270529992878,None,128.68217059993185,None,128.68217059993185,None,128.68217059993185,None,128.68217059993185,None,131.68918879993726,None,131.68918879993726,None,131.68918879993726,None,131.68918879993726,None,None,None,None,None,None,,,,,,,,,,student1,2022-10-25_12h08.53.863,Hippopolis_Updating,2021.1.4,59.96041415424336,
Hippopolis,stimuli/subj_files/student1_cityA.csv,./stimuli/frankfurt.jpg,./stimuli/street_plate1.png,EGÉR UTCA,stimuli/scenes/071a.jpg,scene,1,stimuli/scenes/116a.jpg,stimuli/scenes/116b.jpg,stimuli/scenes/116a.jpg,stimuli/scenes/009b.jpg,stimuli/scenes/009a.jpg,lure,target,dist2,dist1,0,0,0,0,0,18,18,29,,,,,,,,,,,133.69907629990485,None,134.69863080000505,None,134.69863080000505,None,134.69863080000505,None,134.69863080000505,None,137.71365239995066,None,137.71365239995066,None,137.71365239995066,None,137.71365239995066,None,None,None,None,None,None,,,,,,,,,,student1,2022-10-25_12h08.53.863,Hippopolis_Updating,2021.1.4,59.96041415424336,
Hippopolis,stimuli/subj_files/student1_cityA.csv,./stimuli/frankfurt.jpg,./stimuli/street_plate1.png,HORDÓ UTCA,stimuli/scenes/095a.jpg,scene,0,stimuli/scenes/095a.jpg,stimuli/scenes/095a.jpg,stimuli/scenes/046a.jpg,stimuli/scenes/095b.jpg,stimuli/scenes/046b.jpg,target,dist1,lure,dist2,0,0,0,0,0,19,19,27,,,,,,,,,,,139.71550249995198,None,140.71514380001463,None,140.71514380001463,None,140.71514380001463,None,140.71514380001463,None,143.72014879994094,None,143.72014879994094,None,143.72014879994094,None,143.72014879994094,None,None,None,None,None,None,,,,,,,,,,student1,2022-10-25_12h08.53.863,Hippopolis_Updating,2021.1.4,59.96041415424336,
Hippopolis,stimuli/subj_files/student1_cityA.csv,./stimuli/frankfurt.jpg,./stimuli/street_plate1.png,KIRAKÓ UTCA,stimuli/objects/079a.jpg,object,2,stimuli/scenes/070a.jpg,stimuli/scenes/070a.jpg,stimuli/scenes/070b.jpg,stimuli/objects/043b.jpg,stimuli/objects/043a.jpg,target,lure,dist2,dist1,0,0,0,0,0,20,20,57,,,,,,,,,,,145.73141729994677,None,146.7321977999527,None,146.7321977999527,None,146.7321977999527,None,146.7321977999527,None,149.73889549996238,None,149.73889549996238,None,149.73889549996238,None,149.73889549996238,None,None,None,None,None,None,,,,,,,,,,student1,2022-10-25_12h08.53.863,Hippopolis_Updating,2021.1.4,59.96041415424336,
Hippopolis,stimuli/subj_files/student1_cityA.csv,./stimuli/frankfurt.jpg,./stimuli/street_plate1.png,KERÉK UTCA,stimuli/scenes/096a.jpg,scene,1,stimuli/scenes/041a.jpg,stimuli/scenes/117a.jpg,stimuli/scenes/041b.jpg,stimuli/scenes/041a.jpg,stimuli/scenes/117b.jpg,dist1,lure,target,dist2,0,0,0,0,0,21,21,20,,,,,,,,,,,151.74854890001006,None,152.74830719991587,None,152.74830719991587,None,152.74830719991587,None,152.74830719991587,None,155.75913019990548,None,155.75913019990548,None,155.75913019990548,None,155.75913019990548,None,None,None,None,None,None,,,,,,,,,,student1,2022-10-25_12h08.53.863,Hippopolis_Updating,2021.1.4,59.96041415424336,
Hippopolis,stimuli/subj_files/student1_cityA.csv,./stimuli/frankfurt.jpg,./stimuli/street_plate1.png,SZIKLA UTCA,stimuli/scenes/111a.jpg,scene,2,stimuli/objects/073a.jpg,stimuli/objects/120b.jpg,stimuli/objects/120a.jpg,stimuli/objects/073a.jpg,stimuli/objects/073b.jpg,dist2,dist1,target,lure,0,0,0,0,0,22,22,1,,,,,,,,,,,157.7646215999266,None,158.7653655000031,None,158.7653655000031,None,158.7653655000031,None,158.7653655000031,None,161.78762479999568,None,161.78762479999568,None,161.78762479999568,None,161.78762479999568,None,None,None,None,None,None,,,,,,,,,,student1,2022-10-25_12h08.53.863,Hippopolis_Updating,2021.1.4,59.96041415424336,
Hippopolis,stimuli/subj_files/student1_cityA.csv,./stimuli/frankfurt.jpg,./stimuli/street_plate1.png,PÁFRÁNY UTCA,stimuli/scenes/101a.jpg,scene,0,stimuli/scenes/101a.jpg,stimuli/scenes/101a.jpg,stimuli/scenes/101b.jpg,stimuli/objects/051a.jpg,stimuli/objects/051b.jpg,target,lure,dist1,dist2,0,0,0,0,0,23,23,0,,,,,,,,,,,163.78113479993772,None,164.7816993999295,None,164.7816993999295,None,164.7816993999295,None,164.7816993999295,None,167.78149949992076,None,167.78149949992076,None,167.78149949992076,None,167.78149949992076,None,None,None,None,None,None,,,,,,,,,,student1,2022-10-25_12h08.53.863,Hippopolis_Updating,2021.1.4,59.96041415424336,
Hippopolis,stimuli/subj_files/student1_cityA.csv,./stimuli/frankfurt.jpg,./stimuli/street_plate1.png,MOGYORÓ UTCA,stimuli/objects/106a.jpg,object,1,stimuli/objects/103a.jpg,stimuli/scenes/116a.jpg,stimuli/objects/103b.jpg,stimuli/objects/103a.jpg,stimuli/scenes/116b.jpg,dist1,lure,target,dist2,0,0,0,0,0,24,24,54,,,,,,,,,,,169.78177799994592,None,170.7832038999768,None,170.7832038999768,None,170.7832038999768,None,170.7832038999768,None,173.81063729990274,None,173.81063729990274,None,173.81063729990274,None,173.81063729990274,None,None,None,None,None,None,,,,,,,,,,student1,2022-10-25_12h08.53.863,Hippopolis_Updating,2021.1.4,59.96041415424336,
Hippopolis,stimuli/subj_files/student1_cityA.csv,./stimuli/frankfurt.jpg,./stimuli/street_plate1.png,CSILLAG UTCA,stimuli/scenes/083a.jpg,scene,1,stimuli/scenes/117a.jpg,stimuli/scenes/117a.jpg,stimuli/scenes/117b.jpg,stimuli/objects/041a.jpg,stimuli/objects/041b.jpg,target,lure,dist1,dist2,0,0,0,0,0,25,25,15,,,,,,,,,,,175.79784689994995,None,176.79932919994462,None,176.79932919994462,None,176.79932919994462,None,176.79932919994462,None,179.8237599999411,None,179.8237599999411,None,179.8237599999411,None,179.8237599999411,None,None,None,None,None,None,,,,,,,,,,student1,2022-10-25_12h08.53.863,Hippopolis_Updating,2021.1.4,59.96041415424336,
Hippopolis,stimuli/subj_files/student1_cityA.csv,./stimuli/frankfurt.jpg,./stimuli/street_plate1.png,ÁRNYÉK UTCA,stimuli/objects/020a.jpg,object,1,stimuli/objects/027a.jpg,stimuli/scenes/004a.jpg,stimuli/objects/027b.jpg,stimuli/objects/027a.jpg,stimuli/scenes/004b.jpg,dist1,lure,target,dist2,0,0,0,0,0,26,26,52,,,,,,,,,,,181.81483489996754,None,182.81581989990082,None,182.81581989990082,None,182.81581989990082,None,182.81581989990082,None,185.84273329994176,None,185.84273329994176,None,185.84273329994176,None,185.84273329994176,None,None,None,None,None,None,,,,,,,,,,student1,2022-10-25_12h08.53.863,Hippopolis_Updating,2021.1.4,59.96041415424336,
Hippopolis,stimuli/subj_files/student1_cityA.csv,./stimuli/frankfurt.jpg,./stimuli/street_plate1.png,KORONA UTCA,stimuli/scenes/108a.jpg,scene,1,stimuli/scenes/011a.jpg,stimuli/objects/076a.jpg,stimuli/scenes/011b.jpg,stimuli/objects/076b.jpg,stimuli/scenes/011a.jpg,dist1,lure,dist2,target,0,0,0,0,0,27,27,9,,,,,,,,,,,187.83096279995516,None,188.83731500001159,None,188.83731500001159,None,188.83731500001159,None,188.83731500001159,None,191.854651200003,None,191.854651200003,None,191.854651200003,None,191.854651200003,None,None,None,None,None,None,,,,,,,,,,student1,2022-10-25_12h08.53.863,Hippopolis_Updating,2021.1.4,59.96041415424336,
Hippopolis,stimuli/subj_files/student1_cityA.csv,./stimuli/frankfurt.jpg,./stimuli/street_plate1.png,BAGOLY UTCA,stimuli/scenes/029a.jpg,scene,2,stimuli/objects/028a.jpg,stimuli/objects/028b.jpg,stimuli/objects/028a.jpg,stimuli/scenes/028a.jpg,stimuli/scenes/028b.jpg,lure,target,dist1,dist2,0,0,0,0,0,28,28,21,,,,,,,,,,,193.84776709997095,None,194.84812280000187,None,194.84812280000187,None,194.84812280000187,None,194.84812280000187,None,197.85853969992604,None,197.85853969992604,None,197.85853969992604,None,197.85853969992604,None,None,None,None,None,None,,,,,,,,,,student1,2022-10-25_12h08.53.863,Hippopolis_Updating,2021.1.4,59.96041415424336,
Hippopolis,stimuli/subj_files/student1_cityA.csv,./stimuli/frankfurt.jpg,./stimuli/street_plate1.png,PULÓVER UTCA,stimuli/objects/114a.jpg,object,0,stimuli/objects/114a.jpg,stimuli/scenes/050b.jpg,stimuli/scenes/050a.jpg,stimuli/objects/114b.jpg,stimuli/objects/114a.jpg,dist2,dist1,lure,target,0,0,0,0,0,29,29,43,,,,,,,,,,,199.86453359993175,None,200.8698670999147,None,200.8698670999147,None,200.8698670999147,None,200.8698670999147,None,203.8889051999431,None,203.8889051999431,None,203.8889051999431,None,203.8889051999431,None,None,None,None,None,None,,,,,,,,,,student1,2022-10-25_12h08.53.863,Hippopolis_Updating,2021.1.4,59.96041415424336,
Hippopolis,stimuli/subj_files/student1_cityA.csv,./stimuli/frankfurt.jpg,./stimuli/street_plate1.png,ÜVEG UTCA,stimuli/scenes/061a.jpg,scene,2,stimuli/objects/085a.jpg,stimuli/objects/085b.jpg,stimuli/scenes/084a.jpg,stimuli/objects/085a.jpg,stimuli/scenes/084b.jpg,lure,dist1,target,dist2,0,0,0,0,0,30,30,19,,,,,,,,,,,205.88061089999974,None,206.8841795999324,None,206.8841795999324,None,206.8841795999324,None,206.8841795999324,None,209.9194863999728,None,209.9194863999728,None,209.9194863999728,None,209.9194863999728,None,None,None,None,None,None,,,,,,,,,,student1,2022-10-25_12h08.53.863,Hippopolis_Updating,2021.1.4,59.96041415424336,
Hippopolis,stimuli/subj_files/student1_cityA.csv,./stimuli/frankfurt.jpg,./stimuli/street_plate1.png,TRIATLON UTCA,stimuli/objects/024a.jpg,object,0,stimuli/objects/024a.jpg,stimuli/objects/024b.jpg,stimuli/objects/080a.jpg,stimuli/objects/024a.jpg,stimuli/objects/080b.jpg,lure,dist1,target,dist2,0,0,0,0,0,31,31,2,,,,,,,,,,,211.89767289999872,None,212.89731999998912,None,212.89731999998912,None,212.89731999998912,None,212.89731999998912,None,215.90060469997115,None,215.90060469997115,None,215.90060469997115,None,215.90060469997115,None,None,None,None,None,None,,,,,,,,,,student1,2022-10-25_12h08.53.863,Hippopolis_Updating,2021.1.4,59.96041415424336,
Hippopolis,stimuli/subj_files/student1_cityA.csv,./stimuli/frankfurt.jpg,./stimuli/street_plate1.png,KÖNYVTÁR UTCA,stimuli/objects/113a.jpg,object,1,stimuli/objects/109a.jpg,stimuli/objects/109a.jpg,stimuli/objects/109b.jpg,stimuli/scenes/067a.jpg,stimuli/scenes/067b.jpg,target,lure,dist1,dist2,0,0,0,0,0,32,32,42,,,,,,,,,,,217.91366550000384,None,218.91420899995137,None,218.91420899995137,None,218.91420899995137,None,218.91420899995137,None,221.92868949996773,None,221.92868949996773,None,221.92868949996773,None,221.92868949996773,None,None,None,None,None,None,,,,,,,,,,student1,2022-10-25_12h08.53.863,Hippopolis_Updating,2021.1.4,59.96041415424336,
Hippopolis,stimuli/subj_files/student1_cityA.csv,./stimuli/frankfurt.jpg,./stimuli/street_plate1.png,MARTINI UTCA,stimuli/objects/060a.jpg,object,1,stimuli/objects/011a.jpg,stimuli/objects/075b.jpg,stimuli/objects/075a.jpg,stimuli/objects/011b.jpg,stimuli/objects/011a.jpg,dist2,dist1,lure,target,0,0,0,0,0,33,33,60,,,,,,,,,,,223.93019839993212,None,224.9305000999011,None,224.9305000999011,None,224.9305000999011,None,224.9305000999011,None,227.93944599991664,None,227.93944599991664,None,227.93944599991664,None,227.93944599991664,None,None,None,None,None,None,,,,,,,,,,student1,2022-10-25_12h08.53.863,Hippopolis_Updating,2021.1.4,59.96041415424336,
Hippopolis,stimuli/subj_files/student1_cityA.csv,./stimuli/frankfurt.jpg,./stimuli/street_plate1.png,TOJÁS UTCA,stimuli/objects/021a.jpg,object,2,stimuli/scenes/034a.jpg,stimuli/scenes/034a.jpg,stimuli/objects/059a.jpg,stimuli/objects/059b.jpg,stimuli/scenes/034b.jpg,target,dist1,dist2,lure,0,0,0,0,0,34,34,37,,,,,,,,,,,229.94668589998037,None,230.94767829997,None,230.94767829997,None,230.94767829997,None,230.94767829997,None,233.9537377000088,None,233.9537377000088,None,233.9537377000088,None,233.9537377000088,None,None,None,None,None,None,,,,,,,,,,student1,2022-10-25_12h08.53.863,Hippopolis_Updating,2021.1.4,59.96041415424336,
Hippopolis,stimuli/subj_files/student1_cityA.csv,./stimuli/frankfurt.jpg,./stimuli/street_plate1.png,RÁDIÓ UTCA,stimuli/scenes/068a.jpg,scene,1,stimuli/scenes/067a.jpg,stimuli/scenes/018b.jpg,stimuli/scenes/067a.jpg,stimuli/scenes/067b.jpg,stimuli/scenes/018a.jpg,dist2,target,lure,dist1,0,0,0,0,0,35,35,44,,,,,,,,,,,235.9638232999714,None,236.96521960000973,None,236.96521960000973,None,236.96521960000973,None,236.96521960000973,None,239.98196689994074,None,239.98196689994074,None,239.98196689994074,None,239.98196689994074,None,None,None,None,None,None,,,,,,,,,,student1,2022-10-25_12h08.53.863,Hippopolis_Updating,2021.1.4,59.96041415424336,
Hippopolis,stimuli/subj_files/student1_cityA.csv,./stimuli/frankfurt.jpg,./stimuli/street_plate1.png,KARTON UTCA,stimuli/objects/101a.jpg,object,2,stimuli/scenes/044a.jpg,stimuli/scenes/074a.jpg,stimuli/scenes/044b.jpg,stimuli/scenes/044a.jpg,stimuli/scenes/074b.jpg,dist1,lure,target,dist2,0,0,0,0,0,36,36,8,,,,,,,,,,,241.97997409990057,None,242.9814435999142,None,242.9814435999142,None,242.9814435999142,None,242.9814435999142,None,246.00054789998103,None,246.00054789998103,None,246.00054789998103,None,246.00054789998103,None,None,None,None,None,None,,,,,,,,,,student1,2022-10-25_12h08.53.863,Hippopolis_Updating,2021.1.4,59.96041415424336,
Hippopolis,stimuli/subj_files/student1_cityA.csv,./stimuli/frankfurt.jpg,./stimuli/street_plate1.png,KOCKA UTCA,stimuli/objects/062a.jpg,object,0,stimuli/objects/062a.jpg,stimuli/scenes/095b.jpg,stimuli/objects/062a.jpg,stimuli/objects/062b.jpg,stimuli/scenes/095a.jpg,dist2,target,lure,dist1,0,0,0,0,0,37,37,35,,,,,,,,,,,247.99644729995634,None,248.99732520000543,None,248.99732520000543,None,248.99732520000543,None,248.99732520000543,None,252.01867939997464,None,252.01867939997464,None,252.01867939997464,None,252.01867939997464,None,None,None,None,None,None,,,,,,,,,,student1,2022-10-25_12h08.53.863,Hippopolis_Updating,2021.1.4,59.96041415424336,
Hippopolis,stimuli/subj_files/student1_cityA.csv,./stimuli/frankfurt.jpg,./stimuli/street_plate1.png,CITROM UTCA,stimuli/scenes/036a.jpg,scene,2,stimuli/objects/043a.jpg,stimuli/objects/043b.jpg,stimuli/objects/067a.jpg,stimuli/objects/043a.jpg,stimuli/objects/067b.jpg,lure,dist1,target,dist2,0,0,0,0,0,38,38,26,,,,,,,,,,,254.01367069990374,None,255.01324239990208,None,255.01324239990208,None,255.01324239990208,None,255.01324239990208,None,258.0323319999734,None,258.0323319999734,None,258.0323319999734,None,258.0323319999734,None,None,None,None,None,None,,,,,,,,,,student1,2022-10-25_12h08.53.863,Hippopolis_Updating,2021.1.4,59.96041415424336,
Hippopolis,stimuli/subj_files/student1_cityA.csv,./stimuli/frankfurt.jpg,./stimuli/street_plate1.png,BOLYGÓ UTCA,stimuli/scenes/118a.jpg,scene,1,stimuli/scenes/087a.jpg,stimuli/objects/011a.jpg,stimuli/scenes/087b.jpg,stimuli/objects/011b.jpg,stimuli/scenes/087a.jpg,dist1,lure,dist2,target,0,0,0,0,0,39,39,31,,,,,,,,,,,260.0302515999647,None,261.03046239994,None,261.03046239994,None,261.03046239994,None,261.03046239994,None,264.03883340000175,None,264.03883340000175,None,264.03883340000175,None,264.03883340000175,None,None,None,None,None,None,,,,,,,,,,student1,2022-10-25_12h08.53.863,Hippopolis_Updating,2021.1.4,59.96041415424336,
Hippopolis,stimuli/subj_files/student1_cityA.csv,./stimuli/frankfurt.jpg,./stimuli/street_plate1.png,SIVATAG UTCA,stimuli/scenes/016a.jpg,scene,2,stimuli/objects/046a.jpg,stimuli/objects/046b.jpg,stimuli/objects/006a.jpg,stimuli/objects/006b.jpg,stimuli/objects/046a.jpg,lure,dist1,dist2,target,0,0,0,0,0,40,40,23,,,,,,,,,,,266.0463530999841,None,267.0481064999476,None,267.0481064999476,None,267.0481064999476,None,267.0481064999476,None,270.0749901999952,None,270.0749901999952,None,270.0749901999952,None,270.0749901999952,None,None,None,None,None,None,,,,,,,,,,student1,2022-10-25_12h08.53.863,Hippopolis_Updating,2021.1.4,59.96041415424336,
Hippopolis,stimuli/subj_files/student1_cityA.csv,./stimuli/frankfurt.jpg,./stimuli/street_plate1.png,KÖTÉL UTCA,stimuli/objects/051a.jpg,object,0,stimuli/objects/051a.jpg,stimuli/scenes/024b.jpg,stimuli/objects/051b.jpg,stimuli/scenes/024a.jpg,stimuli/objects/051a.jpg,dist2,lure,dist1,target,0,0,0,0,0,41,41,7,,,,,,,,,,,272.0627456000075,None,273.06364519998897,None,273.06364519998897,None,273.06364519998897,None,273.06364519998897,None,276.0713383000111,None,276.0713383000111,None,276.0713383000111,None,276.0713383000111,None,None,None,None,None,None,,,,,,,,,,student1,2022-10-25_12h08.53.863,Hippopolis_Updating,2021.1.4,59.96041415424336,
Hippopolis,stimuli/subj_files/student1_cityA.csv,./stimuli/frankfurt.jpg,./stimuli/street_plate1.png,MUSTÁR UTCA,stimuli/scenes/050a.jpg,scene,0,stimuli/scenes/050a.jpg,stimuli/objects/009a.jpg,stimuli/objects/009b.jpg,stimuli/scenes/050a.jpg,stimuli/scenes/050b.jpg,dist1,dist2,target,lure,0,0,0,0,0,42,42,78,,,,,,,,,,,278.0798588999314,None,279.0796061999863,None,279.0796061999863,None,279.0796061999863,None,279.0796061999863,None,282.08278629998676,None,282.08278629998676,None,282.08278629998676,None,282.08278629998676,None,None,None,None,None,None,,,,,,,,,,student1,2022-10-25_12h08.53.863,Hippopolis_Updating,2021.1.4,59.96041415424336,
Hippopolis,stimuli/subj_files/student1_cityA.csv,./stimuli/frankfurt.jpg,./stimuli/street_plate1.png,HAJÓ UTCA,stimuli/objects/086a.jpg,object,1,stimuli/objects/041a.jpg,stimuli/scenes/014a.jpg,stimuli/scenes/014b.jpg,stimuli/objects/041a.jpg,stimuli/objects/041b.jpg,dist1,dist2,target,lure,0,0,0,0,0,43,43,71,,,,,,,,,,,284.0963902999647,None,285.0973557999823,None,285.0973557999823,None,285.0973557999823,None,285.0973557999823,None,288.11774079990573,None,288.11774079990573,None,288.11774079990573,None,288.11774079990573,None,None,None,None,None,None,,,,,,,,,,student1,2022-10-25_12h08.53.863,Hippopolis_Updating,2021.1.4,59.96041415424336,
Hippopolis,stimuli/subj_files/student1_cityA.csv,./stimuli/frankfurt.jpg,./stimuli/street_plate1.png,ZSEMLE UTCA,stimuli/objects/115a.jpg,object,1,stimuli/objects/053a.jpg,stimuli/objects/007a.jpg,stimuli/objects/053a.jpg,stimuli/objects/007b.jpg,stimuli/objects/053b.jpg,dist1,target,dist2,lure,0,0,0,0,0,44,44,47,,,,,,,,,,,290.1123203999596,None,291.1129396999022,None,291.1129396999022,None,291.1129396999022,None,291.1129396999022,None,294.1233702999307,None,294.1233702999307,None,294.1233702999307,None,294.1233702999307,None,296.1291772999102,None,space,296.1291772999102,None,2.227647399995476,,,,,,,,,student1,2022-10-25_12h08.53.863,Hippopolis_Updating,2021.1.4,59.96041415424336,
Hippopolis,stimuli/subj_files/student1_cityA.csv,./stimuli/frankfurt.jpg,./stimuli/street_plate1.png,MOTOR UTCA,stimuli/objects/097a.jpg,object,1,stimuli/objects/071a.jpg,stimuli/objects/015b.jpg,stimuli/objects/071b.jpg,stimuli/objects/071a.jpg,stimuli/objects/015a.jpg,dist2,lure,target,dist1,0,0,0,0,0,45,45,36,,,,,,,,,,,298.3795095999958,None,299.3792474999791,None,299.3792474999791,None,299.3792474999791,None,299.3792474999791,None,302.39829629997257,None,302.39829629997257,None,302.39829629997257,None,302.39829629997257,None,None,None,None,None,None,,,,,,,,,,student1,2022-10-25_12h08.53.863,Hippopolis_Updating,2021.1.4,59.96041415424336,
Hippopolis,stimuli/subj_files/student1_cityA.csv,./stimuli/frankfurt.jpg,./stimuli/street_plate1.png,POGÁCSA UTCA,stimuli/scenes/046a.jpg,scene,0,stimuli/scenes/046a.jpg,stimuli/scenes/042a.jpg,stimuli/scenes/046a.jpg,stimuli/scenes/046b.jpg,stimuli/scenes/042b.jpg,dist1,target,lure,dist2,0,0,0,0,0,46,46,49,,,,,,,,,,,304.3955145999789,None,305.39584079990163,None,305.39584079990163,None,305.39584079990163,None,305.39584079990163,None,308.4001363000134,None,308.4001363000134,None,308.4001363000134,None,308.4001363000134,None,None,None,None,None,None,,,,,,,,,,student1,2022-10-25_12h08.53.863,Hippopolis_Updating,2021.1.4,59.96041415424336,
Hippopolis,stimuli/subj_files/student1_cityA.csv,./stimuli/frankfurt.jpg,./stimuli/street_plate1.png,SZOMSZÉD UTCA,stimuli/objects/026a.jpg,object,1,stimuli/objects/004a.jpg,stimuli/objects/027b.jpg,stimuli/objects/004b.jpg,stimuli/objects/004a.jpg,stimuli/objects/027a.jpg,dist2,lure,target,dist1,0,0,0,0,0,47,47,65,,,,,,,,,,,310.41237229993567,None,311.4124071999686,None,311.4124071999686,None,311.4124071999686,None,311.4124071999686,None,314.4307613999117,None,314.4307613999117,None,314.4307613999117,None,314.4307613999117,None,None,None,None,None,None,,,,,,,,,,student1,2022-10-25_12h08.53.863,Hippopolis_Updating,2021.1.4,59.96041415424336,
Hippopolis,stimuli/subj_files/student1_cityA.csv,./stimuli/frankfurt.jpg,./stimuli/street_plate1.png,LIGET UTCA,stimuli/objects/038a.jpg,object,2,stimuli/scenes/109a.jpg,stimuli/scenes/109a.jpg,stimuli/objects/055a.jpg,stimuli/scenes/109b.jpg,stimuli/objects/055b.jpg,target,dist1,lure,dist2,0,0,0,0,0,48,48,62,,,,,,,,,,,316.4289095000131,None,317.4290233999491,None,317.4290233999491,None,317.4290233999491,None,317.4290233999491,None,320.44566959992517,None,320.44566959992517,None,320.44566959992517,None,320.44566959992517,None,None,None,None,None,None,,,,,,,,,,student1,2022-10-25_12h08.53.863,Hippopolis_Updating,2021.1.4,59.96041415424336,
Hippopolis,stimuli/subj_files/student1_cityA.csv,./stimuli/frankfurt.jpg,./stimuli/street_plate1.png,KOKTÉL UTCA,stimuli/scenes/008a.jpg,scene,2,stimuli/objects/012a.jpg,stimuli/objects/036b.jpg,stimuli/objects/012b.jpg,stimuli/objects/036a.jpg,stimuli/objects/012a.jpg,dist2,lure,dist1,target,0,0,0,0,0,49,49,46,,,,,,,,,,,322.445547399926,None,323.44618480000645,None,323.44618480000645,None,323.44618480000645,None,323.44618480000645,None,326.45700449997094,None,326.45700449997094,None,326.45700449997094,None,326.45700449997094,None,None,None,None,None,None,,,,,,,,,,student1,2022-10-25_12h08.53.863,Hippopolis_Updating,2021.1.4,59.96041415424336,
Hippopolis,stimuli/subj_files/student1_cityA.csv,./stimuli/frankfurt.jpg,./stimuli/street_plate1.png,TOBOZ UTCA,stimuli/objects/001a.jpg,object,2,stimuli/scenes/059a.jpg,stimuli/scenes/059a.jpg,stimuli/objects/085a.jpg,stimuli/objects/085b.jpg,stimuli/scenes/059b.jpg,target,dist1,dist2,lure,0,0,0,0,0,50,50,40,,,,,,,,,,,328.462303099921,None,329.46197999990545,None,329.46197999990545,None,329.46197999990545,None,329.46197999990545,None,332.4671443999978,None,332.4671443999978,None,332.4671443999978,None,332.4671443999978,None,None,None,None,None,None,,,,,,,,,,student1,2022-10-25_12h08.53.863,Hippopolis_Updating,2021.1.4,59.96041415424336,
Hippopolis,stimuli/subj_files/student1_cityA.csv,./stimuli/frankfurt.jpg,./stimuli/street_plate1.png,TALICSKA UTCA,stimuli/objects/014a.jpg,object,1,stimuli/objects/108a.jpg,stimuli/objects/109a.jpg,stimuli/objects/109b.jpg,stimuli/objects/108a.jpg,stimuli/objects/108b.jpg,dist1,dist2,target,lure,0,0,0,0,0,51,51,13,,,,,,,,,,,334.47831209993456,None,335.48098250001203,None,335.48098250001203,None,335.48098250001203,None,335.48098250001203,None,338.50525799999014,None,338.50525799999014,None,338.50525799999014,None,338.50525799999014,None,None,None,None,None,None,,,,,,,,,,student1,2022-10-25_12h08.53.863,Hippopolis_Updating,2021.1.4,59.96041415424336,
Hippopolis,stimuli/subj_files/student1_cityA.csv,./stimuli/frankfurt.jpg,./stimuli/street_plate1.png,CSAVAR UTCA,stimuli/objects/078a.jpg,object,0,stimuli/objects/078a.jpg,stimuli/objects/078b.jpg,stimuli/objects/024b.jpg,stimuli/objects/078a.jpg,stimuli/objects/024a.jpg,lure,dist2,target,dist1,0,0,0,0,0,52,52,10,,,,,,,,,,,340.4950411999598,None,341.49561390001327,None,341.49561390001327,None,341.49561390001327,None,341.49561390001327,None,344.5025670999894,None,344.5025670999894,None,344.5025670999894,None,344.5025670999894,None,None,None,None,None,None,,,,,,,,,,student1,2022-10-25_12h08.53.863,Hippopolis_Updating,2021.1.4,59.96041415424336,
Hippopolis,stimuli/subj_files/student1_cityA.csv,./stimuli/frankfurt.jpg,./stimuli/street_plate1.png,MOCSÁR UTCA,stimuli/objects/080a.jpg,object,0,stimuli/objects/080a.jpg,stimuli/objects/080b.jpg,stimuli/objects/080a.jpg,stimuli/scenes/043b.jpg,stimuli/scenes/043a.jpg,lure,target,dist2,dist1,0,0,0,0,0,53,53,17,,,,,,,,,,,346.51203579991125,None,347.51372109993827,None,347.51372109993827,None,347.51372109993827,None,347.51372109993827,None,350.5336224999046,None,350.5336224999046,None,350.5336224999046,None,350.5336224999046,None,None,None,None,None,None,,,,,,,,,,student1,2022-10-25_12h08.53.863,Hippopolis_Updating,2021.1.4,59.96041415424336,
Hippopolis,stimuli/subj_files/student1_cityA.csv,./stimuli/frankfurt.jpg,./stimuli/street_plate1.png,LÉTRA UTCA,stimuli/objects/047a.jpg,object,1,stimuli/objects/015a.jpg,stimuli/objects/108b.jpg,stimuli/objects/015b.jpg,stimuli/objects/108a.jpg,stimuli/objects/015a.jpg,dist2,lure,dist1,target,0,0,0,0,0,54,54,33,,,,,,,,,,,352.5280375999864,None,353.52891130000353,None,353.52891130000353,None,353.52891130000353,None,353.52891130000353,None,356.5370575999841,None,356.5370575999841,None,356.5370575999841,None,356.5370575999841,None,None,None,None,None,None,,,,,,,,,,student1,2022-10-25_12h08.53.863,Hippopolis_Updating,2021.1.4,59.96041415424336,
Hippopolis,stimuli/subj_files/student1_cityA.csv,./stimuli/frankfurt.jpg,./stimuli/street_plate1.png,HARMONIKA UTCA,stimuli/scenes/024a.jpg,scene,0,stimuli/scenes/024a.jpg,stimuli/scenes/101b.jpg,stimuli/scenes/024b.jpg,stimuli/scenes/101a.jpg,stimuli/scenes/024a.jpg,dist2,lure,dist1,target,0,0,0,0,0,55,55,25,,,,,,,,,,,358.5452843999956,None,359.5450591999106,None,359.5450591999106,None,359.5450591999106,None,359.5450591999106,None,362.5462489000056,None,362.5462489000056,None,362.5462489000056,None,362.5462489000056,None,None,None,None,None,None,,,,,,,,,,student1,2022-10-25_12h08.53.863,Hippopolis_Updating,2021.1.4,59.96041415424336,
Hippopolis,stimuli/subj_files/student1_cityA.csv,./stimuli/frankfurt.jpg,./stimuli/street_plate1.png,CUKOR UTCA,stimuli/objects/111a.jpg,object,0,stimuli/objects/111a.jpg,stimuli/objects/089b.jpg,stimuli/objects/111b.jpg,stimuli/objects/111a.jpg,stimuli/objects/089a.jpg,dist2,lure,target,dist1,0,0,0,0,0,56,56,30,,,,,,,,,,,364.5451414999552,None,365.54554630001076,None,365.54554630001076,None,365.54554630001076,None,365.54554630001076,None,368.55245429999195,None,368.55245429999195,None,368.55245429999195,None,368.55245429999195,None,None,None,None,None,None,,,,,,,,,,student1,2022-10-25_12h08.53.863,Hippopolis_Updating,2021.1.4,59.96041415424336,
Hippopolis,stimuli/subj_files/student1_cityA.csv,./stimuli/frankfurt.jpg,./stimuli/street_plate1.png,PÁLMAFA UTCA,stimuli/objects/090a.jpg,object,1,stimuli/objects/007a.jpg,stimuli/objects/053a.jpg,stimuli/objects/007a.jpg,stimuli/objects/053b.jpg,stimuli/objects/007b.jpg,dist1,target,dist2,lure,0,0,0,0,0,57,57,12,,,,,,,,,,,370.56157749996055,None,371.56175759993494,None,371.56175759993494,None,371.56175759993494,None,371.56175759993494,None,374.5757309999317,None,374.5757309999317,None,374.5757309999317,None,374.5757309999317,None,None,None,None,None,None,,,,,,,,,,student1,2022-10-25_12h08.53.863,Hippopolis_Updating,2021.1.4,59.96041415424336,
Hippopolis,stimuli/subj_files/student1_cityA.csv,./stimuli/frankfurt.jpg,./stimuli/street_plate1.png,MÁLNA UTCA,stimuli/objects/069a.jpg,object,2,stimuli/scenes/053a.jpg,stimuli/objects/073a.jpg,stimuli/objects/073b.jpg,stimuli/scenes/053b.jpg,stimuli/scenes/053a.jpg,dist1,dist2,lure,target,0,0,0,0,0,58,58,14,,,,,,,,,,,376.57799029990565,None,377.5784858999541,None,377.5784858999541,None,377.5784858999541,None,377.5784858999541,None,380.5865883999504,None,380.5865883999504,None,380.5865883999504,None,380.5865883999504,None,None,None,None,None,None,,,,,,,,,,student1,2022-10-25_12h08.53.863,Hippopolis_Updating,2021.1.4,59.96041415424336,
Hippopolis,stimuli/subj_files/student1_cityA.csv,./stimuli/frankfurt.jpg,./stimuli/street_plate1.png,OROSZLÁN UTCA,stimuli/scenes/072a.jpg,scene,0,stimuli/scenes/072a.jpg,stimuli/scenes/072a.jpg,stimuli/scenes/072b.jpg,stimuli/scenes/027b.jpg,stimuli/scenes/027a.jpg,target,lure,dist2,dist1,0,0,0,0,0,59,59,66,,,,,,,,,,,382.59415399993304,None,383.5951877000043,None,383.5951877000043,None,383.5951877000043,None,383.5951877000043,None,386.5974991999101,None,386.5974991999101,None,386.5974991999101,None,386.5974991999101,None,None,None,None,None,None,,,,,,,,,,student1,2022-10-25_12h08.53.863,Hippopolis_Updating,2021.1.4,59.96041415424336,
Hippopolis,stimuli/subj_files/student1_cityA.csv,./stimuli/frankfurt.jpg,./stimuli/street_plate1.png,NARANCS UTCA,stimuli/objects/017a.jpg,object,1,stimuli/objects/075a.jpg,stimuli/objects/075a.jpg,stimuli/scenes/041b.jpg,stimuli/scenes/041a.jpg,stimuli/objects/075b.jpg,target,dist2,dist1,lure,0,0,0,0,0,60,60,76,,,,,,,,,,,388.6113389999373,None,389.612119999947,None,389.612119999947,None,389.612119999947,None,389.612119999947,None,392.62980489991605,None,392.62980489991605,None,392.62980489991605,None,392.62980489991605,None,None,None,None,None,None,,,,,,,,,,student1,2022-10-25_12h08.53.863,Hippopolis_Updating,2021.1.4,59.96041415424336,
Hippopolis,stimuli/subj_files/student1_cityA.csv,./stimuli/frankfurt.jpg,./stimuli/street_plate1.png,HEGEDŰ UTCA,stimuli/scenes/113a.jpg,scene,2,stimuli/objects/036a.jpg,stimuli/objects/036b.jpg,stimuli/scenes/059b.jpg,stimuli/scenes/059a.jpg,stimuli/objects/036a.jpg,lure,dist2,dist1,target,0,0,0,0,0,61,61,69,,,,,,,,,,,394.6273525999859,None,395.6320960999001,None,395.6320960999001,None,395.6320960999001,None,395.6320960999001,None,398.65953850001097,None,398.65953850001097,None,398.65953850001097,None,398.65953850001097,None,None,None,None,None,None,,,,,,,,,,student1,2022-10-25_12h08.53.863,Hippopolis_Updating,2021.1.4,59.96041415424336,
Hippopolis,stimuli/subj_files/student1_cityA.csv,./stimuli/frankfurt.jpg,./stimuli/street_plate1.png,KORONG UTCA,stimuli/scenes/065a.jpg,scene,1,stimuli/scenes/004a.jpg,stimuli/scenes/004a.jpg,stimuli/scenes/011b.jpg,stimuli/scenes/011a.jpg,stimuli/scenes/004b.jpg,target,dist2,dist1,lure,0,0,0,0,0,62,62,53,,,,,,,,,,,400.6444268999621,None,401.6442054999061,None,401.6442054999061,None,401.6442054999061,None,401.6442054999061,None,404.6543063999852,None,404.6543063999852,None,404.6543063999852,None,404.6543063999852,None,None,None,None,None,None,,,,,,,,,,student1,2022-10-25_12h08.53.863,Hippopolis_Updating,2021.1.4,59.96041415424336,
Hippopolis,stimuli/subj_files/student1_cityA.csv,./stimuli/frankfurt.jpg,./stimuli/street_plate1.png,FOGAS UTCA,stimuli/scenes/025a.jpg,scene,1,stimuli/scenes/018a.jpg,stimuli/scenes/018b.jpg,stimuli/scenes/064a.jpg,stimuli/scenes/018a.jpg,stimuli/scenes/064b.jpg,lure,dist1,target,dist2,0,0,0,0,0,63,63,38,,,,,,,,,,,406.66050689993426,None,407.66084979998413,None,407.66084979998413,None,407.66084979998413,None,407.66084979998413,None,410.6655604999978,None,410.6655604999978,None,410.6655604999978,None,410.6655604999978,None,None,None,None,None,None,,,,,,,,,,student1,2022-10-25_12h08.53.863,Hippopolis_Updating,2021.1.4,59.96041415424336,
Hippopolis,stimuli/subj_files/student1_cityA.csv,./stimuli/frankfurt.jpg,./stimuli/street_plate1.png,HERNYÓ UTCA,stimuli/scenes/066a.jpg,scene,1,stimuli/scenes/037a.jpg,stimuli/scenes/037a.jpg,stimuli/objects/045b.jpg,stimuli/scenes/037b.jpg,stimuli/objects/045a.jpg,target,dist2,lure,dist1,0,0,0,0,0,64,64,5,,,,,,,,,,,412.67770709993783,None,413.67781109991483,None,413.67781109991483,None,413.67781109991483,None,413.67781109991483,None,416.68328190001193,None,416.68328190001193,None,416.68328190001193,None,416.68328190001193,None,None,None,None,None,None,,,,,,,,,,student1,2022-10-25_12h08.53.863,Hippopolis_Updating,2021.1.4,59.96041415424336,
Hippopolis,stimuli/subj_files/student1_cityA.csv,./stimuli/frankfurt.jpg,./stimuli/street_plate1.png,VÖDÖR UTCA,stimuli/scenes/055a.jpg,scene,1,stimuli/scenes/088a.jpg,stimuli/scenes/088b.jpg,stimuli/scenes/088a.jpg,stimuli/scenes/087b.jpg,stimuli/scenes/087a.jpg,lure,target,dist2,dist1,0,0,0,0,0,65,65,56,,,,,,,,,,,418.69416829990223,None,419.6960135999834,None,419.6960135999834,None,419.6960135999834,None,419.6960135999834,None,422.72712409996893,None,422.72712409996893,None,422.72712409996893,None,422.72712409996893,None,None,None,None,None,None,,,,,,,,,,student1,2022-10-25_12h08.53.863,Hippopolis_Updating,2021.1.4,59.96041415424336,
Hippopolis,stimuli/subj_files/student1_cityA.csv,./stimuli/frankfurt.jpg,./stimuli/street_plate1.png,FIÓK UTCA,stimuli/scenes/002a.jpg,scene,1,stimuli/scenes/014a.jpg,stimuli/scenes/014a.jpg,stimuli/objects/004a.jpg,stimuli/objects/004b.jpg,stimuli/scenes/014b.jpg,target,dist1,dist2,lure,0,0,0,0,0,66,66,73,,,,,,,,,,,424.7104989999207,None,425.7106316999998,None,425.7106316999998,None,425.7106316999998,None,425.7106316999998,None,428.7161194999935,None,428.7161194999935,None,428.7161194999935,None,428.7161194999935,None,None,None,None,None,None,,,,,,,,,,student1,2022-10-25_12h08.53.863,Hippopolis_Updating,2021.1.4,59.96041415424336,
Hippopolis,stimuli/subj_files/student1_cityA.csv,./stimuli/frankfurt.jpg,./stimuli/street_plate1.png,PAPUCS UTCA,stimuli/scenes/051a.jpg,scene,0,stimuli/scenes/051a.jpg,stimuli/scenes/051b.jpg,stimuli/scenes/051a.jpg,stimuli/scenes/090a.jpg,stimuli/scenes/090b.jpg,lure,target,dist1,dist2,0,0,0,0,0,67,67,68,,,,,,,,,,,430.72734859993216,None,431.727199499961,None,431.727199499961,None,431.727199499961,None,431.727199499961,None,434.7370416999329,None,434.7370416999329,None,434.7370416999329,None,434.7370416999329,None,None,None,None,None,None,,,,,,,,,,student1,2022-10-25_12h08.53.863,Hippopolis_Updating,2021.1.4,59.96041415424336,
Hippopolis,stimuli/subj_files/student1_cityA.csv,./stimuli/frankfurt.jpg,./stimuli/street_plate1.png,VASALÓ UTCA,stimuli/objects/025a.jpg,object,2,stimuli/scenes/056a.jpg,stimuli/scenes/044a.jpg,stimuli/scenes/056b.jpg,stimuli/scenes/056a.jpg,stimuli/scenes/044b.jpg,dist1,lure,target,dist2,0,0,0,0,0,68,68,70,,,,,,,,,,,436.74384419992566,None,437.74429979990236,None,437.74429979990236,None,437.74429979990236,None,437.74429979990236,None,440.76045059994794,None,440.76045059994794,None,440.76045059994794,None,440.76045059994794,None,None,None,None,None,None,,,,,,,,,,student1,2022-10-25_12h08.53.863,Hippopolis_Updating,2021.1.4,59.96041415424336,
Hippopolis,stimuli/subj_files/student1_cityA.csv,./stimuli/frankfurt.jpg,./stimuli/street_plate1.png,BONBON UTCA,stimuli/objects/095a.jpg,object,2,stimuli/scenes/007a.jpg,stimuli/objects/028b.jpg,stimuli/objects/028a.jpg,stimuli/scenes/007a.jpg,stimuli/scenes/007b.jpg,dist2,dist1,target,lure,0,0,0,0,0,69,69,72,,,,,,,,,,,442.7605961000081,None,443.7612951999763,None,443.7612951999763,None,443.7612951999763,None,443.7612951999763,None,446.77680699992925,None,446.77680699992925,None,446.77680699992925,None,446.77680699992925,None,None,None,None,None,None,,,,,,,,,,student1,2022-10-25_12h08.53.863,Hippopolis_Updating,2021.1.4,59.96041415424336,
Hippopolis,stimuli/subj_files/student1_cityA.csv,./stimuli/frankfurt.jpg,./stimuli/street_plate1.png,ÁLOM UTCA,stimuli/objects/070a.jpg,object,0,stimuli/objects/070a.jpg,stimuli/objects/070b.jpg,stimuli/objects/114b.jpg,stimuli/objects/114a.jpg,stimuli/objects/070a.jpg,lure,dist2,dist1,target,0,0,0,0,0,70,70,50,,,,,,,,,,,448.77702639997005,None,449.7765472999308,None,449.7765472999308,None,449.7765472999308,None,449.7765472999308,None,452.79236469999887,None,452.79236469999887,None,452.79236469999887,None,452.79236469999887,None,None,None,None,None,None,,,,,,,,,,student1,2022-10-25_12h08.53.863,Hippopolis_Updating,2021.1.4,59.96041415424336,
Hippopolis,stimuli/subj_files/student1_cityA.csv,./stimuli/frankfurt.jpg,./stimuli/street_plate1.png,FÉNYKÉP UTCA,stimuli/scenes/010a.jpg,scene,1,stimuli/scenes/078a.jpg,stimuli/scenes/088a.jpg,stimuli/scenes/078a.jpg,stimuli/scenes/088b.jpg,stimuli/scenes/078b.jpg,dist1,target,dist2,lure,0,0,0,0,0,71,71,32,,,,,,,,,,,454.7936517999042,None,455.79412430000957,None,455.79412430000957,None,455.79412430000957,None,455.79412430000957,None,458.79960339993704,None,458.79960339993704,None,458.79960339993704,None,458.79960339993704,None,None,None,None,None,None,,,,,,,,,,student1,2022-10-25_12h08.53.863,Hippopolis_Updating,2021.1.4,59.96041415424336,
Hippopolis,stimuli/subj_files/student1_cityA.csv,./stimuli/frankfurt.jpg,./stimuli/street_plate1.png,MUNKA UTCA,stimuli/scenes/039a.jpg,scene,2,stimuli/objects/067a.jpg,stimuli/scenes/097a.jpg,stimuli/objects/067b.jpg,stimuli/objects/067a.jpg,stimuli/scenes/097b.jpg,dist1,lure,target,dist2,0,0,0,0,0,72,72,4,,,,,,,,,,,460.8095411999384,None,461.81041349994484,None,461.81041349994484,None,461.81041349994484,None,461.81041349994484,None,464.8205733000068,None,464.8205733000068,None,464.8205733000068,None,464.8205733000068,None,None,None,None,None,None,,,,,,,,,,student1,2022-10-25_12h08.53.863,Hippopolis_Updating,2021.1.4,59.96041415424336,
Hippopolis,stimuli/subj_files/student1_cityA.csv,./stimuli/frankfurt.jpg,./stimuli/street_plate1.png,HÁRFA UTCA,stimuli/objects/083a.jpg,object,2,stimuli/scenes/028a.jpg,stimuli/scenes/028b.jpg,stimuli/objects/012b.jpg,stimuli/objects/012a.jpg,stimuli/scenes/028a.jpg,lure,dist2,dist1,target,0,0,0,0,0,73,73,16,,,,,,,,,,,466.826827300014,None,467.82648609997705,None,467.82648609997705,None,467.82648609997705,None,467.82648609997705,None,470.8375775999157,None,470.8375775999157,None,470.8375775999157,None,470.8375775999157,None,None,None,None,None,None,,,,,,,,,,student1,2022-10-25_12h08.53.863,Hippopolis_Updating,2021.1.4,59.96041415424336,
Hippopolis,stimuli/subj_files/student1_cityA.csv,./stimuli/frankfurt.jpg,./stimuli/street_plate1.png,AKÁC UTCA,stimuli/scenes/081a.jpg,scene,2,stimuli/objects/055a.jpg,stimuli/objects/055b.jpg,stimuli/objects/107b.jpg,stimuli/objects/107a.jpg,stimuli/objects/055a.jpg,lure,dist2,dist1,target,0,0,0,0,0,74,74,74,,,,,,,,,,,472.843400200014,None,473.8431010999484,None,473.8431010999484,None,473.8431010999484,None,473.8431010999484,None,476.86216499994043,None,476.86216499994043,None,476.86216499994043,None,476.86216499994043,None,None,None,None,None,None,,,,,,,,,,student1,2022-10-25_12h08.53.863,Hippopolis_Updating,2021.1.4,59.96041415424336,
Hippopolis,stimuli/subj_files/student1_cityA.csv,./stimuli/frankfurt.jpg,./stimuli/street_plate1.png,KAKAS UTCA,stimuli/objects/002a.jpg,object,2,stimuli/scenes/074a.jpg,stimuli/scenes/074b.jpg,stimuli/scenes/074a.jpg,stimuli/scenes/070a.jpg,stimuli/scenes/070b.jpg,lure,target,dist1,dist2,0,0,0,0,0,75,75,24,,,,,,,,,,,478.8599360999651,None,479.86028479994275,None,479.86028479994275,None,479.86028479994275,None,479.86028479994275,None,482.8671900999034,None,482.8671900999034,None,482.8671900999034,None,482.8671900999034,None,None,None,None,None,None,,,,,,,,,,student1,2022-10-25_12h08.53.863,Hippopolis_Updating,2021.1.4,59.96041415424336,
Hippopolis,stimuli/subj_files/student1_cityA.csv,./stimuli/frankfurt.jpg,./stimuli/street_plate1.png,DOMINÓ UTCA,stimuli/scenes/042a.jpg,scene,0,stimuli/scenes/042a.jpg,stimuli/scenes/042a.jpg,stimuli/scenes/042b.jpg,stimuli/objects/070a.jpg,stimuli/objects/070b.jpg,target,lure,dist1,dist2,0,0,0,0,0,76,76,63,,,,,,,,,,,484.8765561999753,None,485.87860699999146,None,485.87860699999146,None,485.87860699999146,None,485.87860699999146,None,488.89554509997834,None,488.89554509997834,None,488.89554509997834,None,488.89554509997834,None,None,None,None,None,None,,,,,,,,,,student1,2022-10-25_12h08.53.863,Hippopolis_Updating,2021.1.4,59.96041415424336,
Hippopolis,stimuli/subj_files/student1_cityA.csv,./stimuli/frankfurt.jpg,./stimuli/street_plate1.png,OLDAL UTCA,stimuli/scenes/093a.jpg,scene,2,stimuli/objects/107a.jpg,stimuli/objects/107b.jpg,stimuli/objects/022a.jpg,stimuli/objects/107a.jpg,stimuli/objects/022b.jpg,lure,dist1,target,dist2,0,0,0,0,0,77,77,11,,,,,,,,,,,490.8924233999569,None,491.8933679999318,None,491.8933679999318,None,491.8933679999318,None,491.8933679999318,None,494.911333899945,None,494.911333899945,None,494.911333899945,None,494.911333899945,None,None,None,None,None,None,,,,,,,,,,student1,2022-10-25_12h08.53.863,Hippopolis_Updating,2021.1.4,59.96041415424336,
Hippopolis,stimuli/subj_files/student1_cityA.csv,./stimuli/frankfurt.jpg,./stimuli/street_plate1.png,LÁNDZSA UTCA,stimuli/scenes/090a.jpg,scene,0,stimuli/scenes/090a.jpg,stimuli/scenes/090a.jpg,stimuli/objects/091b.jpg,stimuli/scenes/090b.jpg,stimuli/objects/091a.jpg,target,dist2,lure,dist1,0,0,0,0,0,78,78,39,,,,,,,,,,,496.90956259996165,None,497.9102482999442,None,497.9102482999442,None,497.9102482999442,None,497.9102482999442,None,500.91320629999973,None,500.91320629999973,None,500.91320629999973,None,500.91320629999973,None,None,None,None,None,None,,,,,,,,,,student1,2022-10-25_12h08.53.863,Hippopolis_Updating,2021.1.4,59.96041415424336,
Hippopolis,stimuli/subj_files/student1_cityA.csv,./stimuli/frankfurt.jpg,./stimuli/street_plate1.png,TOLLTARTÓ UTCA,stimuli/objects/032a.jpg,object,2,stimuli/scenes/119a.jpg,stimuli/scenes/119a.jpg,stimuli/scenes/104b.jpg,stimuli/scenes/104a.jpg,stimuli/scenes/119b.jpg,target,dist2,dist1,lure,0,0,0,0,0,79,79,67,,,,,,,,,,,502.9261641999474,None,503.9273971999064,None,503.9273971999064,None,503.9273971999064,None,503.9273971999064,None,506.95385519997217,None,506.95385519997217,None,506.95385519997217,None,506.95385519997217,None,None,None,None,None,None,,,,,,,,,,student1,2022-10-25_12h08.53.863,Hippopolis_Updating,2021.1.4,59.96041415424336,
Camponello,stimuli/subj_files/student1_cityB.csv,./stimuli/leipzig.jpg,./stimuli/street_plate2.png,BOHÓC UTCA,stimuli/objects/064a.jpg,object,0,stimuli/objects/064a.jpg,stimuli/objects/040b.jpg,stimuli/objects/040a.jpg,stimuli/objects/064a.jpg,stimuli/objects/064b.jpg,dist2,dist1,target,lure,0,1,1,1,0,0,0,17,,,,,,,520.8729955999879,None,520.8729955999879,None,523.8542457999429,None,524.8582743000006,None,524.8582743000006,None,524.8582743000006,None,524.8582743000006,None,527.8498954999959,None,527.8498954999959,None,527.8498954999959,None,527.8498954999959,None,None,None,None,None,None,,508.942552399938,None,space,11.875005900044926,508.942552399938,None,,,student1,2022-10-25_12h08.53.863,Hippopolis_Updating,2021.1.4,59.96041415424336,
Camponello,stimuli/subj_files/student1_cityB.csv,./stimuli/leipzig.jpg,./stimuli/street_plate2.png,SZILVA UTCA,stimuli/objects/105a.jpg,object,0,stimuli/objects/105a.jpg,stimuli/objects/049b.jpg,stimuli/objects/105b.jpg,stimuli/objects/049a.jpg,stimuli/objects/105a.jpg,dist2,lure,dist1,target,0,1,1,1,0,1,1,36,,,,,,,,,,,529.8419161000056,None,530.8439784999937,None,530.8439784999937,None,530.8439784999937,None,530.8439784999937,None,533.8732153999154,None,533.8732153999154,None,533.8732153999154,None,533.8732153999154,None,None,None,None,None,None,,,,,,,,,,student1,2022-10-25_12h08.53.863,Hippopolis_Updating,2021.1.4,59.96041415424336,
Camponello,stimuli/subj_files/student1_cityB.csv,./stimuli/leipzig.jpg,./stimuli/street_plate2.png,TÁSKA UTCA,stimuli/objects/110a.jpg,object,2,stimuli/scenes/079a.jpg,stimuli/scenes/079a.jpg,stimuli/objects/037b.jpg,stimuli/objects/037a.jpg,stimuli/scenes/079b.jpg,target,dist2,dist1,lure,0,1,1,1,0,2,2,33,,,,,,,,,,,535.8590321999509,None,536.8594748999458,None,536.8594748999458,None,536.8594748999458,None,536.8594748999458,None,539.8673444999149,None,539.8673444999149,None,539.8673444999149,None,539.8673444999149,None,None,None,None,None,None,,,,,,,,,,student1,2022-10-25_12h08.53.863,Hippopolis_Updating,2021.1.4,59.96041415424336,
Camponello,stimuli/subj_files/student1_cityB.csv,./stimuli/leipzig.jpg,./stimuli/street_plate2.png,LÉPCSŐ UTCA,stimuli/objects/049a.jpg,object,0,stimuli/objects/049a.jpg,stimuli/scenes/076b.jpg,stimuli/scenes/076a.jpg,stimuli/objects/049b.jpg,stimuli/objects/049a.jpg,dist2,dist1,lure,target,0,1,1,1,0,3,3,43,,,,,,,,,,,541.8749591999222,None,542.8756117000012,None,542.8756117000012,None,542.8756117000012,None,542.8756117000012,None,545.8756090999814,None,545.8756090999814,None,545.8756090999814,None,545.8756090999814,None,None,None,None,None,None,,,,,,,,,,student1,2022-10-25_12h08.53.863,Hippopolis_Updating,2021.1.4,59.96041415424336,
Camponello,stimuli/subj_files/student1_cityB.csv,./stimuli/leipzig.jpg,./stimuli/street_plate2.png,TULIPÁN UTCA,stimuli/objects/058a.jpg,object,0,stimuli/objects/058a.jpg,stimuli/objects/117a.jpg,stimuli/objects/117b.jpg,stimuli/objects/058b.jpg,stimuli/objects/058a.jpg,dist1,dist2,lure,target,0,1,1,1,0,4,4,1,,,,,,,,,,,547.8756125000073,None,548.8757417999441,None,548.8757417999441,None,548.8757417999441,None,548.8757417999441,None,551.8828296000138,None,551.8828296000138,None,551.8828296000138,None,551.8828296000138,None,None,None,None,None,None,,,,,,,,,,student1,2022-10-25_12h08.53.863,Hippopolis_Updating,2021.1.4,59.96041415424336,
Camponello,stimuli/subj_files/student1_cityB.csv,./stimuli/leipzig.jpg,./stimuli/street_plate2.png,SZÖCSKE UTCA,stimuli/scenes/026a.jpg,scene,2,stimuli/objects/061a.jpg,stimuli/scenes/063a.jpg,stimuli/objects/061a.jpg,stimuli/scenes/063b.jpg,stimuli/objects/061b.jpg,dist1,target,dist2,lure,0,1,1,1,0,5,5,71,,,,,,,,,,,553.8919528999832,None,554.8917477999348,None,554.8917477999348,None,554.8917477999348,None,554.8917477999348,None,557.9035231999587,None,557.9035231999587,None,557.9035231999587,None,557.9035231999587,None,None,None,None,None,None,,,,,,,,,,student1,2022-10-25_12h08.53.863,Hippopolis_Updating,2021.1.4,59.96041415424336,
Camponello,stimuli/subj_files/student1_cityB.csv,./stimuli/leipzig.jpg,./stimuli/street_plate2.png,LEGELŐ UTCA,stimuli/objects/030a.jpg,object,0,stimuli/objects/030a.jpg,stimuli/objects/039a.jpg,stimuli/objects/030a.jpg,stimuli/objects/030b.jpg,stimuli/objects/039b.jpg,dist1,target,lure,dist2,0,1,1,1,0,6,6,70,,,,,,,,,,,559.908123799949,None,560.9087626999244,None,560.9087626999244,None,560.9087626999244,None,560.9087626999244,None,563.9231876999838,None,563.9231876999838,None,563.9231876999838,None,563.9231876999838,None,None,None,None,None,None,,,,,,,,,,student1,2022-10-25_12h08.53.863,Hippopolis_Updating,2021.1.4,59.96041415424336,
Camponello,stimuli/subj_files/student1_cityB.csv,./stimuli/leipzig.jpg,./stimuli/street_plate2.png,VÁSÁR UTCA,stimuli/scenes/089a.jpg,scene,0,stimuli/scenes/089a.jpg,stimuli/scenes/089a.jpg,stimuli/scenes/089b.jpg,stimuli/scenes/082b.jpg,stimuli/scenes/082a.jpg,target,lure,dist2,dist1,0,1,1,1,0,7,7,41,,,,,,,,,,,565.9246357999509,None,566.9250814999687,None,566.9250814999687,None,566.9250814999687,None,566.9250814999687,None,569.9282661000034,None,569.9282661000034,None,569.9282661000034,None,569.9282661000034,None,None,None,None,None,None,,,,,,,,,,student1,2022-10-25_12h08.53.863,Hippopolis_Updating,2021.1.4,59.96041415424336,
Camponello,stimuli/subj_files/student1_cityB.csv,./stimuli/leipzig.jpg,./stimuli/street_plate2.png,ORVOS UTCA,stimuli/objects/016a.jpg,object,0,stimuli/objects/016a.jpg,stimuli/scenes/089a.jpg,stimuli/scenes/089b.jpg,stimuli/objects/016a.jpg,stimuli/objects/016b.jpg,dist1,dist2,target,lure,0,1,1,1,0,8,8,4,,,,,,,,,,,571.9413267999189,None,572.9416460999055,None,572.9416460999055,None,572.9416460999055,None,572.9416460999055,None,575.953072699951,None,575.953072699951,None,575.953072699951,None,575.953072699951,None,None,None,None,None,None,,,,,,,,,,student1,2022-10-25_12h08.53.863,Hippopolis_Updating,2021.1.4,59.96041415424336,
Camponello,stimuli/subj_files/student1_cityB.csv,./stimuli/leipzig.jpg,./stimuli/street_plate2.png,SIRÁLY UTCA,stimuli/objects/081a.jpg,object,0,stimuli/objects/081a.jpg,stimuli/objects/081a.jpg,stimuli/objects/081b.jpg,stimuli/scenes/019a.jpg,stimuli/scenes/019b.jpg,target,lure,dist1,dist2,0,1,1,1,0,9,9,50,,,,,,,,,,,577.9577522999607,None,578.9585163999582,None,578.9585163999582,None,578.9585163999582,None,578.9585163999582,None,581.9707352999831,None,581.9707352999831,None,581.9707352999831,None,581.9707352999831,None,None,None,None,None,None,,,,,,,,,,student1,2022-10-25_12h08.53.863,Hippopolis_Updating,2021.1.4,59.96041415424336,
Camponello,stimuli/subj_files/student1_cityB.csv,./stimuli/leipzig.jpg,./stimuli/street_plate2.png,TÜKÖR UTCA,stimuli/scenes/006a.jpg,scene,0,stimuli/scenes/006a.jpg,stimuli/objects/116b.jpg,stimuli/objects/116a.jpg,stimuli/scenes/006a.jpg,stimuli/scenes/006b.jpg,dist2,dist1,target,lure,0,1,1,1,0,10,10,25,,,,,,,,,,,583.9747180999257,None,584.9781526000006,None,584.9781526000006,None,584.9781526000006,None,584.9781526000006,None,588.0017576999962,None,588.0017576999962,None,588.0017576999962,None,588.0017576999962,None,None,None,None,None,None,,,,,,,,,,student1,2022-10-25_12h08.53.863,Hippopolis_Updating,2021.1.4,59.96041415424336,
Camponello,stimuli/subj_files/student1_cityB.csv,./stimuli/leipzig.jpg,./stimuli/street_plate2.png,ZÁSZLÓ UTCA,stimuli/scenes/103a.jpg,scene,2,stimuli/objects/037a.jpg,stimuli/scenes/102b.jpg,stimuli/objects/037b.jpg,stimuli/scenes/102a.jpg,stimuli/objects/037a.jpg,dist2,lure,dist1,target,0,1,1,1,0,11,11,60,,,,,,,,,,,589.9909257999389,None,590.9914369999897,None,590.9914369999897,None,590.9914369999897,None,590.9914369999897,None,594.00183809991,None,594.00183809991,None,594.00183809991,None,594.00183809991,None,None,None,None,None,None,,,,,,,,,,student1,2022-10-25_12h08.53.863,Hippopolis_Updating,2021.1.4,59.96041415424336,
Camponello,stimuli/subj_files/student1_cityB.csv,./stimuli/leipzig.jpg,./stimuli/street_plate2.png,SAJTÓ UTCA,stimuli/scenes/112a.jpg,scene,0,stimuli/scenes/112a.jpg,stimuli/objects/018a.jpg,stimuli/scenes/112b.jpg,stimuli/scenes/112a.jpg,stimuli/objects/018b.jpg,dist1,lure,target,dist2,0,1,1,1,0,12,12,15,,,,,,,,,,,596.0079953999957,None,597.0077738999389,None,597.0077738999389,None,597.0077738999389,None,597.0077738999389,None,600.0175422999309,None,600.0175422999309,None,600.0175422999309,None,600.0175422999309,None,None,None,None,None,None,,,,,,,,,,student1,2022-10-25_12h08.53.863,Hippopolis_Updating,2021.1.4,59.96041415424336,
Camponello,stimuli/subj_files/student1_cityB.csv,./stimuli/leipzig.jpg,./stimuli/street_plate2.png,KALAPÁCS UTCA,stimuli/scenes/049a.jpg,scene,0,stimuli/scenes/049a.jpg,stimuli/objects/112b.jpg,stimuli/scenes/049a.jpg,stimuli/objects/112a.jpg,stimuli/scenes/049b.jpg,dist2,target,dist1,lure,0,1,1,1,0,13,13,3,,,,,,,,,,,602.0245074999984,None,603.0251082999166,None,603.0251082999166,None,603.0251082999166,None,603.0251082999166,None,606.0276454999112,None,606.0276454999112,None,606.0276454999112,None,606.0276454999112,None,None,None,None,None,None,,,,,,,,,,student1,2022-10-25_12h08.53.863,Hippopolis_Updating,2021.1.4,59.96041415424336,
Camponello,stimuli/subj_files/student1_cityB.csv,./stimuli/leipzig.jpg,./stimuli/street_plate2.png,LOVAGLÁS UTCA,stimuli/objects/019a.jpg,object,0,stimuli/objects/019a.jpg,stimuli/objects/019b.jpg,stimuli/objects/019a.jpg,stimuli/scenes/017b.jpg,stimuli/scenes/017a.jpg,lure,target,dist2,dist1,0,1,1,1,0,14,14,53,,,,,,,,,,,608.0402389999945,None,609.0409222999588,None,609.0409222999588,None,609.0409222999588,None,609.0409222999588,None,612.0545760999667,None,612.0545760999667,None,612.0545760999667,None,612.0545760999667,None,None,None,None,None,None,,,,,,,,,,student1,2022-10-25_12h08.53.863,Hippopolis_Updating,2021.1.4,59.96041415424336,
Camponello,stimuli/subj_files/student1_cityB.csv,./stimuli/leipzig.jpg,./stimuli/street_plate2.png,TOLMÁCS UTCA,stimuli/scenes/082a.jpg,scene,0,stimuli/scenes/082a.jpg,stimuli/scenes/082b.jpg,stimuli/objects/081b.jpg,stimuli/objects/081a.jpg,stimuli/scenes/082a.jpg,lure,dist2,dist1,target,0,1,1,1,0,15,15,2,,,,,,,,,,,614.05765959993,None,615.0580615999643,None,615.0580615999643,None,615.0580615999643,None,615.0580615999643,None,618.0678593999473,None,618.0678593999473,None,618.0678593999473,None,618.0678593999473,None,None,None,None,None,None,,,,,,,,,,student1,2022-10-25_12h08.53.863,Hippopolis_Updating,2021.1.4,59.96041415424336,
Camponello,stimuli/subj_files/student1_cityB.csv,./stimuli/leipzig.jpg,./stimuli/street_plate2.png,MENTA UTCA,stimuli/objects/092a.jpg,object,0,stimuli/objects/092a.jpg,stimuli/scenes/069a.jpg,stimuli/scenes/069b.jpg,stimuli/objects/092a.jpg,stimuli/objects/092b.jpg,dist1,dist2,target,lure,0,1,1,1,0,16,16,67,,,,,,,,,,,620.0741973000113,None,621.074054799974,None,621.074054799974,None,621.074054799974,None,621.074054799974,None,624.0762376999483,None,624.0762376999483,None,624.0762376999483,None,624.0762376999483,None,None,None,None,None,None,,,,,,,,,,student1,2022-10-25_12h08.53.863,Hippopolis_Updating,2021.1.4,59.96041415424336,
Camponello,stimuli/subj_files/student1_cityB.csv,./stimuli/leipzig.jpg,./stimuli/street_plate2.png,BANÁN UTCA,stimuli/scenes/045a.jpg,scene,0,stimuli/scenes/045a.jpg,stimuli/scenes/045b.jpg,stimuli/scenes/045a.jpg,stimuli/scenes/112b.jpg,stimuli/scenes/112a.jpg,lure,target,dist2,dist1,0,1,1,1,0,17,17,57,,,,,,,,,,,626.0902596999658,None,627.0906830999302,None,627.0906830999302,None,627.0906830999302,None,627.0906830999302,None,630.0910179999191,None,630.0910179999191,None,630.0910179999191,None,630.0910179999191,None,None,None,None,None,None,,,,,,,,,,student1,2022-10-25_12h08.53.863,Hippopolis_Updating,2021.1.4,59.96041415424336,
Camponello,stimuli/subj_files/student1_cityB.csv,./stimuli/leipzig.jpg,./stimuli/street_plate2.png,GYŰRŰ UTCA,stimuli/objects/056a.jpg,object,1,stimuli/objects/013a.jpg,stimuli/objects/013b.jpg,stimuli/objects/087b.jpg,stimuli/objects/013a.jpg,stimuli/objects/087a.jpg,lure,dist2,target,dist1,0,1,1,1,0,18,18,22,,,,,,,,,,,632.0902077999199,None,633.0921437999932,None,633.0921437999932,None,633.0921437999932,None,633.0921437999932,None,636.1270274999551,None,636.1270274999551,None,636.1270274999551,None,636.1270274999551,None,None,None,None,None,None,,,,,,,,,,student1,2022-10-25_12h08.53.863,Hippopolis_Updating,2021.1.4,59.96041415424336,
Camponello,stimuli/subj_files/student1_cityB.csv,./stimuli/leipzig.jpg,./stimuli/street_plate2.png,MÁRVÁNY UTCA,stimuli/scenes/023a.jpg,scene,0,stimuli/scenes/023a.jpg,stimuli/objects/030a.jpg,stimuli/scenes/023b.jpg,stimuli/objects/030b.jpg,stimuli/scenes/023a.jpg,dist1,lure,dist2,target,0,1,1,1,0,19,19,58,,,,,,,,,,,638.1072261999361,None,639.1101358999731,None,639.1101358999731,None,639.1101358999731,None,639.1101358999731,None,642.133432499948,None,642.133432499948,None,642.133432499948,None,642.133432499948,None,None,None,None,None,None,,,,,,,,,,student1,2022-10-25_12h08.53.863,Hippopolis_Updating,2021.1.4,59.96041415424336,
Camponello,stimuli/subj_files/student1_cityB.csv,./stimuli/leipzig.jpg,./stimuli/street_plate2.png,FÉSŰ UTCA,stimuli/objects/084a.jpg,object,0,stimuli/objects/084a.jpg,stimuli/objects/118b.jpg,stimuli/objects/118a.jpg,stimuli/objects/084a.jpg,stimuli/objects/084b.jpg,dist2,dist1,target,lure,0,1,1,1,0,20,20,23,,,,,,,,,,,644.1238753999351,None,645.1241473999107,None,645.1241473999107,None,645.1241473999107,None,645.1241473999107,None,648.1365466999123,None,648.1365466999123,None,648.1365466999123,None,648.1365466999123,None,None,None,None,None,None,,,,,,,,,,student1,2022-10-25_12h08.53.863,Hippopolis_Updating,2021.1.4,59.96041415424336,
Camponello,stimuli/subj_files/student1_cityB.csv,./stimuli/leipzig.jpg,./stimuli/street_plate2.png,HARCSA UTCA,stimuli/scenes/080a.jpg,scene,2,stimuli/objects/029a.jpg,stimuli/scenes/054b.jpg,stimuli/scenes/054a.jpg,stimuli/objects/029b.jpg,stimuli/objects/029a.jpg,dist2,dist1,lure,target,0,1,1,1,0,21,21,59,,,,,,,,,,,650.1404017999303,None,651.1406368999742,None,651.1406368999742,None,651.1406368999742,None,651.1406368999742,None,654.157728799968,None,654.157728799968,None,654.157728799968,None,654.157728799968,None,None,None,None,None,None,,,,,,,,,,student1,2022-10-25_12h08.53.863,Hippopolis_Updating,2021.1.4,59.96041415424336,
Camponello,stimuli/subj_files/student1_cityB.csv,./stimuli/leipzig.jpg,./stimuli/street_plate2.png,KÁRTYA UTCA,stimuli/scenes/076a.jpg,scene,0,stimuli/scenes/076a.jpg,stimuli/objects/008a.jpg,stimuli/scenes/076b.jpg,stimuli/scenes/076a.jpg,stimuli/objects/008b.jpg,dist1,lure,target,dist2,0,1,1,1,0,22,22,64,,,,,,,,,,,656.1563254999928,None,657.15625609993,None,657.15625609993,None,657.15625609993,None,657.15625609993,None,660.1635602999013,None,660.1635602999013,None,660.1635602999013,None,660.1635602999013,None,None,None,None,None,None,,,,,,,,,,student1,2022-10-25_12h08.53.863,Hippopolis_Updating,2021.1.4,59.96041415424336,
Camponello,stimuli/subj_files/student1_cityB.csv,./stimuli/leipzig.jpg,./stimuli/street_plate2.png,KÓKUSZ UTCA,stimuli/scenes/052a.jpg,scene,0,stimuli/scenes/052a.jpg,stimuli/scenes/052a.jpg,stimuli/objects/077b.jpg,stimuli/objects/077a.jpg,stimuli/scenes/052b.jpg,target,dist2,dist1,lure,0,1,1,1,0,23,23,19,,,,,,,,,,,662.1737801999552,None,663.1738511999138,None,663.1738511999138,None,663.1738511999138,None,663.1738511999138,None,666.1740235999459,None,666.1740235999459,None,666.1740235999459,None,666.1740235999459,None,None,None,None,None,None,,,,,,,,,,student1,2022-10-25_12h08.53.863,Hippopolis_Updating,2021.1.4,59.96041415424336,
Camponello,stimuli/subj_files/student1_cityB.csv,./stimuli/leipzig.jpg,./stimuli/street_plate2.png,KATONA UTCA,stimuli/objects/077a.jpg,object,0,stimuli/objects/077a.jpg,stimuli/objects/077a.jpg,stimuli/scenes/115a.jpg,stimuli/scenes/115b.jpg,stimuli/objects/077b.jpg,target,dist1,dist2,lure,0,1,1,1,0,24,24,74,,,,,,,,,,,668.1737269998994,None,669.1734101999318,None,669.1734101999318,None,669.1734101999318,None,669.1734101999318,None,672.1846086999867,None,672.1846086999867,None,672.1846086999867,None,672.1846086999867,None,None,None,None,None,None,,,,,,,,,,student1,2022-10-25_12h08.53.863,Hippopolis_Updating,2021.1.4,59.96041415424336,
Camponello,stimuli/subj_files/student1_cityB.csv,./stimuli/leipzig.jpg,./stimuli/street_plate2.png,LEMEZ UTCA,stimuli/scenes/022a.jpg,scene,0,stimuli/scenes/022a.jpg,stimuli/scenes/077b.jpg,stimuli/scenes/022a.jpg,stimuli/scenes/022b.jpg,stimuli/scenes/077a.jpg,dist2,target,lure,dist1,0,1,1,1,0,25,25,13,,,,,,,,,,,674.1901676999405,None,675.1896765999263,None,675.1896765999263,None,675.1896765999263,None,675.1896765999263,None,678.1957712000003,None,678.1957712000003,None,678.1957712000003,None,678.1957712000003,None,None,None,None,None,None,,,,,,,,,,student1,2022-10-25_12h08.53.863,Hippopolis_Updating,2021.1.4,59.96041415424336,
Camponello,stimuli/subj_files/student1_cityB.csv,./stimuli/leipzig.jpg,./stimuli/street_plate2.png,PAPRIKA UTCA,stimuli/objects/033a.jpg,object,0,stimuli/objects/033a.jpg,stimuli/scenes/023a.jpg,stimuli/objects/033b.jpg,stimuli/scenes/023b.jpg,stimuli/objects/033a.jpg,dist1,lure,dist2,target,0,1,1,1,0,26,26,30,,,,,,,,,,,680.2064912999049,None,681.2062493999256,None,681.2062493999256,None,681.2062493999256,None,681.2062493999256,None,684.2081209999742,None,684.2081209999742,None,684.2081209999742,None,684.2081209999742,None,None,None,None,None,None,,,,,,,,,,student1,2022-10-25_12h08.53.863,Hippopolis_Updating,2021.1.4,59.96041415424336,
Camponello,stimuli/subj_files/student1_cityB.csv,./stimuli/leipzig.jpg,./stimuli/street_plate2.png,HENTES UTCA,stimuli/scenes/092a.jpg,scene,0,stimuli/scenes/092a.jpg,stimuli/scenes/114b.jpg,stimuli/scenes/114a.jpg,stimuli/scenes/092a.jpg,stimuli/scenes/092b.jpg,dist2,dist1,target,lure,0,1,1,1,0,27,27,46,,,,,,,,,,,686.2231550000142,None,687.2230287999846,None,687.2230287999846,None,687.2230287999846,None,687.2230287999846,None,690.2280758999987,None,690.2280758999987,None,690.2280758999987,None,690.2280758999987,None,None,None,None,None,None,,,,,,,,,,student1,2022-10-25_12h08.53.863,Hippopolis_Updating,2021.1.4,59.96041415424336,
Camponello,stimuli/subj_files/student1_cityB.csv,./stimuli/leipzig.jpg,./stimuli/street_plate2.png,MAJOM UTCA,stimuli/objects/018a.jpg,object,0,stimuli/objects/018a.jpg,stimuli/objects/018a.jpg,stimuli/scenes/092b.jpg,stimuli/objects/018b.jpg,stimuli/scenes/092a.jpg,target,dist2,lure,dist1,0,1,1,1,0,28,28,78,,,,,,,,,,,692.2396289999597,None,693.2398365999106,None,693.2398365999106,None,693.2398365999106,None,693.2398365999106,None,696.2464410999091,None,696.2464410999091,None,696.2464410999091,None,696.2464410999091,None,None,None,None,None,None,,,,,,,,,,student1,2022-10-25_12h08.53.863,Hippopolis_Updating,2021.1.4,59.96041415424336,
Camponello,stimuli/subj_files/student1_cityB.csv,./stimuli/leipzig.jpg,./stimuli/street_plate2.png,LEVÉL UTCA,stimuli/scenes/019a.jpg,scene,0,stimuli/scenes/019a.jpg,stimuli/objects/052a.jpg,stimuli/scenes/019a.jpg,stimuli/scenes/019b.jpg,stimuli/objects/052b.jpg,dist1,target,lure,dist2,0,1,1,1,0,29,29,8,,,,,,,,,,,698.2562752999365,None,699.2564319999656,None,699.2564319999656,None,699.2564319999656,None,699.2564319999656,None,702.2601003999589,None,702.2601003999589,None,702.2601003999589,None,702.2601003999589,None,None,None,None,None,None,,,,,,,,,,student1,2022-10-25_12h08.53.863,Hippopolis_Updating,2021.1.4,59.96041415424336,
Camponello,stimuli/subj_files/student1_cityB.csv,./stimuli/leipzig.jpg,./stimuli/street_plate2.png,SALÁTA UTCA,stimuli/objects/008a.jpg,object,0,stimuli/objects/008a.jpg,stimuli/scenes/099b.jpg,stimuli/objects/008b.jpg,stimuli/objects/008a.jpg,stimuli/scenes/099a.jpg,dist2,lure,target,dist1,0,1,1,1,0,30,30,73,,,,,,,,,,,704.2728165999288,None,705.2733753999928,None,705.2733753999928,None,705.2733753999928,None,705.2733753999928,None,708.2831041999161,None,708.2831041999161,None,708.2831041999161,None,708.2831041999161,None,None,None,None,None,None,,,,,,,,,,student1,2022-10-25_12h08.53.863,Hippopolis_Updating,2021.1.4,59.96041415424336,
Camponello,stimuli/subj_files/student1_cityB.csv,./stimuli/leipzig.jpg,./stimuli/street_plate2.png,LABDA UTCA,stimuli/objects/082a.jpg,object,0,stimuli/objects/082a.jpg,stimuli/scenes/049a.jpg,stimuli/scenes/049b.jpg,stimuli/objects/082b.jpg,stimuli/objects/082a.jpg,dist1,dist2,lure,target,0,1,1,1,0,31,31,72,,,,,,,,,,,710.2890338998986,None,711.2891902999254,None,711.2891902999254,None,711.2891902999254,None,711.2891902999254,None,714.3020996999694,None,714.3020996999694,None,714.3020996999694,None,714.3020996999694,None,None,None,None,None,None,,,,,,,,,,student1,2022-10-25_12h08.53.863,Hippopolis_Updating,2021.1.4,59.96041415424336,
Camponello,stimuli/subj_files/student1_cityB.csv,./stimuli/leipzig.jpg,./stimuli/street_plate2.png,TORONY UTCA,stimuli/scenes/094a.jpg,scene,2,stimuli/objects/054a.jpg,stimuli/scenes/001a.jpg,stimuli/scenes/001b.jpg,stimuli/objects/054b.jpg,stimuli/objects/054a.jpg,dist1,dist2,lure,target,0,1,1,1,0,32,32,62,,,,,,,,,,,716.3053820999339,None,717.3062954999041,None,717.3062954999041,None,717.3062954999041,None,717.3062954999041,None,720.322745100013,None,720.322745100013,None,720.322745100013,None,720.322745100013,None,None,None,None,None,None,,,,,,,,,,student1,2022-10-25_12h08.53.863,Hippopolis_Updating,2021.1.4,59.96041415424336,
Camponello,stimuli/subj_files/student1_cityB.csv,./stimuli/leipzig.jpg,./stimuli/street_plate2.png,SZAPPAN UTCA,stimuli/objects/023a.jpg,object,1,stimuli/objects/087a.jpg,stimuli/scenes/012b.jpg,stimuli/objects/087b.jpg,stimuli/objects/087a.jpg,stimuli/scenes/012a.jpg,dist2,lure,target,dist1,0,1,1,1,0,33,33,7,,,,,,,,,,,722.3224787999643,None,723.322917799931,None,723.322917799931,None,723.322917799931,None,723.322917799931,None,726.3400693999138,None,726.3400693999138,None,726.3400693999138,None,726.3400693999138,None,None,None,None,None,None,,,,,,,,,,student1,2022-10-25_12h08.53.863,Hippopolis_Updating,2021.1.4,59.96041415424336,
Camponello,stimuli/subj_files/student1_cityB.csv,./stimuli/leipzig.jpg,./stimuli/street_plate2.png,PÁRNA UTCA,stimuli/objects/112a.jpg,object,0,stimuli/objects/112a.jpg,stimuli/objects/112b.jpg,stimuli/scenes/032b.jpg,stimuli/scenes/032a.jpg,stimuli/objects/112a.jpg,lure,dist2,dist1,target,0,1,1,1,0,34,34,77,,,,,,,,,,,728.3390572000062,None,729.338829999906,None,729.338829999906,None,729.338829999906,None,729.338829999906,None,732.3389016999863,None,732.3389016999863,None,732.3389016999863,None,732.3389016999863,None,None,None,None,None,None,,,,,,,,,,student1,2022-10-25_12h08.53.863,Hippopolis_Updating,2021.1.4,59.96041415424336,
Camponello,stimuli/subj_files/student1_cityB.csv,./stimuli/leipzig.jpg,./stimuli/street_plate2.png,RIBIZLI UTCA,stimuli/objects/088a.jpg,object,0,stimuli/objects/088a.jpg,stimuli/objects/088b.jpg,stimuli/objects/065a.jpg,stimuli/objects/088a.jpg,stimuli/objects/065b.jpg,lure,dist1,target,dist2,0,1,1,1,0,35,35,34,,,,,,,,,,,734.3386580999941,None,735.3387477999786,None,735.3387477999786,None,735.3387477999786,None,735.3387477999786,None,738.352055999916,None,738.352055999916,None,738.352055999916,None,738.352055999916,None,None,None,None,None,None,,,,,,,,,,student1,2022-10-25_12h08.53.863,Hippopolis_Updating,2021.1.4,59.96041415424336,
Camponello,stimuli/subj_files/student1_cityB.csv,./stimuli/leipzig.jpg,./stimuli/street_plate2.png,KOCSI UTCA,stimuli/scenes/114a.jpg,scene,0,stimuli/scenes/114a.jpg,stimuli/objects/082b.jpg,stimuli/scenes/114b.jpg,stimuli/scenes/114a.jpg,stimuli/objects/082a.jpg,dist2,lure,target,dist1,0,1,1,1,0,36,36,69,,,,,,,,,,,740.3549506999552,None,741.3560448999051,None,741.3560448999051,None,741.3560448999051,None,741.3560448999051,None,744.3598950000014,None,744.3598950000014,None,744.3598950000014,None,744.3598950000014,None,None,None,None,None,None,,,,,,,,,,student1,2022-10-25_12h08.53.863,Hippopolis_Updating,2021.1.4,59.96041415424336,
Camponello,stimuli/subj_files/student1_cityB.csv,./stimuli/leipzig.jpg,./stimuli/street_plate2.png,TIGRIS UTCA,stimuli/scenes/021a.jpg,scene,0,stimuli/scenes/021a.jpg,stimuli/scenes/022b.jpg,stimuli/scenes/021a.jpg,stimuli/scenes/021b.jpg,stimuli/scenes/022a.jpg,dist2,target,lure,dist1,0,1,1,1,0,37,37,68,,,,,,,,,,,746.3717449000105,None,747.3727039999794,None,747.3727039999794,None,747.3727039999794,None,747.3727039999794,None,750.3734237999888,None,750.3734237999888,None,750.3734237999888,None,750.3734237999888,None,None,None,None,None,None,,,,,,,,,,student1,2022-10-25_12h08.53.863,Hippopolis_Updating,2021.1.4,59.96041415424336,
Camponello,stimuli/subj_files/student1_cityB.csv,./stimuli/leipzig.jpg,./stimuli/street_plate2.png,SZALVÉTA UTCA,stimuli/objects/072a.jpg,object,0,stimuli/objects/072a.jpg,stimuli/scenes/045b.jpg,stimuli/scenes/045a.jpg,stimuli/objects/072b.jpg,stimuli/objects/072a.jpg,dist2,dist1,lure,target,0,1,1,1,0,38,38,54,,,,,,,,,,,752.371392800007,None,753.3719756999053,None,753.3719756999053,None,753.3719756999053,None,753.3719756999053,None,756.3862663999898,None,756.3862663999898,None,756.3862663999898,None,756.3862663999898,None,None,None,None,None,None,,,,,,,,,,student1,2022-10-25_12h08.53.863,Hippopolis_Updating,2021.1.4,59.96041415424336,
Camponello,stimuli/subj_files/student1_cityB.csv,./stimuli/leipzig.jpg,./stimuli/street_plate2.png,TÁNYÉR UTCA,stimuli/objects/118a.jpg,object,0,stimuli/objects/118a.jpg,stimuli/objects/102b.jpg,stimuli/objects/102a.jpg,stimuli/objects/118b.jpg,stimuli/objects/118a.jpg,dist2,dist1,lure,target,0,1,1,1,0,39,39,28,,,,,,,,,,,758.3887247999664,None,759.388412799919,None,759.388412799919,None,759.388412799919,None,759.388412799919,None,762.394847999909,None,762.394847999909,None,762.394847999909,None,762.394847999909,None,None,None,None,None,None,,,,,,,,,,student1,2022-10-25_12h08.53.863,Hippopolis_Updating,2021.1.4,59.96041415424336,
Camponello,stimuli/subj_files/student1_cityB.csv,./stimuli/leipzig.jpg,./stimuli/street_plate2.png,SZŐLŐ UTCA,stimuli/scenes/099a.jpg,scene,0,stimuli/scenes/099a.jpg,stimuli/objects/105a.jpg,stimuli/scenes/099a.jpg,stimuli/scenes/099b.jpg,stimuli/objects/105b.jpg,dist1,target,lure,dist2,0,1,1,1,0,40,40,55,,,,,,,,,,,764.4047154999571,None,765.4052164999302,None,765.4052164999302,None,765.4052164999302,None,765.4052164999302,None,768.40964540001,None,768.40964540001,None,768.40964540001,None,768.40964540001,None,None,None,None,None,None,,,,,,,,,,student1,2022-10-25_12h08.53.863,Hippopolis_Updating,2021.1.4,59.96041415424336,
Camponello,stimuli/subj_files/student1_cityB.csv,./stimuli/leipzig.jpg,./stimuli/street_plate2.png,MANDARIN UTCA,stimuli/scenes/075a.jpg,scene,0,stimuli/scenes/075a.jpg,stimuli/objects/072a.jpg,stimuli/objects/072b.jpg,stimuli/scenes/075b.jpg,stimuli/scenes/075a.jpg,dist1,dist2,lure,target,0,1,1,1,0,41,41,37,,,,,,,,,,,770.4218467999017,None,771.4227000999963,None,771.4227000999963,None,771.4227000999963,None,771.4227000999963,None,774.4414178999141,None,774.4414178999141,None,774.4414178999141,None,774.4414178999141,None,None,None,None,None,None,,,,,,,,,,student1,2022-10-25_12h08.53.863,Hippopolis_Updating,2021.1.4,59.96041415424336,
Camponello,stimuli/subj_files/student1_cityB.csv,./stimuli/leipzig.jpg,./stimuli/street_plate2.png,FÜZET UTCA,stimuli/scenes/047a.jpg,scene,1,stimuli/scenes/012a.jpg,stimuli/scenes/012b.jpg,stimuli/objects/010b.jpg,stimuli/scenes/012a.jpg,stimuli/objects/010a.jpg,lure,dist2,target,dist1,0,1,1,1,0,42,42,56,,,,,,,,,,,776.4382487999974,None,777.4385010999395,None,777.4385010999395,None,777.4385010999395,None,777.4385010999395,None,780.446651599952,None,780.446651599952,None,780.446651599952,None,780.446651599952,None,None,None,None,None,None,,,,,,,,,,student1,2022-10-25_12h08.53.863,Hippopolis_Updating,2021.1.4,59.96041415424336,
Camponello,stimuli/subj_files/student1_cityB.csv,./stimuli/leipzig.jpg,./stimuli/street_plate2.png,KESZTYŰ UTCA,stimuli/scenes/040a.jpg,scene,1,stimuli/scenes/105a.jpg,stimuli/objects/096b.jpg,stimuli/scenes/105a.jpg,stimuli/scenes/105b.jpg,stimuli/objects/096a.jpg,dist2,target,lure,dist1,0,1,1,1,0,43,43,16,,,,,,,,,,,782.4548173999647,None,783.4546902999282,None,783.4546902999282,None,783.4546902999282,None,783.4546902999282,None,786.4658622000134,None,786.4658622000134,None,786.4658622000134,None,786.4658622000134,None,None,None,None,None,None,,,,,,,,,,student1,2022-10-25_12h08.53.863,Hippopolis_Updating,2021.1.4,59.96041415424336,
Camponello,stimuli/subj_files/student1_cityB.csv,./stimuli/leipzig.jpg,./stimuli/street_plate2.png,BETON UTCA,stimuli/objects/104a.jpg,object,2,stimuli/scenes/063a.jpg,stimuli/scenes/063b.jpg,stimuli/scenes/063a.jpg,stimuli/objects/054a.jpg,stimuli/objects/054b.jpg,lure,target,dist1,dist2,0,1,1,1,0,44,44,52,,,,,,,,,,,788.470811599982,None,789.4728244999424,None,789.4728244999424,None,789.4728244999424,None,789.4728244999424,None,792.4938972999807,None,792.4938972999807,None,792.4938972999807,None,792.4938972999807,None,794.4883947999915,None,space,794.4883947999915,None,6.48629000002984,,,,,,,,,student1,2022-10-25_12h08.53.863,Hippopolis_Updating,2021.1.4,59.96041415424336,
Camponello,stimuli/subj_files/student1_cityB.csv,./stimuli/leipzig.jpg,./stimuli/street_plate2.png,TERÍTŐ UTCA,stimuli/objects/098a.jpg,object,1,stimuli/objects/096a.jpg,stimuli/objects/096b.jpg,stimuli/objects/096a.jpg,stimuli/objects/013b.jpg,stimuli/objects/013a.jpg,lure,target,dist2,dist1,0,1,1,1,0,45,45,39,,,,,,,,,,,801.0045115000103,None,802.0087173999054,None,802.0087173999054,None,802.0087173999054,None,802.0087173999054,None,805.043668899918,None,805.043668899918,None,805.043668899918,None,805.043668899918,None,None,None,None,None,None,,,,,,,,,,student1,2022-10-25_12h08.53.863,Hippopolis_Updating,2021.1.4,59.96041415424336,
Camponello,stimuli/subj_files/student1_cityB.csv,./stimuli/leipzig.jpg,./stimuli/street_plate2.png,SZOBOR UTCA,stimuli/objects/031a.jpg,object,1,stimuli/objects/010a.jpg,stimuli/objects/010a.jpg,stimuli/objects/044b.jpg,stimuli/objects/044a.jpg,stimuli/objects/010b.jpg,target,dist2,dist1,lure,0,1,1,1,0,46,46,79,,,,,,,,,,,807.0207658999134,None,808.0214930999791,None,808.0214930999791,None,808.0214930999791,None,808.0214930999791,None,811.0326649999479,None,811.0326649999479,None,811.0326649999479,None,811.0326649999479,None,None,None,None,None,None,,,,,,,,,,student1,2022-10-25_12h08.53.863,Hippopolis_Updating,2021.1.4,59.96041415424336,
Camponello,stimuli/subj_files/student1_cityB.csv,./stimuli/leipzig.jpg,./stimuli/street_plate2.png,TÉRKÉP UTCA,stimuli/scenes/013a.jpg,scene,0,stimuli/scenes/013a.jpg,stimuli/scenes/006b.jpg,stimuli/scenes/006a.jpg,stimuli/scenes/013a.jpg,stimuli/scenes/013b.jpg,dist2,dist1,target,lure,0,1,1,1,0,47,47,63,,,,,,,,,,,813.0379128999775,None,814.0377557999454,None,814.0377557999454,None,814.0377557999454,None,814.0377557999454,None,817.0412119999528,None,817.0412119999528,None,817.0412119999528,None,817.0412119999528,None,None,None,None,None,None,,,,,,,,,,student1,2022-10-25_12h08.53.863,Hippopolis_Updating,2021.1.4,59.96041415424336,
Camponello,stimuli/subj_files/student1_cityB.csv,./stimuli/leipzig.jpg,./stimuli/street_plate2.png,FEJSZE UTCA,stimuli/objects/065a.jpg,object,0,stimuli/objects/065a.jpg,stimuli/scenes/075b.jpg,stimuli/objects/065b.jpg,stimuli/objects/065a.jpg,stimuli/scenes/075a.jpg,dist2,lure,target,dist1,0,1,1,1,0,48,48,9,,,,,,,,,,,819.0536388999317,None,820.0541381000075,None,820.0541381000075,None,820.0541381000075,None,820.0541381000075,None,823.0569688999094,None,823.0569688999094,None,823.0569688999094,None,823.0569688999094,None,None,None,None,None,None,,,,,,,,,,student1,2022-10-25_12h08.53.863,Hippopolis_Updating,2021.1.4,59.96041415424336,
Camponello,stimuli/subj_files/student1_cityB.csv,./stimuli/leipzig.jpg,./stimuli/street_plate2.png,REPÜLŐ UTCA,stimuli/scenes/098a.jpg,scene,0,stimuli/scenes/098a.jpg,stimuli/scenes/013a.jpg,stimuli/scenes/013b.jpg,stimuli/scenes/098a.jpg,stimuli/scenes/098b.jpg,dist1,dist2,target,lure,0,1,1,1,0,49,49,66,,,,,,,,,,,825.0709468999412,None,826.0729943999322,None,826.0729943999322,None,826.0729943999322,None,826.0729943999322,None,829.0970267999219,None,829.0970267999219,None,829.0970267999219,None,829.0970267999219,None,None,None,None,None,None,,,,,,,,,,student1,2022-10-25_12h08.53.863,Hippopolis_Updating,2021.1.4,59.96041415424336,
Camponello,stimuli/subj_files/student1_cityB.csv,./stimuli/leipzig.jpg,./stimuli/street_plate2.png,SÜTEMÉNY UTCA,stimuli/objects/074a.jpg,object,2,stimuli/scenes/102a.jpg,stimuli/objects/061b.jpg,stimuli/objects/061a.jpg,stimuli/scenes/102a.jpg,stimuli/scenes/102b.jpg,dist2,dist1,target,lure,0,1,1,1,0,50,50,32,,,,,,,,,,,831.0873584999936,None,832.0891568999505,None,832.0891568999505,None,832.0891568999505,None,832.0891568999505,None,835.1121647999389,None,835.1121647999389,None,835.1121647999389,None,835.1121647999389,None,None,None,None,None,None,,,,,,,,,,student1,2022-10-25_12h08.53.863,Hippopolis_Updating,2021.1.4,59.96041415424336,
Camponello,stimuli/subj_files/student1_cityB.csv,./stimuli/leipzig.jpg,./stimuli/street_plate2.png,ZEBRA UTCA,stimuli/scenes/106a.jpg,scene,0,stimuli/scenes/106a.jpg,stimuli/scenes/030a.jpg,stimuli/scenes/106a.jpg,stimuli/scenes/106b.jpg,stimuli/scenes/030b.jpg,dist1,target,lure,dist2,0,1,1,1,0,51,51,12,,,,,,,,,,,837.1038064999739,None,838.1036717999959,None,838.1036717999959,None,838.1036717999959,None,838.1036717999959,None,841.1067758999998,None,841.1067758999998,None,841.1067758999998,None,841.1067758999998,None,None,None,None,None,None,,,,,,,,,,student1,2022-10-25_12h08.53.863,Hippopolis_Updating,2021.1.4,59.96041415424336,
Camponello,stimuli/subj_files/student1_cityB.csv,./stimuli/leipzig.jpg,./stimuli/street_plate2.png,ECSET UTCA,stimuli/scenes/003a.jpg,scene,2,stimuli/objects/005a.jpg,stimuli/objects/035b.jpg,stimuli/objects/005b.jpg,stimuli/objects/035a.jpg,stimuli/objects/005a.jpg,dist2,lure,dist1,target,0,1,1,1,0,52,52,11,,,,,,,,,,,843.1206806999398,None,844.1204450000077,None,844.1204450000077,None,844.1204450000077,None,844.1204450000077,None,847.1372441999847,None,847.1372441999847,None,847.1372441999847,None,847.1372441999847,None,None,None,None,None,None,,,,,,,,,,student1,2022-10-25_12h08.53.863,Hippopolis_Updating,2021.1.4,59.96041415424336,
Camponello,stimuli/subj_files/student1_cityB.csv,./stimuli/leipzig.jpg,./stimuli/street_plate2.png,SZAXOFON UTCA,stimuli/objects/117a.jpg,object,0,stimuli/objects/117a.jpg,stimuli/scenes/021a.jpg,stimuli/objects/117a.jpg,stimuli/objects/117b.jpg,stimuli/scenes/021b.jpg,dist1,target,lure,dist2,0,1,1,1,0,53,53,20,,,,,,,,,,,849.1364348999923,None,850.1437253999757,None,850.1437253999757,None,850.1437253999757,None,850.1437253999757,None,853.1587192999432,None,853.1587192999432,None,853.1587192999432,None,853.1587192999432,None,None,None,None,None,None,,,,,,,,,,student1,2022-10-25_12h08.53.863,Hippopolis_Updating,2021.1.4,59.96041415424336,
Camponello,stimuli/subj_files/student1_cityB.csv,./stimuli/leipzig.jpg,./stimuli/street_plate2.png,MOSODA UTCA,stimuli/objects/052a.jpg,object,0,stimuli/objects/052a.jpg,stimuli/objects/052b.jpg,stimuli/scenes/035a.jpg,stimuli/objects/052a.jpg,stimuli/scenes/035b.jpg,lure,dist1,target,dist2,0,1,1,1,0,54,54,51,,,,,,,,,,,855.1530325999483,None,856.1535378999542,None,856.1535378999542,None,856.1535378999542,None,856.1535378999542,None,859.162744399975,None,859.162744399975,None,859.162744399975,None,859.162744399975,None,None,None,None,None,None,,,,,,,,,,student1,2022-10-25_12h08.53.863,Hippopolis_Updating,2021.1.4,59.96041415424336,
Camponello,stimuli/subj_files/student1_cityB.csv,./stimuli/leipzig.jpg,./stimuli/street_plate2.png,SZŐNYEG UTCA,stimuli/objects/040a.jpg,object,0,stimuli/objects/040a.jpg,stimuli/objects/040a.jpg,stimuli/objects/040b.jpg,stimuli/objects/019b.jpg,stimuli/objects/019a.jpg,target,lure,dist2,dist1,0,1,1,1,0,55,55,29,,,,,,,,,,,861.170144499978,None,862.1699030000018,None,862.1699030000018,None,862.1699030000018,None,862.1699030000018,None,865.1705948999152,None,865.1705948999152,None,865.1705948999152,None,865.1705948999152,None,None,None,None,None,None,,,,,,,,,,student1,2022-10-25_12h08.53.863,Hippopolis_Updating,2021.1.4,59.96041415424336,
Camponello,stimuli/subj_files/student1_cityB.csv,./stimuli/leipzig.jpg,./stimuli/street_plate2.png,TELEFON UTCA,stimuli/scenes/017a.jpg,scene,0,stimuli/scenes/017a.jpg,stimuli/objects/094b.jpg,stimuli/scenes/017b.jpg,stimuli/scenes/017a.jpg,stimuli/objects/094a.jpg,dist2,lure,target,dist1,0,1,1,1,0,56,56,27,,,,,,,,,,,867.1698628999293,None,868.1698809999507,None,868.1698809999507,None,868.1698809999507,None,868.1698809999507,None,871.1730936999666,None,871.1730936999666,None,871.1730936999666,None,871.1730936999666,None,None,None,None,None,None,,,,,,,,,,student1,2022-10-25_12h08.53.863,Hippopolis_Updating,2021.1.4,59.96041415424336,
Camponello,stimuli/subj_files/student1_cityB.csv,./stimuli/leipzig.jpg,./stimuli/street_plate2.png,HORGONY UTCA,stimuli/objects/039a.jpg,object,0,stimuli/objects/039a.jpg,stimuli/objects/039b.jpg,stimuli/objects/039a.jpg,stimuli/objects/092b.jpg,stimuli/objects/092a.jpg,lure,target,dist2,dist1,0,1,1,1,0,57,57,26,,,,,,,,,,,873.1862378999358,None,874.1868240999756,None,874.1868240999756,None,874.1868240999756,None,874.1868240999756,None,877.1994390999898,None,877.1994390999898,None,877.1994390999898,None,877.1994390999898,None,None,None,None,None,None,,,,,,,,,,student1,2022-10-25_12h08.53.863,Hippopolis_Updating,2021.1.4,59.96041415424336,
Camponello,stimuli/subj_files/student1_cityB.csv,./stimuli/leipzig.jpg,./stimuli/street_plate2.png,FÜGE UTCA,stimuli/scenes/115a.jpg,scene,0,stimuli/scenes/115a.jpg,stimuli/scenes/115b.jpg,stimuli/scenes/115a.jpg,stimuli/objects/084b.jpg,stimuli/objects/084a.jpg,lure,target,dist2,dist1,0,1,1,1,0,58,58,47,,,,,,,,,,,879.2029321999289,None,880.2031544999918,None,880.2031544999918,None,880.2031544999918,None,880.2031544999918,None,883.2072074000025,None,883.2072074000025,None,883.2072074000025,None,883.2072074000025,None,None,None,None,None,None,,,,,,,,,,student1,2022-10-25_12h08.53.863,Hippopolis_Updating,2021.1.4,59.96041415424336,
Camponello,stimuli/subj_files/student1_cityB.csv,./stimuli/leipzig.jpg,./stimuli/street_plate2.png,FOLYÓ UTCA,stimuli/scenes/035a.jpg,scene,0,stimuli/scenes/035a.jpg,stimuli/objects/034a.jpg,stimuli/scenes/035a.jpg,stimuli/objects/034b.jpg,stimuli/scenes/035b.jpg,dist1,target,dist2,lure,0,1,1,1,0,59,59,61,,,,,,,,,,,885.2192206999753,None,886.2200032999972,None,886.2200032999972,None,886.2200032999972,None,886.2200032999972,None,889.2290199999698,None,889.2290199999698,None,889.2290199999698,None,889.2290199999698,None,None,None,None,None,None,,,,,,,,,,student1,2022-10-25_12h08.53.863,Hippopolis_Updating,2021.1.4,59.96041415424336,
Camponello,stimuli/subj_files/student1_cityB.csv,./stimuli/leipzig.jpg,./stimuli/street_plate2.png,KÍGYÓ UTCA,stimuli/scenes/032a.jpg,scene,0,stimuli/scenes/032a.jpg,stimuli/scenes/032a.jpg,stimuli/objects/088a.jpg,stimuli/scenes/032b.jpg,stimuli/objects/088b.jpg,target,dist1,lure,dist2,0,1,1,1,0,60,60,76,,,,,,,,,,,891.2360760999145,None,892.2364347999683,None,892.2364347999683,None,892.2364347999683,None,892.2364347999683,None,895.2399778999388,None,895.2399778999388,None,895.2399778999388,None,895.2399778999388,None,None,None,None,None,None,,,,,,,,,,student1,2022-10-25_12h08.53.863,Hippopolis_Updating,2021.1.4,59.96041415424336,
Camponello,stimuli/subj_files/student1_cityB.csv,./stimuli/leipzig.jpg,./stimuli/street_plate2.png,KOSÁR UTCA,stimuli/objects/057a.jpg,object,2,stimuli/scenes/001a.jpg,stimuli/scenes/001a.jpg,stimuli/scenes/001b.jpg,stimuli/objects/005b.jpg,stimuli/objects/005a.jpg,target,lure,dist2,dist1,0,1,1,1,0,61,61,38,,,,,,,,,,,897.2529727999354,None,898.2532445999095,None,898.2532445999095,None,898.2532445999095,None,898.2532445999095,None,901.2666569999419,None,901.2666569999419,None,901.2666569999419,None,901.2666569999419,None,None,None,None,None,None,,,,,,,,,,student1,2022-10-25_12h08.53.863,Hippopolis_Updating,2021.1.4,59.96041415424336,
Camponello,stimuli/subj_files/student1_cityB.csv,./stimuli/leipzig.jpg,./stimuli/street_plate2.png,KUTYA UTCA,stimuli/scenes/030a.jpg,scene,0,stimuli/scenes/030a.jpg,stimuli/scenes/030b.jpg,stimuli/scenes/052b.jpg,stimuli/scenes/052a.jpg,stimuli/scenes/030a.jpg,lure,dist2,dist1,target,0,1,1,1,0,62,62,35,,,,,,,,,,,903.2690788999898,None,904.2727770999772,None,904.2727770999772,None,904.2727770999772,None,904.2727770999772,None,907.2961720000021,None,907.2961720000021,None,907.2961720000021,None,907.2961720000021,None,None,None,None,None,None,,,,,,,,,,student1,2022-10-25_12h08.53.863,Hippopolis_Updating,2021.1.4,59.96041415424336,
Camponello,stimuli/subj_files/student1_cityB.csv,./stimuli/leipzig.jpg,./stimuli/street_plate2.png,VITORLA UTCA,stimuli/scenes/110a.jpg,scene,1,stimuli/scenes/062a.jpg,stimuli/scenes/107a.jpg,stimuli/scenes/107b.jpg,stimuli/scenes/062b.jpg,stimuli/scenes/062a.jpg,dist1,dist2,lure,target,0,1,1,1,0,63,63,45,,,,,,,,,,,909.2855961999157,None,910.2879972999217,None,910.2879972999217,None,910.2879972999217,None,910.2879972999217,None,913.3187905999366,None,913.3187905999366,None,913.3187905999366,None,913.3187905999366,None,None,None,None,None,None,,,,,,,,,,student1,2022-10-25_12h08.53.863,Hippopolis_Updating,2021.1.4,59.96041415424336,
Camponello,stimuli/subj_files/student1_cityB.csv,./stimuli/leipzig.jpg,./stimuli/street_plate2.png,TISZTÁS UTCA,stimuli/objects/116a.jpg,object,0,stimuli/objects/116a.jpg,stimuli/objects/058a.jpg,stimuli/objects/116a.jpg,stimuli/objects/116b.jpg,stimuli/objects/058b.jpg,dist1,target,lure,dist2,0,1,1,1,0,64,64,18,,,,,,,,,,,915.3028390000109,None,916.302525499952,None,916.302525499952,None,916.302525499952,None,916.302525499952,None,919.3121156999841,None,919.3121156999841,None,919.3121156999841,None,919.3121156999841,None,None,None,None,None,None,,,,,,,,,,student1,2022-10-25_12h08.53.863,Hippopolis_Updating,2021.1.4,59.96041415424336,
Camponello,stimuli/subj_files/student1_cityB.csv,./stimuli/leipzig.jpg,./stimuli/street_plate2.png,KAKAÓ UTCA,stimuli/objects/099a.jpg,object,1,stimuli/objects/119a.jpg,stimuli/scenes/086a.jpg,stimuli/objects/119a.jpg,stimuli/scenes/086b.jpg,stimuli/objects/119b.jpg,dist1,target,dist2,lure,0,1,1,1,0,65,65,0,,,,,,,,,,,921.3192887000041,None,922.3194720000029,None,922.3194720000029,None,922.3194720000029,None,922.3194720000029,None,925.3385101999156,None,925.3385101999156,None,925.3385101999156,None,925.3385101999156,None,None,None,None,None,None,,,,,,,,,,student1,2022-10-25_12h08.53.863,Hippopolis_Updating,2021.1.4,59.96041415424336,
Camponello,stimuli/subj_files/student1_cityB.csv,./stimuli/leipzig.jpg,./stimuli/street_plate2.png,FÉSZEK UTCA,stimuli/objects/042a.jpg,object,1,stimuli/objects/044a.jpg,stimuli/scenes/020b.jpg,stimuli/objects/044a.jpg,stimuli/scenes/020a.jpg,stimuli/objects/044b.jpg,dist2,target,dist1,lure,0,1,1,1,0,66,66,10,,,,,,,,,,,927.3354672999121,None,928.3362056999467,None,928.3362056999467,None,928.3362056999467,None,928.3362056999467,None,931.3469118999783,None,931.3469118999783,None,931.3469118999783,None,931.3469118999783,None,None,None,None,None,None,,,,,,,,,,student1,2022-10-25_12h08.53.863,Hippopolis_Updating,2021.1.4,59.96041415424336,
Camponello,stimuli/subj_files/student1_cityB.csv,./stimuli/leipzig.jpg,./stimuli/street_plate2.png,ASZTAL UTCA,stimuli/scenes/120a.jpg,scene,2,stimuli/objects/035a.jpg,stimuli/scenes/079b.jpg,stimuli/scenes/079a.jpg,stimuli/objects/035b.jpg,stimuli/objects/035a.jpg,dist2,dist1,lure,target,0,1,1,1,0,67,67,24,,,,,,,,,,,933.3516942999559,None,934.3519304000074,None,934.3519304000074,None,934.3519304000074,None,934.3519304000074,None,937.3610244999873,None,937.3610244999873,None,937.3610244999873,None,937.3610244999873,None,None,None,None,None,None,,,,,,,,,,student1,2022-10-25_12h08.53.863,Hippopolis_Updating,2021.1.4,59.96041415424336,
Camponello,stimuli/subj_files/student1_cityB.csv,./stimuli/leipzig.jpg,./stimuli/street_plate2.png,ÁLLOMÁS UTCA,stimuli/scenes/069a.jpg,scene,0,stimuli/scenes/069a.jpg,stimuli/scenes/106a.jpg,stimuli/scenes/106b.jpg,stimuli/scenes/069b.jpg,stimuli/scenes/069a.jpg,dist1,dist2,lure,target,0,1,1,1,0,68,68,42,,,,,,,,,,,939.3689148999983,None,940.368829999934,None,940.368829999934,None,940.368829999934,None,940.368829999934,None,943.3719077999704,None,943.3719077999704,None,943.3719077999704,None,943.3719077999704,None,None,None,None,None,None,,,,,,,,,,student1,2022-10-25_12h08.53.863,Hippopolis_Updating,2021.1.4,59.96041415424336,
Camponello,stimuli/subj_files/student1_cityB.csv,./stimuli/leipzig.jpg,./stimuli/street_plate2.png,KANÁL UTCA,stimuli/scenes/057a.jpg,scene,1,stimuli/scenes/020a.jpg,stimuli/scenes/020b.jpg,stimuli/scenes/020a.jpg,stimuli/scenes/062a.jpg,stimuli/scenes/062b.jpg,lure,target,dist1,dist2,0,1,1,1,0,69,69,14,,,,,,,,,,,945.385115699959,None,946.3852268999908,None,946.3852268999908,None,946.3852268999908,None,946.3852268999908,None,949.3948197999271,None,949.3948197999271,None,949.3948197999271,None,949.3948197999271,None,None,None,None,None,None,,,,,,,,,,student1,2022-10-25_12h08.53.863,Hippopolis_Updating,2021.1.4,59.96041415424336,
Camponello,stimuli/subj_files/student1_cityB.csv,./stimuli/leipzig.jpg,./stimuli/street_plate2.png,PALACK UTCA,stimuli/scenes/033a.jpg,scene,1,stimuli/scenes/107a.jpg,stimuli/objects/119b.jpg,stimuli/scenes/107b.jpg,stimuli/objects/119a.jpg,stimuli/scenes/107a.jpg,dist2,lure,dist1,target,0,1,1,1,0,70,70,44,,,,,,,,,,,951.4015691999812,None,952.4021168999607,None,952.4021168999607,None,952.4021168999607,None,952.4021168999607,None,955.4187953999499,None,955.4187953999499,None,955.4187953999499,None,955.4187953999499,None,None,None,None,None,None,,,,,,,,,,student1,2022-10-25_12h08.53.863,Hippopolis_Updating,2021.1.4,59.96041415424336,
Camponello,stimuli/subj_files/student1_cityB.csv,./stimuli/leipzig.jpg,./stimuli/street_plate2.png,SUGÁR UTCA,stimuli/objects/094a.jpg,object,0,stimuli/objects/094a.jpg,stimuli/objects/094b.jpg,stimuli/objects/064b.jpg,stimuli/objects/064a.jpg,stimuli/objects/094a.jpg,lure,dist2,dist1,target,0,1,1,1,0,71,71,40,,,,,,,,,,,957.4181021999102,None,958.4188628999982,None,958.4188628999982,None,958.4188628999982,None,958.4188628999982,None,961.427314999979,None,961.427314999979,None,961.427314999979,None,961.427314999979,None,None,None,None,None,None,,,,,,,,,,student1,2022-10-25_12h08.53.863,Hippopolis_Updating,2021.1.4,59.96041415424336,
