CityName,StimuliFile,CityImage,StreetSign,Cue,Image,Category,Novelty,UpdateImage,TestImage1,TestImage2,TestImage3,TestImage4,TestImage1Type,TestImage2Type,TestImage3Type,TestImage4Type,CityBlock.thisRepN,CityBlock.thisTrialN,CityBlock.thisN,CityBlock.thisIndex,LearningTrials.thisRepN,LearningTrials.thisTrialN,LearningTrials.thisN,LearningTrials.thisIndex,trials.thisRepN,trials.thisTrialN,trials.thisN,trials.thisIndex,learning_instructions_text.started,intro_key.started,intro_key.keys,intro_key.rt,cityname_text.started,city_image.started,fx_cross.started,plate.started,city_text.started,street_text.started,learning_image.started,short_break_key.keys,fx_cross.stopped,short_break_text.started,short_break_key.started,short_break_key.rt,test_text.started,key_resp.started,key_resp.keys,key_resp.rt,plate_test.started,city_text_test.started,street_text_test.started,test_question.started,test_key_resp.started,button_image.started,test_key_resp.keys,verbal_test_key_resp.keys,test_key_resp.rt,plate_verbal.started,street_text_verbal.started,city_text_verbal.started,question_verbal.started,verbal_test_key_resp.started,verbal_test_key_resp.rt,n_remembered,break_text.started,break_key_resp.started,break_key_resp.keys,break_key_resp.rt,end_text.started,end_text.stopped,participant,date,expName,psychopyVersion,frameRate,
,,,,,,,,,,,,,,,,,,,,,,,,,,,,,16.18135964497924,16.18135964497924,space,13.53199372626841,,,,,,,,,,,,,,,,,,,,,,,,,,,,,,,,,,,,,,,student1,2022-10-25_15h08.33.610,Hippopolis_Learning,2022.2.2,59.00494036260012,
Hippopolis,stimuli/subj_files/student1_cityA.csv,./stimuli/frankfurt.jpg,./stimuli/street_plate1.png,CSAVAR UTCA,stimuli/objects/078a.jpg,object,0,stimuli/objects/078a.jpg,stimuli/objects/078b.jpg,stimuli/objects/024b.jpg,stimuli/objects/078a.jpg,stimuli/objects/024a.jpg,lure,dist2,target,dist1,0,0,0,0,0,0,0,10,,,,,,,,,29.78491077758372,29.78491077758372,32.760488068684936,33.78818163275719,33.78818163275719,33.78818163275719,33.78818163275719,None,,,,,,,,,,,,,,,,,,,,,,,,,,,,,,,student1,2022-10-25_15h08.33.610,Hippopolis_Learning,2022.2.2,59.00494036260012,
Hippopolis,stimuli/subj_files/student1_cityA.csv,./stimuli/frankfurt.jpg,./stimuli/street_plate1.png,VÖDÖR UTCA,stimuli/scenes/055a.jpg,scene,1,stimuli/scenes/088a.jpg,stimuli/scenes/088b.jpg,stimuli/scenes/088a.jpg,stimuli/scenes/087b.jpg,stimuli/scenes/087a.jpg,lure,target,dist2,dist1,0,0,0,0,0,1,1,56,,,,,,,,,,,36.736848160624504,37.78051470220089,37.78051470220089,37.78051470220089,37.78051470220089,None,,,,,,,,,,,,,,,,,,,,,,,,,,,,,,,student1,2022-10-25_15h08.33.610,Hippopolis_Learning,2022.2.2,59.00494036260012,
Hippopolis,stimuli/subj_files/student1_cityA.csv,./stimuli/frankfurt.jpg,./stimuli/street_plate1.png,LIGET UTCA,stimuli/objects/038a.jpg,object,2,stimuli/scenes/109a.jpg,stimuli/scenes/109a.jpg,stimuli/objects/055a.jpg,stimuli/scenes/109b.jpg,stimuli/objects/055b.jpg,target,dist1,lure,dist2,0,0,0,0,0,2,2,62,,,,,,,,,,,40.74403738602996,41.797585221007466,41.797585221007466,41.797585221007466,41.797585221007466,None,,,,,,,,,,,,,,,,,,,,,,,,,,,,,,,student1,2022-10-25_15h08.33.610,Hippopolis_Learning,2022.2.2,59.00494036260012,
Hippopolis,stimuli/subj_files/student1_cityA.csv,./stimuli/frankfurt.jpg,./stimuli/street_plate1.png,BONBON UTCA,stimuli/objects/095a.jpg,object,2,stimuli/scenes/007a.jpg,stimuli/objects/028b.jpg,stimuli/objects/028a.jpg,stimuli/scenes/007a.jpg,stimuli/scenes/007b.jpg,dist2,dist1,target,lure,0,0,0,0,0,3,3,72,,,,,,,,,,,44.75548708625138,45.810085190460086,45.810085190460086,45.810085190460086,45.810085190460086,None,,,,,,,,,,,,,,,,,,,,,,,,,,,,,,,student1,2022-10-25_15h08.33.610,Hippopolis_Learning,2022.2.2,59.00494036260012,
Hippopolis,stimuli/subj_files/student1_cityA.csv,./stimuli/frankfurt.jpg,./stimuli/street_plate1.png,HARMONIKA UTCA,stimuli/scenes/024a.jpg,scene,0,stimuli/scenes/024a.jpg,stimuli/scenes/101b.jpg,stimuli/scenes/024b.jpg,stimuli/scenes/101a.jpg,stimuli/scenes/024a.jpg,dist2,lure,dist1,target,0,0,0,0,0,4,4,25,,,,,,,,,,,48.767996383830905,49.80561167374253,49.80561167374253,49.80561167374253,49.80561167374253,None,,,,,,,,,,,,,,,,,,,,,,,,,,,,,,,student1,2022-10-25_15h08.33.610,Hippopolis_Learning,2022.2.2,59.00494036260012,
Hippopolis,stimuli/subj_files/student1_cityA.csv,./stimuli/frankfurt.jpg,./stimuli/street_plate1.png,LAKAT UTCA,stimuli/objects/066a.jpg,object,2,stimuli/scenes/084a.jpg,stimuli/scenes/084b.jpg,stimuli/scenes/034a.jpg,stimuli/scenes/084a.jpg,stimuli/scenes/034b.jpg,lure,dist1,target,dist2,0,0,0,0,0,5,5,58,,,,,,,,,,,52.772139612585306,53.835830610245466,53.835830610245466,53.835830610245466,53.835830610245466,None,,,,,,,,,,,,,,,,,,,,,,,,,,,,,,,student1,2022-10-25_15h08.33.610,Hippopolis_Learning,2022.2.2,59.00494036260012,
Hippopolis,stimuli/subj_files/student1_cityA.csv,./stimuli/frankfurt.jpg,./stimuli/street_plate1.png,CSILLAG UTCA,stimuli/scenes/083a.jpg,scene,1,stimuli/scenes/117a.jpg,stimuli/scenes/117a.jpg,stimuli/scenes/117b.jpg,stimuli/objects/041a.jpg,stimuli/objects/041b.jpg,target,lure,dist1,dist2,0,0,0,0,0,6,6,15,,,,,,,,,,,56.78389005549252,57.82661393657327,57.82661393657327,57.82661393657327,57.82661393657327,None,,,,,,,,,,,,,,,,,,,,,,,,,,,,,,,student1,2022-10-25_15h08.33.610,Hippopolis_Learning,2022.2.2,59.00494036260012,
Hippopolis,stimuli/subj_files/student1_cityA.csv,./stimuli/frankfurt.jpg,./stimuli/street_plate1.png,SZIKLA UTCA,stimuli/scenes/111a.jpg,scene,2,stimuli/objects/073a.jpg,stimuli/objects/120b.jpg,stimuli/objects/120a.jpg,stimuli/objects/073a.jpg,stimuli/objects/073b.jpg,dist2,dist1,target,lure,0,0,0,0,0,7,7,1,,,,,,,,,,,60.785669945180416,61.826041685417295,61.826041685417295,61.826041685417295,61.826041685417295,None,,,,,,,,,,,,,,,,,,,,,,,,,,,,,,,student1,2022-10-25_15h08.33.610,Hippopolis_Learning,2022.2.2,59.00494036260012,
Hippopolis,stimuli/subj_files/student1_cityA.csv,./stimuli/frankfurt.jpg,./stimuli/street_plate1.png,PAPUCS UTCA,stimuli/scenes/051a.jpg,scene,0,stimuli/scenes/051a.jpg,stimuli/scenes/051b.jpg,stimuli/scenes/051a.jpg,stimuli/scenes/090a.jpg,stimuli/scenes/090b.jpg,lure,target,dist1,dist2,0,0,0,0,0,8,8,68,,,,,,,,,,,64.78836792521179,65.82225362583995,65.82225362583995,65.82225362583995,65.82225362583995,None,65.82225362583995,,,,,,,,,,,,,,,,,,,,,,,,,,,,,,student1,2022-10-25_15h08.33.610,Hippopolis_Learning,2022.2.2,59.00494036260012,
Hippopolis,stimuli/subj_files/student1_cityA.csv,./stimuli/frankfurt.jpg,./stimuli/street_plate1.png,FOGAS UTCA,stimuli/scenes/025a.jpg,scene,1,stimuli/scenes/018a.jpg,stimuli/scenes/018b.jpg,stimuli/scenes/064a.jpg,stimuli/scenes/018a.jpg,stimuli/scenes/064b.jpg,lure,dist1,target,dist2,0,0,0,0,0,9,9,38,,,,,,,,,,,68.80058767646551,69.84142561629415,69.84142561629415,69.84142561629415,69.84142561629415,None,,,,,,,,,,,,,,,,,,,,,,,,,,,,,,,student1,2022-10-25_15h08.33.610,Hippopolis_Learning,2022.2.2,59.00494036260012,
Hippopolis,stimuli/subj_files/student1_cityA.csv,./stimuli/frankfurt.jpg,./stimuli/street_plate1.png,KULLANCS UTCA,stimuli/objects/089a.jpg,object,0,stimuli/objects/089a.jpg,stimuli/scenes/072a.jpg,stimuli/objects/089a.jpg,stimuli/scenes/072b.jpg,stimuli/objects/089b.jpg,dist1,target,dist2,lure,0,0,0,0,0,10,10,34,,,,,,,,,,,72.80423795990646,73.83903117664158,73.83903117664158,73.83903117664158,73.83903117664158,None,,,,,,,,,,,,,,,,,,,,,,,,,,,,,,,student1,2022-10-25_15h08.33.610,Hippopolis_Learning,2022.2.2,59.00494036260012,
Hippopolis,stimuli/subj_files/student1_cityA.csv,./stimuli/frankfurt.jpg,./stimuli/street_plate1.png,KÖTÉL UTCA,stimuli/objects/051a.jpg,object,0,stimuli/objects/051a.jpg,stimuli/scenes/024b.jpg,stimuli/objects/051b.jpg,stimuli/scenes/024a.jpg,stimuli/objects/051a.jpg,dist2,lure,dist1,target,0,0,0,0,0,11,11,7,,,,,,,,,,,76.81638400256634,77.86014446802437,77.86014446802437,77.86014446802437,77.86014446802437,None,,,,,,,,,,,,,,,,,,,,,,,,,,,,,,,student1,2022-10-25_15h08.33.610,Hippopolis_Learning,2022.2.2,59.00494036260012,
Hippopolis,stimuli/subj_files/student1_cityA.csv,./stimuli/frankfurt.jpg,./stimuli/street_plate1.png,KARTON UTCA,stimuli/objects/101a.jpg,object,2,stimuli/scenes/044a.jpg,stimuli/scenes/074a.jpg,stimuli/scenes/044b.jpg,stimuli/scenes/044a.jpg,stimuli/scenes/074b.jpg,dist1,lure,target,dist2,0,0,0,0,0,12,12,8,,,,,,,,,,,80.81891683861613,81.84684956632555,81.84684956632555,81.84684956632555,81.84684956632555,None,,,,,,,,,,,,,,,,,,,,,,,,,,,,,,,student1,2022-10-25_15h08.33.610,Hippopolis_Learning,2022.2.2,59.00494036260012,
Hippopolis,stimuli/subj_files/student1_cityA.csv,./stimuli/frankfurt.jpg,./stimuli/street_plate1.png,SZOMSZÉD UTCA,stimuli/objects/026a.jpg,object,1,stimuli/objects/004a.jpg,stimuli/objects/027b.jpg,stimuli/objects/004b.jpg,stimuli/objects/004a.jpg,stimuli/objects/027a.jpg,dist2,lure,target,dist1,0,0,0,0,0,13,13,65,,,,,,,,,,,84.82694546878338,85.87190952897072,85.87190952897072,85.87190952897072,85.87190952897072,None,,,,,,,,,,,,,,,,,,,,,,,,,,,,,,,student1,2022-10-25_15h08.33.610,Hippopolis_Learning,2022.2.2,59.00494036260012,
Hippopolis,stimuli/subj_files/student1_cityA.csv,./stimuli/frankfurt.jpg,./stimuli/street_plate1.png,OROSZLÁN UTCA,stimuli/scenes/072a.jpg,scene,0,stimuli/scenes/072a.jpg,stimuli/scenes/072a.jpg,stimuli/scenes/072b.jpg,stimuli/scenes/027b.jpg,stimuli/scenes/027a.jpg,target,lure,dist2,dist1,0,0,0,0,0,14,14,66,,,,,,,,,,,88.83827698603272,89.8762381169945,89.8762381169945,89.8762381169945,89.8762381169945,None,,,,,,,,,,,,,,,,,,,,,,,,,,,,,,,student1,2022-10-25_15h08.33.610,Hippopolis_Learning,2022.2.2,59.00494036260012,
Hippopolis,stimuli/subj_files/student1_cityA.csv,./stimuli/frankfurt.jpg,./stimuli/street_plate1.png,BOLYGÓ UTCA,stimuli/scenes/118a.jpg,scene,1,stimuli/scenes/087a.jpg,stimuli/objects/011a.jpg,stimuli/scenes/087b.jpg,stimuli/objects/011b.jpg,stimuli/scenes/087a.jpg,dist1,lure,dist2,target,0,0,0,0,0,15,15,31,,,,,,,,,,,92.8388706985861,93.8954620435834,93.8954620435834,93.8954620435834,93.8954620435834,None,,,,,,,,,,,,,,,,,,,,,,,,,,,,,,,student1,2022-10-25_15h08.33.610,Hippopolis_Learning,2022.2.2,59.00494036260012,
Hippopolis,stimuli/subj_files/student1_cityA.csv,./stimuli/frankfurt.jpg,./stimuli/street_plate1.png,RÁDIÓ UTCA,stimuli/scenes/068a.jpg,scene,1,stimuli/scenes/067a.jpg,stimuli/scenes/018b.jpg,stimuli/scenes/067a.jpg,stimuli/scenes/067b.jpg,stimuli/scenes/018a.jpg,dist2,target,lure,dist1,0,0,0,0,0,16,16,44,,,,,,,,,,,96.85162911377847,97.88029457256198,97.88029457256198,97.88029457256198,97.88029457256198,None,,,,,,,,,,,,,,,,,,,,,,,,,,,,,,,student1,2022-10-25_15h08.33.610,Hippopolis_Learning,2022.2.2,59.00494036260012,
Hippopolis,stimuli/subj_files/student1_cityA.csv,./stimuli/frankfurt.jpg,./stimuli/street_plate1.png,HEGESZTŐ UTCA,stimuli/scenes/043a.jpg,scene,0,stimuli/scenes/043a.jpg,stimuli/scenes/043b.jpg,stimuli/scenes/043a.jpg,stimuli/objects/062a.jpg,stimuli/objects/062b.jpg,lure,target,dist1,dist2,0,0,0,0,0,17,17,77,,,,,,,,,,,100.85510181076825,101.90602786280215,101.90602786280215,101.90602786280215,101.90602786280215,None,,,,,,,,,,,,,,,,,,,,,,,,,,,,,,,student1,2022-10-25_15h08.33.610,Hippopolis_Learning,2022.2.2,59.00494036260012,
Hippopolis,stimuli/subj_files/student1_cityA.csv,./stimuli/frankfurt.jpg,./stimuli/street_plate1.png,TOLLTARTÓ UTCA,stimuli/objects/032a.jpg,object,2,stimuli/scenes/119a.jpg,stimuli/scenes/119a.jpg,stimuli/scenes/104b.jpg,stimuli/scenes/104a.jpg,stimuli/scenes/119b.jpg,target,dist2,dist1,lure,0,0,0,0,0,18,18,67,,,,,,,,,,,104.861622992903,105.91044415347278,105.91044415347278,105.91044415347278,105.91044415347278,None,,,,,,,,,,,,,,,,,,,,,,,,,,,,,,,student1,2022-10-25_15h08.33.610,Hippopolis_Learning,2022.2.2,59.00494036260012,
Hippopolis,stimuli/subj_files/student1_cityA.csv,./stimuli/frankfurt.jpg,./stimuli/street_plate1.png,TOBOZ UTCA,stimuli/objects/001a.jpg,object,2,stimuli/scenes/059a.jpg,stimuli/scenes/059a.jpg,stimuli/objects/085a.jpg,stimuli/objects/085b.jpg,stimuli/scenes/059b.jpg,target,dist1,dist2,lure,0,0,0,0,0,19,19,40,,,,,,,,,,,108.87746006064117,109.92630050331354,109.92630050331354,109.92630050331354,109.92630050331354,None,,,,,,,,,,,,,,,,,,,,,,,,,,,,,,,student1,2022-10-25_15h08.33.610,Hippopolis_Learning,2022.2.2,59.00494036260012,
Hippopolis,stimuli/subj_files/student1_cityA.csv,./stimuli/frankfurt.jpg,./stimuli/street_plate1.png,KÖTÉNY UTCA,stimuli/scenes/031a.jpg,scene,1,stimuli/scenes/064a.jpg,stimuli/objects/103a.jpg,stimuli/objects/103b.jpg,stimuli/scenes/064b.jpg,stimuli/scenes/064a.jpg,dist1,dist2,lure,target,0,0,0,0,0,20,20,22,,,,,,,,,,,112.88945184461772,113.93760838545859,113.93760838545859,113.93760838545859,113.93760838545859,None,,,,,,,,,,,,,,,,,,,,,,,,,,,,,,,student1,2022-10-25_15h08.33.610,Hippopolis_Learning,2022.2.2,59.00494036260012,
Hippopolis,stimuli/subj_files/student1_cityA.csv,./stimuli/frankfurt.jpg,./stimuli/street_plate1.png,VASALÓ UTCA,stimuli/objects/025a.jpg,object,2,stimuli/scenes/056a.jpg,stimuli/scenes/044a.jpg,stimuli/scenes/056b.jpg,stimuli/scenes/056a.jpg,stimuli/scenes/044b.jpg,dist1,lure,target,dist2,0,0,0,0,0,21,21,70,,,,,,,,,,,116.90547147206962,117.95627561025321,117.95627561025321,117.95627561025321,117.95627561025321,None,,,,,,,,,,,,,,,,,,,,,,,,,,,,,,,student1,2022-10-25_15h08.33.610,Hippopolis_Learning,2022.2.2,59.00494036260012,
Hippopolis,stimuli/subj_files/student1_cityA.csv,./stimuli/frankfurt.jpg,./stimuli/street_plate1.png,PÁLMAFA UTCA,stimuli/objects/090a.jpg,object,1,stimuli/objects/007a.jpg,stimuli/objects/053a.jpg,stimuli/objects/007a.jpg,stimuli/objects/053b.jpg,stimuli/objects/007b.jpg,dist1,target,dist2,lure,0,0,0,0,0,22,22,12,,,,,,,,,,,120.91977247968316,121.96493620611727,121.96493620611727,121.96493620611727,121.96493620611727,None,,,,,,,,,,,,,,,,,,,,,,,,,,,,,,,student1,2022-10-25_15h08.33.610,Hippopolis_Learning,2022.2.2,59.00494036260012,
Hippopolis,stimuli/subj_files/student1_cityA.csv,./stimuli/frankfurt.jpg,./stimuli/street_plate1.png,PADLÓ UTCA,stimuli/objects/100a.jpg,object,0,stimuli/objects/100a.jpg,stimuli/scenes/058a.jpg,stimuli/scenes/058b.jpg,stimuli/objects/100a.jpg,stimuli/objects/100b.jpg,dist1,dist2,target,lure,0,0,0,0,0,23,23,59,,,,,,,,,,,124.92087095417082,125.95880284905434,125.95880284905434,125.95880284905434,125.95880284905434,None,,,,,,,,,,,,,,,,,,,,,,,,,,,,,,,student1,2022-10-25_15h08.33.610,Hippopolis_Learning,2022.2.2,59.00494036260012,
Hippopolis,stimuli/subj_files/student1_cityA.csv,./stimuli/frankfurt.jpg,./stimuli/street_plate1.png,MOGYORÓ UTCA,stimuli/objects/106a.jpg,object,1,stimuli/objects/103a.jpg,stimuli/scenes/116a.jpg,stimuli/objects/103b.jpg,stimuli/objects/103a.jpg,stimuli/scenes/116b.jpg,dist1,lure,target,dist2,0,0,0,0,0,24,24,54,,,,,,,,,,,128.9260855987668,129.97142628766596,129.97142628766596,129.97142628766596,129.97142628766596,None,,,,,,,,,,,,,,,,,,,,,,,,,,,,,,,student1,2022-10-25_15h08.33.610,Hippopolis_Learning,2022.2.2,59.00494036260012,
Hippopolis,stimuli/subj_files/student1_cityA.csv,./stimuli/frankfurt.jpg,./stimuli/street_plate1.png,PAPAGÁJ UTCA,stimuli/objects/093a.jpg,object,2,stimuli/scenes/097a.jpg,stimuli/scenes/097a.jpg,stimuli/scenes/109b.jpg,stimuli/scenes/109a.jpg,stimuli/scenes/097b.jpg,target,dist2,dist1,lure,0,0,0,0,0,25,25,55,,,,,,,,,,,132.9337836280465,133.96129027754068,133.96129027754068,133.96129027754068,133.96129027754068,None,,,,,,,,,,,,,,,,,,,,,,,,,,,,,,,student1,2022-10-25_15h08.33.610,Hippopolis_Learning,2022.2.2,59.00494036260012,
Hippopolis,stimuli/subj_files/student1_cityA.csv,./stimuli/frankfurt.jpg,./stimuli/street_plate1.png,TALICSKA UTCA,stimuli/objects/014a.jpg,object,1,stimuli/objects/108a.jpg,stimuli/objects/109a.jpg,stimuli/objects/109b.jpg,stimuli/objects/108a.jpg,stimuli/objects/108b.jpg,dist1,dist2,target,lure,0,0,0,0,0,26,26,13,,,,,,,,,,,136.94587400183082,137.99708866886795,137.99708866886795,137.99708866886795,137.99708866886795,None,,,,,,,,,,,,,,,,,,,,,,,,,,,,,,,student1,2022-10-25_15h08.33.610,Hippopolis_Learning,2022.2.2,59.00494036260012,
Hippopolis,stimuli/subj_files/student1_cityA.csv,./stimuli/frankfurt.jpg,./stimuli/street_plate1.png,PULÓVER UTCA,stimuli/objects/114a.jpg,object,0,stimuli/objects/114a.jpg,stimuli/scenes/050b.jpg,stimuli/scenes/050a.jpg,stimuli/objects/114b.jpg,stimuli/objects/114a.jpg,dist2,dist1,lure,target,0,0,0,0,0,27,27,43,,,,,,,,,,,140.95321219787002,142.00907920859754,142.00907920859754,142.00907920859754,142.00907920859754,None,,,,,,,,,,,,,,,,,,,,,,,,,,,,,,,student1,2022-10-25_15h08.33.610,Hippopolis_Learning,2022.2.2,59.00494036260012,
Hippopolis,stimuli/subj_files/student1_cityA.csv,./stimuli/frankfurt.jpg,./stimuli/street_plate1.png,KAKAS UTCA,stimuli/objects/002a.jpg,object,2,stimuli/scenes/074a.jpg,stimuli/scenes/074b.jpg,stimuli/scenes/074a.jpg,stimuli/scenes/070a.jpg,stimuli/scenes/070b.jpg,lure,target,dist1,dist2,0,0,0,0,0,28,28,24,,,,,,,,,,,144.96164420247078,146.00307367555797,146.00307367555797,146.00307367555797,146.00307367555797,None,,,,,,,,,,,,,,,,,,,,,,,,,,,,,,,student1,2022-10-25_15h08.33.610,Hippopolis_Learning,2022.2.2,59.00494036260012,
Hippopolis,stimuli/subj_files/student1_cityA.csv,./stimuli/frankfurt.jpg,./stimuli/street_plate1.png,ZSEMLE UTCA,stimuli/objects/115a.jpg,object,1,stimuli/objects/053a.jpg,stimuli/objects/007a.jpg,stimuli/objects/053a.jpg,stimuli/objects/007b.jpg,stimuli/objects/053b.jpg,dist1,target,dist2,lure,0,0,0,0,0,29,29,47,,,,,,,,,,,148.9693210851401,150.00658120587468,150.00658120587468,150.00658120587468,150.00658120587468,None,,,,,,,,,,,,,,,,,,,,,,,,,,,,,,,student1,2022-10-25_15h08.33.610,Hippopolis_Learning,2022.2.2,59.00494036260012,
Hippopolis,stimuli/subj_files/student1_cityA.csv,./stimuli/frankfurt.jpg,./stimuli/street_plate1.png,PÁFRÁNY UTCA,stimuli/scenes/101a.jpg,scene,0,stimuli/scenes/101a.jpg,stimuli/scenes/101a.jpg,stimuli/scenes/101b.jpg,stimuli/objects/051a.jpg,stimuli/objects/051b.jpg,target,lure,dist1,dist2,0,0,0,0,0,30,30,0,,,,,,,,,,,152.97561958618462,154.0129232481122,154.0129232481122,154.0129232481122,154.0129232481122,None,,,,,,,,,,,,,,,,,,,,,,,,,,,,,,,student1,2022-10-25_15h08.33.610,Hippopolis_Learning,2022.2.2,59.00494036260012,
Hippopolis,stimuli/subj_files/student1_cityA.csv,./stimuli/frankfurt.jpg,./stimuli/street_plate1.png,MOCSÁR UTCA,stimuli/objects/080a.jpg,object,0,stimuli/objects/080a.jpg,stimuli/objects/080b.jpg,stimuli/objects/080a.jpg,stimuli/scenes/043b.jpg,stimuli/scenes/043a.jpg,lure,target,dist2,dist1,0,0,0,0,0,31,31,17,,,,,,,,,,,156.99225096404552,158.03727598115802,158.03727598115802,158.03727598115802,158.03727598115802,None,,,,,,,,,,,,,,,,,,,,,,,,,,,,,,,student1,2022-10-25_15h08.33.610,Hippopolis_Learning,2022.2.2,59.00494036260012,
Hippopolis,stimuli/subj_files/student1_cityA.csv,./stimuli/frankfurt.jpg,./stimuli/street_plate1.png,PÉKSÉG UTCA,stimuli/scenes/073a.jpg,scene,2,stimuli/objects/059a.jpg,stimuli/objects/059a.jpg,stimuli/objects/046b.jpg,stimuli/objects/059b.jpg,stimuli/objects/046a.jpg,target,dist2,lure,dist1,0,0,0,0,0,32,32,61,,,,,,,,,,,161.00035610236228,162.03795957379043,162.03795957379043,162.03795957379043,162.03795957379043,None,,,,,,,,,,,,,,,,,,,,,,,,,,,,,,,student1,2022-10-25_15h08.33.610,Hippopolis_Learning,2022.2.2,59.00494036260012,
Hippopolis,stimuli/subj_files/student1_cityA.csv,./stimuli/frankfurt.jpg,./stimuli/street_plate1.png,EGÉR UTCA,stimuli/scenes/071a.jpg,scene,1,stimuli/scenes/116a.jpg,stimuli/scenes/116b.jpg,stimuli/scenes/116a.jpg,stimuli/scenes/009b.jpg,stimuli/scenes/009a.jpg,lure,target,dist2,dist1,0,0,0,0,0,33,33,29,,,,,,,,,,,165.00337908416986,166.02548572979867,166.02548572979867,166.02548572979867,166.02548572979867,None,,,,,,,,,,,,,,,,,,,,,,,,,,,,,,,student1,2022-10-25_15h08.33.610,Hippopolis_Learning,2022.2.2,59.00494036260012,
Hippopolis,stimuli/subj_files/student1_cityA.csv,./stimuli/frankfurt.jpg,./stimuli/street_plate1.png,MÁLNA UTCA,stimuli/objects/069a.jpg,object,2,stimuli/scenes/053a.jpg,stimuli/objects/073a.jpg,stimuli/objects/073b.jpg,stimuli/scenes/053b.jpg,stimuli/scenes/053a.jpg,dist1,dist2,lure,target,0,0,0,0,0,34,34,14,,,,,,,,,,,169.00821803323925,170.07162041775882,170.07162041775882,170.07162041775882,170.07162041775882,None,,,,,,,,,,,,,,,,,,,,,,,,,,,,,,,student1,2022-10-25_15h08.33.610,Hippopolis_Learning,2022.2.2,59.00494036260012,
Hippopolis,stimuli/subj_files/student1_cityA.csv,./stimuli/frankfurt.jpg,./stimuli/street_plate1.png,AKÁC UTCA,stimuli/scenes/081a.jpg,scene,2,stimuli/objects/055a.jpg,stimuli/objects/055b.jpg,stimuli/objects/107b.jpg,stimuli/objects/107a.jpg,stimuli/objects/055a.jpg,lure,dist2,dist1,target,0,0,0,0,0,35,35,74,,,,,,,,,,,173.0204903446138,174.063226044178,174.063226044178,174.063226044178,174.063226044178,None,,,,,,,,,,,,,,,,,,,,,,,,,,,,,,,student1,2022-10-25_15h08.33.610,Hippopolis_Learning,2022.2.2,59.00494036260012,
Hippopolis,stimuli/subj_files/student1_cityA.csv,./stimuli/frankfurt.jpg,./stimuli/street_plate1.png,CUKOR UTCA,stimuli/objects/111a.jpg,object,0,stimuli/objects/111a.jpg,stimuli/objects/089b.jpg,stimuli/objects/111b.jpg,stimuli/objects/111a.jpg,stimuli/objects/089a.jpg,dist2,lure,target,dist1,0,0,0,0,0,36,36,30,,,,,,,,,,,177.02604118734598,178.07102235220373,178.07102235220373,178.07102235220373,178.07102235220373,None,,,,,,,,,,,,,,,,,,,,,,,,,,,,,,,student1,2022-10-25_15h08.33.610,Hippopolis_Learning,2022.2.2,59.00494036260012,
Hippopolis,stimuli/subj_files/student1_cityA.csv,./stimuli/frankfurt.jpg,./stimuli/street_plate1.png,LÉTRA UTCA,stimuli/objects/047a.jpg,object,1,stimuli/objects/015a.jpg,stimuli/objects/108b.jpg,stimuli/objects/015b.jpg,stimuli/objects/108a.jpg,stimuli/objects/015a.jpg,dist2,lure,dist1,target,0,0,0,0,0,37,37,33,,,,,,,,,,,181.0354870725423,182.08947156183422,182.08947156183422,182.08947156183422,182.08947156183422,None,,,,,,,,,,,,,,,,,,,,,,,,,,,,,,,student1,2022-10-25_15h08.33.610,Hippopolis_Learning,2022.2.2,59.00494036260012,
Hippopolis,stimuli/subj_files/student1_cityA.csv,./stimuli/frankfurt.jpg,./stimuli/street_plate1.png,KÖMÉNYMAG UTCA,stimuli/objects/068a.jpg,object,1,stimuli/objects/045a.jpg,stimuli/objects/045a.jpg,stimuli/objects/045b.jpg,stimuli/objects/071a.jpg,stimuli/objects/071b.jpg,target,lure,dist1,dist2,0,0,0,0,0,38,38,18,,,,,,,,,,,185.0508601181209,186.09174844063818,186.09174844063818,186.09174844063818,186.09174844063818,None,,,,,,,,,,,,,,,,,,,,,,,,,,,,,,,student1,2022-10-25_15h08.33.610,Hippopolis_Learning,2022.2.2,59.00494036260012,
Hippopolis,stimuli/subj_files/student1_cityA.csv,./stimuli/frankfurt.jpg,./stimuli/street_plate1.png,HERNYÓ UTCA,stimuli/scenes/066a.jpg,scene,1,stimuli/scenes/037a.jpg,stimuli/scenes/037a.jpg,stimuli/objects/045b.jpg,stimuli/scenes/037b.jpg,stimuli/objects/045a.jpg,target,dist2,lure,dist1,0,0,0,0,0,39,39,5,,,,,,,,,,,189.06241804920137,190.09238444827497,190.09238444827497,190.09238444827497,190.09238444827497,None,,,,,,,,,,,,,,,,,,,,,,,,,,,,,,,student1,2022-10-25_15h08.33.610,Hippopolis_Learning,2022.2.2,59.00494036260012,
Hippopolis,stimuli/subj_files/student1_cityA.csv,./stimuli/frankfurt.jpg,./stimuli/street_plate1.png,TRIATLON UTCA,stimuli/objects/024a.jpg,object,0,stimuli/objects/024a.jpg,stimuli/objects/024b.jpg,stimuli/objects/080a.jpg,stimuli/objects/024a.jpg,stimuli/objects/080b.jpg,lure,dist1,target,dist2,0,0,0,0,0,40,40,2,,,,,,,,,,,193.06731857731938,194.1258754823357,194.1258754823357,194.1258754823357,194.1258754823357,None,,,,,,,,,,,,,,,,,,,,,,,,,,,,,,,student1,2022-10-25_15h08.33.610,Hippopolis_Learning,2022.2.2,59.00494036260012,
Hippopolis,stimuli/subj_files/student1_cityA.csv,./stimuli/frankfurt.jpg,./stimuli/street_plate1.png,OLDAL UTCA,stimuli/scenes/093a.jpg,scene,2,stimuli/objects/107a.jpg,stimuli/objects/107b.jpg,stimuli/objects/022a.jpg,stimuli/objects/107a.jpg,stimuli/objects/022b.jpg,lure,dist1,target,dist2,0,0,0,0,0,41,41,11,,,,,,,,,,,197.0693531818688,198.0946159195155,198.0946159195155,198.0946159195155,198.0946159195155,None,,,,,,,,,,,,,,,,,,,,,,,,,,,,,,,student1,2022-10-25_15h08.33.610,Hippopolis_Learning,2022.2.2,59.00494036260012,
Hippopolis,stimuli/subj_files/student1_cityA.csv,./stimuli/frankfurt.jpg,./stimuli/street_plate1.png,KERET UTCA,stimuli/scenes/027a.jpg,scene,0,stimuli/scenes/027a.jpg,stimuli/objects/100a.jpg,stimuli/objects/100b.jpg,stimuli/scenes/027a.jpg,stimuli/scenes/027b.jpg,dist1,dist2,target,lure,0,0,0,0,0,42,42,3,,,,,,,,,,,201.083972658962,202.1208300255239,202.1208300255239,202.1208300255239,202.1208300255239,None,,,,,,,,,,,,,,,,,,,,,,,,,,,,,,,student1,2022-10-25_15h08.33.610,Hippopolis_Learning,2022.2.2,59.00494036260012,
Hippopolis,stimuli/subj_files/student1_cityA.csv,./stimuli/frankfurt.jpg,./stimuli/street_plate1.png,SIVATAG UTCA,stimuli/scenes/016a.jpg,scene,2,stimuli/objects/046a.jpg,stimuli/objects/046b.jpg,stimuli/objects/006a.jpg,stimuli/objects/006b.jpg,stimuli/objects/046a.jpg,lure,dist1,dist2,target,0,0,0,0,0,43,43,23,,,,,,,,,,,205.0991345308721,206.137361260131,206.137361260131,206.137361260131,206.137361260131,None,,,,,,,,,,,,,,,,,,,,,,,,,,,,,,,student1,2022-10-25_15h08.33.610,Hippopolis_Learning,2022.2.2,59.00494036260012,
Hippopolis,stimuli/subj_files/student1_cityA.csv,./stimuli/frankfurt.jpg,./stimuli/street_plate1.png,KECSKE UTCA,stimuli/scenes/085a.jpg,scene,2,stimuli/objects/022a.jpg,stimuli/objects/022b.jpg,stimuli/objects/022a.jpg,stimuli/scenes/053a.jpg,stimuli/scenes/053b.jpg,lure,target,dist1,dist2,0,0,0,0,0,44,44,6,,,,,,,,,,,209.10766979120672,210.15337622351944,210.15337622351944,210.15337622351944,210.15337622351944,space,,213.11186620034277,213.11186620034277,4.712211666628718,,,,,,,,,,,,,,,,,,,,,,,,,,,student1,2022-10-25_15h08.33.610,Hippopolis_Learning,2022.2.2,59.00494036260012,
Hippopolis,stimuli/subj_files/student1_cityA.csv,./stimuli/frankfurt.jpg,./stimuli/street_plate1.png,KÖNYVTÁR UTCA,stimuli/objects/113a.jpg,object,1,stimuli/objects/109a.jpg,stimuli/objects/109a.jpg,stimuli/objects/109b.jpg,stimuli/scenes/067a.jpg,stimuli/scenes/067b.jpg,target,lure,dist1,dist2,0,0,0,0,0,45,45,42,,,,,,,,,,,217.84470828808844,218.9040395990014,218.9040395990014,218.9040395990014,218.9040395990014,None,,,,,,,,,,,,,,,,,,,,,,,,,,,,,,,student1,2022-10-25_15h08.33.610,Hippopolis_Learning,2022.2.2,59.00494036260012,
Hippopolis,stimuli/subj_files/student1_cityA.csv,./stimuli/frankfurt.jpg,./stimuli/street_plate1.png,MOTOR UTCA,stimuli/objects/097a.jpg,object,1,stimuli/objects/071a.jpg,stimuli/objects/015b.jpg,stimuli/objects/071b.jpg,stimuli/objects/071a.jpg,stimuli/objects/015a.jpg,dist2,lure,target,dist1,0,0,0,0,0,46,46,36,,,,,,,,,,,221.85402417369187,222.90787275321782,222.90787275321782,222.90787275321782,222.90787275321782,None,,,,,,,,,,,,,,,,,,,,,,,,,,,,,,,student1,2022-10-25_15h08.33.610,Hippopolis_Learning,2022.2.2,59.00494036260012,
Hippopolis,stimuli/subj_files/student1_cityA.csv,./stimuli/frankfurt.jpg,./stimuli/street_plate1.png,TERASZ UTCA,stimuli/objects/063a.jpg,object,2,stimuli/scenes/104a.jpg,stimuli/scenes/104a.jpg,stimuli/scenes/056a.jpg,stimuli/scenes/104b.jpg,stimuli/scenes/056b.jpg,target,dist1,lure,dist2,0,0,0,0,0,47,47,48,,,,,,,,,,,225.86704912036657,226.90470888465643,226.90470888465643,226.90470888465643,226.90470888465643,None,,,,,,,,,,,,,,,,,,,,,,,,,,,,,,,student1,2022-10-25_15h08.33.610,Hippopolis_Learning,2022.2.2,59.00494036260012,
Hippopolis,stimuli/subj_files/student1_cityA.csv,./stimuli/frankfurt.jpg,./stimuli/street_plate1.png,KORONA UTCA,stimuli/scenes/108a.jpg,scene,1,stimuli/scenes/011a.jpg,stimuli/objects/076a.jpg,stimuli/scenes/011b.jpg,stimuli/objects/076b.jpg,stimuli/scenes/011a.jpg,dist1,lure,dist2,target,0,0,0,0,0,48,48,9,,,,,,,,,,,229.87949062138796,230.93654318898916,230.93654318898916,230.93654318898916,230.93654318898916,None,,,,,,,,,,,,,,,,,,,,,,,,,,,,,,,student1,2022-10-25_15h08.33.610,Hippopolis_Learning,2022.2.2,59.00494036260012,
Hippopolis,stimuli/subj_files/student1_cityA.csv,./stimuli/frankfurt.jpg,./stimuli/street_plate1.png,CITROM UTCA,stimuli/scenes/036a.jpg,scene,2,stimuli/objects/043a.jpg,stimuli/objects/043b.jpg,stimuli/objects/067a.jpg,stimuli/objects/043a.jpg,stimuli/objects/067b.jpg,lure,dist1,target,dist2,0,0,0,0,0,49,49,26,,,,,,,,,,,233.88745580613613,234.9187666848302,234.9187666848302,234.9187666848302,234.9187666848302,None,,,,,,,,,,,,,,,,,,,,,,,,,,,,,,,student1,2022-10-25_15h08.33.610,Hippopolis_Learning,2022.2.2,59.00494036260012,
Hippopolis,stimuli/subj_files/student1_cityA.csv,./stimuli/frankfurt.jpg,./stimuli/street_plate1.png,PETÁRDA UTCA,stimuli/objects/009a.jpg,object,0,stimuli/objects/009a.jpg,stimuli/objects/009a.jpg,stimuli/scenes/051a.jpg,stimuli/objects/009b.jpg,stimuli/scenes/051b.jpg,target,dist1,lure,dist2,0,0,0,0,0,50,50,64,,,,,,,,,,,237.8943924922496,238.9408702198416,238.9408702198416,238.9408702198416,238.9408702198416,None,,,,,,,,,,,,,,,,,,,,,,,,,,,,,,,student1,2022-10-25_15h08.33.610,Hippopolis_Learning,2022.2.2,59.00494036260012,
Hippopolis,stimuli/subj_files/student1_cityA.csv,./stimuli/frankfurt.jpg,./stimuli/street_plate1.png,BÖGRE UTCA,stimuli/objects/050a.jpg,object,1,stimuli/objects/076a.jpg,stimuli/scenes/037a.jpg,stimuli/objects/076a.jpg,stimuli/objects/076b.jpg,stimuli/scenes/037b.jpg,dist1,target,lure,dist2,0,0,0,0,0,51,51,41,,,,,,,,,,,241.90447127632797,242.96543817035854,242.96543817035854,242.96543817035854,242.96543817035854,None,,,,,,,,,,,,,,,,,,,,,,,,,,,,,,,student1,2022-10-25_15h08.33.610,Hippopolis_Learning,2022.2.2,59.00494036260012,
Hippopolis,stimuli/subj_files/student1_cityA.csv,./stimuli/frankfurt.jpg,./stimuli/street_plate1.png,RÓZSA UTCA,stimuli/objects/091a.jpg,object,0,stimuli/objects/091a.jpg,stimuli/objects/091b.jpg,stimuli/objects/078b.jpg,stimuli/objects/078a.jpg,stimuli/objects/091a.jpg,lure,dist2,dist1,target,0,0,0,0,0,52,52,45,,,,,,,,,,,245.9199276715517,246.9625762887299,246.9625762887299,246.9625762887299,246.9625762887299,None,,,,,,,,,,,,,,,,,,,,,,,,,,,,,,,student1,2022-10-25_15h08.33.610,Hippopolis_Learning,2022.2.2,59.00494036260012,
Hippopolis,stimuli/subj_files/student1_cityA.csv,./stimuli/frankfurt.jpg,./stimuli/street_plate1.png,HEGEDŰ UTCA,stimuli/scenes/113a.jpg,scene,2,stimuli/objects/036a.jpg,stimuli/objects/036b.jpg,stimuli/scenes/059b.jpg,stimuli/scenes/059a.jpg,stimuli/objects/036a.jpg,lure,dist2,dist1,target,0,0,0,0,0,53,53,69,,,,,,,,,,,249.92462542280555,250.9613677188754,250.9613677188754,250.9613677188754,250.9613677188754,None,250.9613677188754,,,,,,,,,,,,,,,,,,,,,,,,,,,,,,student1,2022-10-25_15h08.33.610,Hippopolis_Learning,2022.2.2,59.00494036260012,
Hippopolis,stimuli/subj_files/student1_cityA.csv,./stimuli/frankfurt.jpg,./stimuli/street_plate1.png,HORDÓ UTCA,stimuli/scenes/095a.jpg,scene,0,stimuli/scenes/095a.jpg,stimuli/scenes/095a.jpg,stimuli/scenes/046a.jpg,stimuli/scenes/095b.jpg,stimuli/scenes/046b.jpg,target,dist1,lure,dist2,0,0,0,0,0,54,54,27,,,,,,,,,,,253.93597964569926,254.99072641134262,254.99072641134262,254.99072641134262,254.99072641134262,None,,,,,,,,,,,,,,,,,,,,,,,,,,,,,,,student1,2022-10-25_15h08.33.610,Hippopolis_Learning,2022.2.2,59.00494036260012,
Hippopolis,stimuli/subj_files/student1_cityA.csv,./stimuli/frankfurt.jpg,./stimuli/street_plate1.png,TELEP UTCA,stimuli/scenes/048a.jpg,scene,2,stimuli/objects/120a.jpg,stimuli/objects/120a.jpg,stimuli/objects/120b.jpg,stimuli/scenes/119b.jpg,stimuli/scenes/119a.jpg,target,lure,dist2,dist1,0,0,0,0,0,55,55,75,,,,,,,,,,,257.9363301489502,258.9742418285459,258.9742418285459,258.9742418285459,258.9742418285459,None,,,,,,,,,,,,,,,,,,,,,,,,,,,,,,,student1,2022-10-25_15h08.33.610,Hippopolis_Learning,2022.2.2,59.00494036260012,
Hippopolis,stimuli/subj_files/student1_cityA.csv,./stimuli/frankfurt.jpg,./stimuli/street_plate1.png,PIZSAMA UTCA,stimuli/scenes/060a.jpg,scene,2,stimuli/objects/006a.jpg,stimuli/scenes/007b.jpg,stimuli/scenes/007a.jpg,stimuli/objects/006b.jpg,stimuli/objects/006a.jpg,dist2,dist1,lure,target,0,0,0,0,0,56,56,79,,,,,,,,,,,261.93674285523593,262.98565358668566,262.98565358668566,262.98565358668566,262.98565358668566,None,,,,,,,,,,,,,,,,,,,,,,,,,,,,,,,student1,2022-10-25_15h08.33.610,Hippopolis_Learning,2022.2.2,59.00494036260012,
Hippopolis,stimuli/subj_files/student1_cityA.csv,./stimuli/frankfurt.jpg,./stimuli/street_plate1.png,KOKTÉL UTCA,stimuli/scenes/008a.jpg,scene,2,stimuli/objects/012a.jpg,stimuli/objects/036b.jpg,stimuli/objects/012b.jpg,stimuli/objects/036a.jpg,stimuli/objects/012a.jpg,dist2,lure,dist1,target,0,0,0,0,0,57,57,46,,,,,,,,,,,265.94949536025524,266.9891881737858,266.9891881737858,266.9891881737858,266.9891881737858,None,,,,,,,,,,,,,,,,,,,,,,,,,,,,,,,student1,2022-10-25_15h08.33.610,Hippopolis_Learning,2022.2.2,59.00494036260012,
Hippopolis,stimuli/subj_files/student1_cityA.csv,./stimuli/frankfurt.jpg,./stimuli/street_plate1.png,AJÁNDÉK UTCA,stimuli/scenes/005a.jpg,scene,1,stimuli/scenes/009a.jpg,stimuli/scenes/078b.jpg,stimuli/scenes/078a.jpg,stimuli/scenes/009a.jpg,stimuli/scenes/009b.jpg,dist2,dist1,target,lure,0,0,0,0,0,58,58,28,,,,,,,,,,,269.96263133734465,271.01280164532363,271.01280164532363,271.01280164532363,271.01280164532363,None,,,,,,,,,,,,,,,,,,,,,,,,,,,,,,,student1,2022-10-25_15h08.33.610,Hippopolis_Learning,2022.2.2,59.00494036260012,
Hippopolis,stimuli/subj_files/student1_cityA.csv,./stimuli/frankfurt.jpg,./stimuli/street_plate1.png,NARANCS UTCA,stimuli/objects/017a.jpg,object,1,stimuli/objects/075a.jpg,stimuli/objects/075a.jpg,stimuli/scenes/041b.jpg,stimuli/scenes/041a.jpg,stimuli/objects/075b.jpg,target,dist2,dist1,lure,0,0,0,0,0,59,59,76,,,,,,,,,,,273.9659917615354,275.00387793779373,275.00387793779373,275.00387793779373,275.00387793779373,None,,,,,,,,,,,,,,,,,,,,,,,,,,,,,,,student1,2022-10-25_15h08.33.610,Hippopolis_Learning,2022.2.2,59.00494036260012,
Hippopolis,stimuli/subj_files/student1_cityA.csv,./stimuli/frankfurt.jpg,./stimuli/street_plate1.png,KERÉK UTCA,stimuli/scenes/096a.jpg,scene,1,stimuli/scenes/041a.jpg,stimuli/scenes/117a.jpg,stimuli/scenes/041b.jpg,stimuli/scenes/041a.jpg,stimuli/scenes/117b.jpg,dist1,lure,target,dist2,0,0,0,0,0,60,60,20,,,,,,,,,,,277.9691982381046,279.0232458617538,279.0232458617538,279.0232458617538,279.0232458617538,None,,,,,,,,,,,,,,,,,,,,,,,,,,,,,,,student1,2022-10-25_15h08.33.610,Hippopolis_Learning,2022.2.2,59.00494036260012,
Hippopolis,stimuli/subj_files/student1_cityA.csv,./stimuli/frankfurt.jpg,./stimuli/street_plate1.png,HÁRFA UTCA,stimuli/objects/083a.jpg,object,2,stimuli/scenes/028a.jpg,stimuli/scenes/028b.jpg,stimuli/objects/012b.jpg,stimuli/objects/012a.jpg,stimuli/scenes/028a.jpg,lure,dist2,dist1,target,0,0,0,0,0,61,61,16,,,,,,,,,,,281.98333067819476,283.0263413079083,283.0263413079083,283.0263413079083,283.0263413079083,None,,,,,,,,,,,,,,,,,,,,,,,,,,,,,,,student1,2022-10-25_15h08.33.610,Hippopolis_Learning,2022.2.2,59.00494036260012,
Hippopolis,stimuli/subj_files/student1_cityA.csv,./stimuli/frankfurt.jpg,./stimuli/street_plate1.png,HAJÓ UTCA,stimuli/objects/086a.jpg,object,1,stimuli/objects/041a.jpg,stimuli/scenes/014a.jpg,stimuli/scenes/014b.jpg,stimuli/objects/041a.jpg,stimuli/objects/041b.jpg,dist1,dist2,target,lure,0,0,0,0,0,62,62,71,,,,,,,,,,,285.993169054389,287.0526319220662,287.0526319220662,287.0526319220662,287.0526319220662,None,,,,,,,,,,,,,,,,,,,,,,,,,,,,,,,student1,2022-10-25_15h08.33.610,Hippopolis_Learning,2022.2.2,59.00494036260012,
Hippopolis,stimuli/subj_files/student1_cityA.csv,./stimuli/frankfurt.jpg,./stimuli/street_plate1.png,TOJÁS UTCA,stimuli/objects/021a.jpg,object,2,stimuli/scenes/034a.jpg,stimuli/scenes/034a.jpg,stimuli/objects/059a.jpg,stimuli/objects/059b.jpg,stimuli/scenes/034b.jpg,target,dist1,dist2,lure,0,0,0,0,0,63,63,37,,,,,,,,,,,290.000749213621,291.0461779180914,291.0461779180914,291.0461779180914,291.0461779180914,None,,,,,,,,,,,,,,,,,,,,,,,,,,,,,,,student1,2022-10-25_15h08.33.610,Hippopolis_Learning,2022.2.2,59.00494036260012,
Hippopolis,stimuli/subj_files/student1_cityA.csv,./stimuli/frankfurt.jpg,./stimuli/street_plate1.png,ÜVEG UTCA,stimuli/scenes/061a.jpg,scene,2,stimuli/objects/085a.jpg,stimuli/objects/085b.jpg,stimuli/scenes/084a.jpg,stimuli/objects/085a.jpg,stimuli/scenes/084b.jpg,lure,dist1,target,dist2,0,0,0,0,0,64,64,19,,,,,,,,,,,294.0017630942166,295.03728002496064,295.03728002496064,295.03728002496064,295.03728002496064,None,295.03728002496064,,,,,,,,,,,,,,,,,,,,,,,,,,,,,,student1,2022-10-25_15h08.33.610,Hippopolis_Learning,2022.2.2,59.00494036260012,
Hippopolis,stimuli/subj_files/student1_cityA.csv,./stimuli/frankfurt.jpg,./stimuli/street_plate1.png,MUNKA UTCA,stimuli/scenes/039a.jpg,scene,2,stimuli/objects/067a.jpg,stimuli/scenes/097a.jpg,stimuli/objects/067b.jpg,stimuli/objects/067a.jpg,stimuli/scenes/097b.jpg,dist1,lure,target,dist2,0,0,0,0,0,65,65,4,,,,,,,,,,,298.0160924028605,299.05928372778,299.05928372778,299.05928372778,299.05928372778,None,,,,,,,,,,,,,,,,,,,,,,,,,,,,,,,student1,2022-10-25_15h08.33.610,Hippopolis_Learning,2022.2.2,59.00494036260012,
Hippopolis,stimuli/subj_files/student1_cityA.csv,./stimuli/frankfurt.jpg,./stimuli/street_plate1.png,LÁNDZSA UTCA,stimuli/scenes/090a.jpg,scene,0,stimuli/scenes/090a.jpg,stimuli/scenes/090a.jpg,stimuli/objects/091b.jpg,stimuli/scenes/090b.jpg,stimuli/objects/091a.jpg,target,dist2,lure,dist1,0,0,0,0,0,66,66,39,,,,,,,,,,,302.01896019279957,303.0443156119436,303.0443156119436,303.0443156119436,303.0443156119436,None,,,,,,,,,,,,,,,,,,,,,,,,,,,,,,,student1,2022-10-25_15h08.33.610,Hippopolis_Learning,2022.2.2,59.00494036260012,
Hippopolis,stimuli/subj_files/student1_cityA.csv,./stimuli/frankfurt.jpg,./stimuli/street_plate1.png,MUSTÁR UTCA,stimuli/scenes/050a.jpg,scene,0,stimuli/scenes/050a.jpg,stimuli/objects/009a.jpg,stimuli/objects/009b.jpg,stimuli/scenes/050a.jpg,stimuli/scenes/050b.jpg,dist1,dist2,target,lure,0,0,0,0,0,67,67,78,,,,,,,,,,,306.02431758865714,307.0518472529948,307.0518472529948,307.0518472529948,307.0518472529948,None,,,,,,,,,,,,,,,,,,,,,,,,,,,,,,,student1,2022-10-25_15h08.33.610,Hippopolis_Learning,2022.2.2,59.00494036260012,
Hippopolis,stimuli/subj_files/student1_cityA.csv,./stimuli/frankfurt.jpg,./stimuli/street_plate1.png,BAGOLY UTCA,stimuli/scenes/029a.jpg,scene,2,stimuli/objects/028a.jpg,stimuli/objects/028b.jpg,stimuli/objects/028a.jpg,stimuli/scenes/028a.jpg,stimuli/scenes/028b.jpg,lure,target,dist1,dist2,0,0,0,0,0,68,68,21,,,,,,,,,,,310.02494644373655,311.0486348681152,311.0486348681152,311.0486348681152,311.0486348681152,None,,,,,,,,,,,,,,,,,,,,,,,,,,,,,,,student1,2022-10-25_15h08.33.610,Hippopolis_Learning,2022.2.2,59.00494036260012,
Hippopolis,stimuli/subj_files/student1_cityA.csv,./stimuli/frankfurt.jpg,./stimuli/street_plate1.png,DOMINÓ UTCA,stimuli/scenes/042a.jpg,scene,0,stimuli/scenes/042a.jpg,stimuli/scenes/042a.jpg,stimuli/scenes/042b.jpg,stimuli/objects/070a.jpg,stimuli/objects/070b.jpg,target,lure,dist1,dist2,0,0,0,0,0,69,69,63,,,,,,,,,,,314.0264380313456,315.0569670405239,315.0569670405239,315.0569670405239,315.0569670405239,None,,,,,,,,,,,,,,,,,,,,,,,,,,,,,,,student1,2022-10-25_15h08.33.610,Hippopolis_Learning,2022.2.2,59.00494036260012,
Hippopolis,stimuli/subj_files/student1_cityA.csv,./stimuli/frankfurt.jpg,./stimuli/street_plate1.png,ÁLOM UTCA,stimuli/objects/070a.jpg,object,0,stimuli/objects/070a.jpg,stimuli/objects/070b.jpg,stimuli/objects/114b.jpg,stimuli/objects/114a.jpg,stimuli/objects/070a.jpg,lure,dist2,dist1,target,0,0,0,0,0,70,70,50,,,,,,,,,,,318.0297872591764,319.0747301708907,319.0747301708907,319.0747301708907,319.0747301708907,None,,,,,,,,,,,,,,,,,,,,,,,,,,,,,,,student1,2022-10-25_15h08.33.610,Hippopolis_Learning,2022.2.2,59.00494036260012,
Hippopolis,stimuli/subj_files/student1_cityA.csv,./stimuli/frankfurt.jpg,./stimuli/street_plate1.png,POGÁCSA UTCA,stimuli/scenes/046a.jpg,scene,0,stimuli/scenes/046a.jpg,stimuli/scenes/042a.jpg,stimuli/scenes/046a.jpg,stimuli/scenes/046b.jpg,stimuli/scenes/042b.jpg,dist1,target,lure,dist2,0,0,0,0,0,71,71,49,,,,,,,,,,,322.03437149338424,323.07299910858274,323.07299910858274,323.07299910858274,323.07299910858274,None,,,,,,,,,,,,,,,,,,,,,,,,,,,,,,,student1,2022-10-25_15h08.33.610,Hippopolis_Learning,2022.2.2,59.00494036260012,
Hippopolis,stimuli/subj_files/student1_cityA.csv,./stimuli/frankfurt.jpg,./stimuli/street_plate1.png,KORONG UTCA,stimuli/scenes/065a.jpg,scene,1,stimuli/scenes/004a.jpg,stimuli/scenes/004a.jpg,stimuli/scenes/011b.jpg,stimuli/scenes/011a.jpg,stimuli/scenes/004b.jpg,target,dist2,dist1,lure,0,0,0,0,0,72,72,53,,,,,,,,,,,326.0355579815805,327.05973406508565,327.05973406508565,327.05973406508565,327.05973406508565,None,327.05973406508565,,,,,,,,,,,,,,,,,,,,,,,,,,,,,,student1,2022-10-25_15h08.33.610,Hippopolis_Learning,2022.2.2,59.00494036260012,
Hippopolis,stimuli/subj_files/student1_cityA.csv,./stimuli/frankfurt.jpg,./stimuli/street_plate1.png,FIÓK UTCA,stimuli/scenes/002a.jpg,scene,1,stimuli/scenes/014a.jpg,stimuli/scenes/014a.jpg,stimuli/objects/004a.jpg,stimuli/objects/004b.jpg,stimuli/scenes/014b.jpg,target,dist1,dist2,lure,0,0,0,0,0,73,73,73,,,,,,,,,,,330.04874900728464,331.0909706130624,331.0909706130624,331.0909706130624,331.0909706130624,None,,,,,,,,,,,,,,,,,,,,,,,,,,,,,,,student1,2022-10-25_15h08.33.610,Hippopolis_Learning,2022.2.2,59.00494036260012,
Hippopolis,stimuli/subj_files/student1_cityA.csv,./stimuli/frankfurt.jpg,./stimuli/street_plate1.png,FÓKA UTCA,stimuli/scenes/058a.jpg,scene,0,stimuli/scenes/058a.jpg,stimuli/scenes/058a.jpg,stimuli/scenes/058b.jpg,stimuli/objects/111b.jpg,stimuli/objects/111a.jpg,target,lure,dist2,dist1,0,0,0,0,0,74,74,51,,,,,,,,,,,334.0652556717396,335.10240289755166,335.10240289755166,335.10240289755166,335.10240289755166,None,,,,,,,,,,,,,,,,,,,,,,,,,,,,,,,student1,2022-10-25_15h08.33.610,Hippopolis_Learning,2022.2.2,59.00494036260012,
Hippopolis,stimuli/subj_files/student1_cityA.csv,./stimuli/frankfurt.jpg,./stimuli/street_plate1.png,KIRAKÓ UTCA,stimuli/objects/079a.jpg,object,2,stimuli/scenes/070a.jpg,stimuli/scenes/070a.jpg,stimuli/scenes/070b.jpg,stimuli/objects/043b.jpg,stimuli/objects/043a.jpg,target,lure,dist2,dist1,0,0,0,0,0,75,75,57,,,,,,,,,,,338.069114016369,339.1340020801872,339.1340020801872,339.1340020801872,339.1340020801872,None,,,,,,,,,,,,,,,,,,,,,,,,,,,,,,,student1,2022-10-25_15h08.33.610,Hippopolis_Learning,2022.2.2,59.00494036260012,
Hippopolis,stimuli/subj_files/student1_cityA.csv,./stimuli/frankfurt.jpg,./stimuli/street_plate1.png,KOCKA UTCA,stimuli/objects/062a.jpg,object,0,stimuli/objects/062a.jpg,stimuli/scenes/095b.jpg,stimuli/objects/062a.jpg,stimuli/objects/062b.jpg,stimuli/scenes/095a.jpg,dist2,target,lure,dist1,0,0,0,0,0,76,76,35,,,,,,,,,,,342.0866519790143,343.13833377696574,343.13833377696574,343.13833377696574,343.13833377696574,None,,,,,,,,,,,,,,,,,,,,,,,,,,,,,,,student1,2022-10-25_15h08.33.610,Hippopolis_Learning,2022.2.2,59.00494036260012,
Hippopolis,stimuli/subj_files/student1_cityA.csv,./stimuli/frankfurt.jpg,./stimuli/street_plate1.png,MARTINI UTCA,stimuli/objects/060a.jpg,object,1,stimuli/objects/011a.jpg,stimuli/objects/075b.jpg,stimuli/objects/075a.jpg,stimuli/objects/011b.jpg,stimuli/objects/011a.jpg,dist2,dist1,lure,target,0,0,0,0,0,77,77,60,,,,,,,,,,,346.10179519094527,347.13921268098056,347.13921268098056,347.13921268098056,347.13921268098056,None,,,,,,,,,,,,,,,,,,,,,,,,,,,,,,,student1,2022-10-25_15h08.33.610,Hippopolis_Learning,2022.2.2,59.00494036260012,
Hippopolis,stimuli/subj_files/student1_cityA.csv,./stimuli/frankfurt.jpg,./stimuli/street_plate1.png,FÉNYKÉP UTCA,stimuli/scenes/010a.jpg,scene,1,stimuli/scenes/078a.jpg,stimuli/scenes/088a.jpg,stimuli/scenes/078a.jpg,stimuli/scenes/088b.jpg,stimuli/scenes/078b.jpg,dist1,target,dist2,lure,0,0,0,0,0,78,78,32,,,,,,,,,,,350.1034851986915,351.15953912585974,351.15953912585974,351.15953912585974,351.15953912585974,None,,,,,,,,,,,,,,,,,,,,,,,,,,,,,,,student1,2022-10-25_15h08.33.610,Hippopolis_Learning,2022.2.2,59.00494036260012,
Hippopolis,stimuli/subj_files/student1_cityA.csv,./stimuli/frankfurt.jpg,./stimuli/street_plate1.png,ÁRNYÉK UTCA,stimuli/objects/020a.jpg,object,1,stimuli/objects/027a.jpg,stimuli/scenes/004a.jpg,stimuli/objects/027b.jpg,stimuli/objects/027a.jpg,stimuli/scenes/004b.jpg,dist1,lure,target,dist2,0,0,0,0,0,79,79,52,,,,,,,,,,,354.113700825721,355.1524341851473,355.1524341851473,355.1524341851473,355.1524341851473,None,,,,,,,,,,,,,,,,,,,,,,,,,,,,,,,student1,2022-10-25_15h08.33.610,Hippopolis_Learning,2022.2.2,59.00494036260012,
Hippopolis,stimuli/subj_files/student1_cityA.csv,./stimuli/frankfurt.jpg,./stimuli/street_plate1.png,CSILLAG UTCA,stimuli/scenes/083a.jpg,scene,1,stimuli/scenes/117a.jpg,stimuli/scenes/117a.jpg,stimuli/scenes/117b.jpg,stimuli/objects/041a.jpg,stimuli/objects/041b.jpg,target,lure,dist1,dist2,0,0,0,0,,,,,0,0,0,15,,,,,,,368.00917437672615,,,,,,,,,,358.129847034812,358.129847034812,space,5.81954556889832,364.0236930884421,364.0236930884421,364.0236930884421,364.0236930884421,364.0236930884421,364.0236930884421,None,None,,,,,,,,,,,,,,,student1,2022-10-25_15h08.33.610,Hippopolis_Learning,2022.2.2,59.00494036260012,
Hippopolis,stimuli/subj_files/student1_cityA.csv,./stimuli/frankfurt.jpg,./stimuli/street_plate1.png,BONBON UTCA,stimuli/objects/095a.jpg,object,2,stimuli/scenes/007a.jpg,stimuli/objects/028b.jpg,stimuli/objects/028a.jpg,stimuli/scenes/007a.jpg,stimuli/scenes/007b.jpg,dist2,dist1,target,lure,0,0,0,0,,,,,0,1,1,72,,,,,,,370.7621015701443,,,,,,,,,,,,,,369.02265184000134,369.02265184000134,369.02265184000134,369.02265184000134,369.02265184000134,369.02265184000134,left,None,1.6943412385880947,,,,,,,,,,,,,,student1,2022-10-25_15h08.33.610,Hippopolis_Learning,2022.2.2,59.00494036260012,
Hippopolis,stimuli/subj_files/student1_cityA.csv,./stimuli/frankfurt.jpg,./stimuli/street_plate1.png,VASALÓ UTCA,stimuli/objects/025a.jpg,object,2,stimuli/scenes/056a.jpg,stimuli/scenes/044a.jpg,stimuli/scenes/056b.jpg,stimuli/scenes/056a.jpg,stimuli/scenes/044b.jpg,dist1,lure,target,dist2,0,0,0,0,,,,,0,2,2,70,,,,,,,375.15889845229685,,,,,,,,,,,,,,371.7865737285465,371.7865737285465,371.7865737285465,371.7865737285465,371.7865737285465,371.7865737285465,left,None,3.3466777689754963,,,,,,,,,,,,,,student1,2022-10-25_15h08.33.610,Hippopolis_Learning,2022.2.2,59.00494036260012,
Hippopolis,stimuli/subj_files/student1_cityA.csv,./stimuli/frankfurt.jpg,./stimuli/street_plate1.png,BÖGRE UTCA,stimuli/objects/050a.jpg,object,1,stimuli/objects/076a.jpg,stimuli/scenes/037a.jpg,stimuli/objects/076a.jpg,stimuli/objects/076b.jpg,stimuli/scenes/037b.jpg,dist1,target,lure,dist2,0,0,0,0,,,,,0,3,3,41,,,,,,,378.62451514042914,,,,,,,,,,,,,,376.1845757625997,376.1845757625997,376.1845757625997,376.1845757625997,376.1845757625997,376.1845757625997,left,None,2.404530555009842,,,,,,,,,,,,,,student1,2022-10-25_15h08.33.610,Hippopolis_Learning,2022.2.2,59.00494036260012,
Hippopolis,stimuli/subj_files/student1_cityA.csv,./stimuli/frankfurt.jpg,./stimuli/street_plate1.png,CUKOR UTCA,stimuli/objects/111a.jpg,object,0,stimuli/objects/111a.jpg,stimuli/objects/089b.jpg,stimuli/objects/111b.jpg,stimuli/objects/111a.jpg,stimuli/objects/089a.jpg,dist2,lure,target,dist1,0,0,0,0,,,,,0,4,4,30,,,,,,,380.9845955427736,,,,,,,,,,,,,,379.641749560833,379.641749560833,379.641749560833,379.641749560833,379.641749560833,379.641749560833,left,None,1.2997055388987064,,,,,,,,,,,,,,student1,2022-10-25_15h08.33.610,Hippopolis_Learning,2022.2.2,59.00494036260012,
Hippopolis,stimuli/subj_files/student1_cityA.csv,./stimuli/frankfurt.jpg,./stimuli/street_plate1.png,PULÓVER UTCA,stimuli/objects/114a.jpg,object,0,stimuli/objects/114a.jpg,stimuli/scenes/050b.jpg,stimuli/scenes/050a.jpg,stimuli/objects/114b.jpg,stimuli/objects/114a.jpg,dist2,dist1,lure,target,0,0,0,0,,,,,0,5,5,43,,,,,,,386.0117855872959,,,,,,,,,,,,,,382.00537170283496,382.00537170283496,382.00537170283496,382.00537170283496,382.00537170283496,382.00537170283496,None,None,,,,,,,,,,,,,,,student1,2022-10-25_15h08.33.610,Hippopolis_Learning,2022.2.2,59.00494036260012,
Hippopolis,stimuli/subj_files/student1_cityA.csv,./stimuli/frankfurt.jpg,./stimuli/street_plate1.png,KERET UTCA,stimuli/scenes/027a.jpg,scene,0,stimuli/scenes/027a.jpg,stimuli/objects/100a.jpg,stimuli/objects/100b.jpg,stimuli/scenes/027a.jpg,stimuli/scenes/027b.jpg,dist1,dist2,target,lure,0,0,0,0,,,,,0,6,6,3,,,,,,,389.8306763023138,,,,,,,,,,,,,,387.03654573857784,387.03654573857784,387.03654573857784,387.03654573857784,387.03654573857784,387.03654573857784,right,None,2.7528437171131372,,,,,,,,,,,,,,student1,2022-10-25_15h08.33.610,Hippopolis_Learning,2022.2.2,59.00494036260012,
Hippopolis,stimuli/subj_files/student1_cityA.csv,./stimuli/frankfurt.jpg,./stimuli/street_plate1.png,KERÉK UTCA,stimuli/scenes/096a.jpg,scene,1,stimuli/scenes/041a.jpg,stimuli/scenes/117a.jpg,stimuli/scenes/041b.jpg,stimuli/scenes/041a.jpg,stimuli/scenes/117b.jpg,dist1,lure,target,dist2,0,0,0,0,,,,,0,7,7,20,,,,,,,392.4095798674971,,,,,,,,,,,,,,390.855346262455,390.855346262455,390.855346262455,390.855346262455,390.855346262455,390.855346262455,left,None,1.5259014200419188,,,,,,,,,,,,,,student1,2022-10-25_15h08.33.610,Hippopolis_Learning,2022.2.2,59.00494036260012,
Hippopolis,stimuli/subj_files/student1_cityA.csv,./stimuli/frankfurt.jpg,./stimuli/street_plate1.png,PÁLMAFA UTCA,stimuli/objects/090a.jpg,object,1,stimuli/objects/007a.jpg,stimuli/objects/053a.jpg,stimuli/objects/007a.jpg,stimuli/objects/053b.jpg,stimuli/objects/007b.jpg,dist1,target,dist2,lure,0,0,0,0,,,,,0,8,8,12,,,,,,,395.47249521687627,,,,,,,,,,,,,,393.4347427729517,393.4347427729517,393.4347427729517,393.4347427729517,393.4347427729517,393.4347427729517,left,None,1.986690666526556,,,,,,,,,,,,,,student1,2022-10-25_15h08.33.610,Hippopolis_Learning,2022.2.2,59.00494036260012,
Hippopolis,stimuli/subj_files/student1_cityA.csv,./stimuli/frankfurt.jpg,./stimuli/street_plate1.png,MOTOR UTCA,stimuli/objects/097a.jpg,object,1,stimuli/objects/071a.jpg,stimuli/objects/015b.jpg,stimuli/objects/071b.jpg,stimuli/objects/071a.jpg,stimuli/objects/015a.jpg,dist2,lure,target,dist1,0,0,0,0,,,,,0,9,9,36,,,,,,,398.4880309179425,,,,,,,,,,,,,,396.487146416679,396.487146416679,396.487146416679,396.487146416679,396.487146416679,396.487146416679,left,None,1.9414958413690329,,,,,,,,,,,,,,student1,2022-10-25_15h08.33.610,Hippopolis_Learning,2022.2.2,59.00494036260012,
Hippopolis,stimuli/subj_files/student1_cityA.csv,./stimuli/frankfurt.jpg,./stimuli/street_plate1.png,KORONG UTCA,stimuli/scenes/065a.jpg,scene,1,stimuli/scenes/004a.jpg,stimuli/scenes/004a.jpg,stimuli/scenes/011b.jpg,stimuli/scenes/011a.jpg,stimuli/scenes/004b.jpg,target,dist2,dist1,lure,0,0,0,0,,,,,0,10,10,53,,,,,,,402.7647158894688,,,,,,,,,,,,,,399.5019985269755,399.5019985269755,399.5019985269755,399.5019985269755,399.5019985269755,399.5019985269755,left,None,3.2307936754077673,,,,,,,,,,,,,,student1,2022-10-25_15h08.33.610,Hippopolis_Learning,2022.2.2,59.00494036260012,
Hippopolis,stimuli/subj_files/student1_cityA.csv,./stimuli/frankfurt.jpg,./stimuli/street_plate1.png,LÁNDZSA UTCA,stimuli/scenes/090a.jpg,scene,0,stimuli/scenes/090a.jpg,stimuli/scenes/090a.jpg,stimuli/objects/091b.jpg,stimuli/scenes/090b.jpg,stimuli/objects/091a.jpg,target,dist2,lure,dist1,0,0,0,0,,,,,0,11,11,39,,,,,,,407.79182258434594,,,,,,,,,,,,,,403.7852522637695,403.7852522637695,403.7852522637695,403.7852522637695,403.7852522637695,403.7852522637695,None,None,,,,,,,,,,,,,,,student1,2022-10-25_15h08.33.610,Hippopolis_Learning,2022.2.2,59.00494036260012,
Hippopolis,stimuli/subj_files/student1_cityA.csv,./stimuli/frankfurt.jpg,./stimuli/street_plate1.png,POGÁCSA UTCA,stimuli/scenes/046a.jpg,scene,0,stimuli/scenes/046a.jpg,stimuli/scenes/042a.jpg,stimuli/scenes/046a.jpg,stimuli/scenes/046b.jpg,stimuli/scenes/042b.jpg,dist1,target,lure,dist2,0,0,0,0,,,,,0,12,12,49,,,,,,,410.0638185106218,,,,,,,,,,,,,,408.81846463494,408.81846463494,408.81846463494,408.81846463494,408.81846463494,408.81846463494,left,None,1.21077916957438,,,,,,,,,,,,,,student1,2022-10-25_15h08.33.610,Hippopolis_Learning,2022.2.2,59.00494036260012,
Hippopolis,stimuli/subj_files/student1_cityA.csv,./stimuli/frankfurt.jpg,./stimuli/street_plate1.png,HAJÓ UTCA,stimuli/objects/086a.jpg,object,1,stimuli/objects/041a.jpg,stimuli/scenes/014a.jpg,stimuli/scenes/014b.jpg,stimuli/objects/041a.jpg,stimuli/objects/041b.jpg,dist1,dist2,target,lure,0,0,0,0,,,,,0,13,13,71,,,,,,,413.7944841776043,,,,,,,,,,,,,,411.08731784299016,411.08731784299016,411.08731784299016,411.08731784299016,411.08731784299016,411.08731784299016,left,None,2.653502056375146,,,,,,,,,,,,,,student1,2022-10-25_15h08.33.610,Hippopolis_Learning,2022.2.2,59.00494036260012,
Hippopolis,stimuli/subj_files/student1_cityA.csv,./stimuli/frankfurt.jpg,./stimuli/street_plate1.png,PADLÓ UTCA,stimuli/objects/100a.jpg,object,0,stimuli/objects/100a.jpg,stimuli/scenes/058a.jpg,stimuli/scenes/058b.jpg,stimuli/objects/100a.jpg,stimuli/objects/100b.jpg,dist1,dist2,target,lure,0,0,0,0,,,,,0,14,14,59,,,,,,,417.48245270736516,,,,,,,,,,,,,,414.82460016943514,414.82460016943514,414.82460016943514,414.82460016943514,414.82460016943514,414.82460016943514,left,None,2.6121954303234816,,,,,,,,,,,,,,student1,2022-10-25_15h08.33.610,Hippopolis_Learning,2022.2.2,59.00494036260012,
Hippopolis,stimuli/subj_files/student1_cityA.csv,./stimuli/frankfurt.jpg,./stimuli/street_plate1.png,LIGET UTCA,stimuli/objects/038a.jpg,object,2,stimuli/scenes/109a.jpg,stimuli/scenes/109a.jpg,stimuli/objects/055a.jpg,stimuli/scenes/109b.jpg,stimuli/objects/055b.jpg,target,dist1,lure,dist2,0,0,0,0,,,,,0,15,15,62,,,,,,,421.60662543028593,,,,,,422.62660074979067,,,,,,,,418.5037833917886,418.5037833917886,418.5037833917886,418.5037833917886,418.5037833917886,418.5037833917886,left,None,3.0609297584742308,,,,,,,,,,,,,,student1,2022-10-25_15h08.33.610,Hippopolis_Learning,2022.2.2,59.00494036260012,
Hippopolis,stimuli/subj_files/student1_cityA.csv,./stimuli/frankfurt.jpg,./stimuli/street_plate1.png,MÁLNA UTCA,stimuli/objects/069a.jpg,object,2,stimuli/scenes/053a.jpg,stimuli/objects/073a.jpg,stimuli/objects/073b.jpg,stimuli/scenes/053b.jpg,stimuli/scenes/053a.jpg,dist1,dist2,lure,target,0,0,0,0,,,,,0,16,16,14,,,,,,,424.5659884028137,,,,,,,,,,,,,,422.62660074979067,422.62660074979067,422.62660074979067,422.62660074979067,422.62660074979067,422.62660074979067,right,None,1.8980868142098188,,,,,,,,,,,,,,student1,2022-10-25_15h08.33.610,Hippopolis_Learning,2022.2.2,59.00494036260012,
Hippopolis,stimuli/subj_files/student1_cityA.csv,./stimuli/frankfurt.jpg,./stimuli/street_plate1.png,PETÁRDA UTCA,stimuli/objects/009a.jpg,object,0,stimuli/objects/009a.jpg,stimuli/objects/009a.jpg,stimuli/scenes/051a.jpg,stimuli/objects/009b.jpg,stimuli/scenes/051b.jpg,target,dist1,lure,dist2,0,0,0,0,,,,,0,17,17,64,,,,,,,429.6054383199662,,,,,,,,,,,,,,425.5960736069828,425.5960736069828,425.5960736069828,425.5960736069828,425.5960736069828,425.5960736069828,None,None,,,,,,,,,,,,,,,student1,2022-10-25_15h08.33.610,Hippopolis_Learning,2022.2.2,59.00494036260012,
Hippopolis,stimuli/subj_files/student1_cityA.csv,./stimuli/frankfurt.jpg,./stimuli/street_plate1.png,PÉKSÉG UTCA,stimuli/scenes/073a.jpg,scene,2,stimuli/objects/059a.jpg,stimuli/objects/059a.jpg,stimuli/objects/046b.jpg,stimuli/objects/059b.jpg,stimuli/objects/046a.jpg,target,dist2,lure,dist1,0,0,0,0,,,,,0,18,18,61,,,,,,,431.7065225504339,,,,,,,,,,,,,,430.6309178285301,430.6309178285301,430.6309178285301,430.6309178285301,430.6309178285301,430.6309178285301,left,None,1.0295333545655012,,,,,,,,,,,,,,student1,2022-10-25_15h08.33.610,Hippopolis_Learning,2022.2.2,59.00494036260012,
Hippopolis,stimuli/subj_files/student1_cityA.csv,./stimuli/frankfurt.jpg,./stimuli/street_plate1.png,MOCSÁR UTCA,stimuli/objects/080a.jpg,object,0,stimuli/objects/080a.jpg,stimuli/objects/080b.jpg,stimuli/objects/080a.jpg,stimuli/scenes/043b.jpg,stimuli/scenes/043a.jpg,lure,target,dist2,dist1,0,0,0,0,,,,,0,19,19,17,,,,,,,436.7282967288047,,,,,,,,,,,,,,432.724093478173,432.724093478173,432.724093478173,432.724093478173,432.724093478173,432.724093478173,None,None,,,,,,,,,,,,,,,student1,2022-10-25_15h08.33.610,Hippopolis_Learning,2022.2.2,59.00494036260012,
Hippopolis,stimuli/subj_files/student1_cityA.csv,./stimuli/frankfurt.jpg,./stimuli/street_plate1.png,BAGOLY UTCA,stimuli/scenes/029a.jpg,scene,2,stimuli/objects/028a.jpg,stimuli/objects/028b.jpg,stimuli/objects/028a.jpg,stimuli/scenes/028a.jpg,stimuli/scenes/028b.jpg,lure,target,dist1,dist2,0,0,0,0,,,,,0,20,20,21,,,,,,,440.5761660877615,,,,,,,,,,,,,,437.76433677226305,437.76433677226305,437.76433677226305,437.76433677226305,437.76433677226305,437.76433677226305,right,None,2.776302929967642,,,,,,,,,,,,,,student1,2022-10-25_15h08.33.610,Hippopolis_Learning,2022.2.2,59.00494036260012,
Hippopolis,stimuli/subj_files/student1_cityA.csv,./stimuli/frankfurt.jpg,./stimuli/street_plate1.png,KIRAKÓ UTCA,stimuli/objects/079a.jpg,object,2,stimuli/scenes/070a.jpg,stimuli/scenes/070a.jpg,stimuli/scenes/070b.jpg,stimuli/objects/043b.jpg,stimuli/objects/043a.jpg,target,lure,dist2,dist1,0,0,0,0,,,,,0,21,21,57,,,,,,,443.5130047313869,,,,,,,,,,,,,,441.6016785632819,441.6016785632819,441.6016785632819,441.6016785632819,441.6016785632819,441.6016785632819,right,None,1.8675099071115255,,,,,,,,,,,,,,student1,2022-10-25_15h08.33.610,Hippopolis_Learning,2022.2.2,59.00494036260012,
Hippopolis,stimuli/subj_files/student1_cityA.csv,./stimuli/frankfurt.jpg,./stimuli/street_plate1.png,ÜVEG UTCA,stimuli/scenes/061a.jpg,scene,2,stimuli/objects/085a.jpg,stimuli/objects/085b.jpg,stimuli/scenes/084a.jpg,stimuli/objects/085a.jpg,stimuli/scenes/084b.jpg,lure,dist1,target,dist2,0,0,0,0,,,,,0,22,22,19,,,,,,,445.88345284201205,,,,,,,,,,,,,,444.5409041829407,444.5409041829407,444.5409041829407,444.5409041829407,444.5409041829407,444.5409041829407,left,None,1.2952198944985867,,,,,,,,,,,,,,student1,2022-10-25_15h08.33.610,Hippopolis_Learning,2022.2.2,59.00494036260012,
Hippopolis,stimuli/subj_files/student1_cityA.csv,./stimuli/frankfurt.jpg,./stimuli/street_plate1.png,SIVATAG UTCA,stimuli/scenes/016a.jpg,scene,2,stimuli/objects/046a.jpg,stimuli/objects/046b.jpg,stimuli/objects/006a.jpg,stimuli/objects/006b.jpg,stimuli/objects/046a.jpg,lure,dist1,dist2,target,0,0,0,0,,,,,0,23,23,23,,,,,,,449.7279378287494,,,,,,,,,,,,,,446.91277048178017,446.91277048178017,446.91277048178017,446.91277048178017,446.91277048178017,446.91277048178017,left,None,2.763578414916992,,,,,,,,,,,,,,student1,2022-10-25_15h08.33.610,Hippopolis_Learning,2022.2.2,59.00494036260012,
Hippopolis,stimuli/subj_files/student1_cityA.csv,./stimuli/frankfurt.jpg,./stimuli/street_plate1.png,TOBOZ UTCA,stimuli/objects/001a.jpg,object,2,stimuli/scenes/059a.jpg,stimuli/scenes/059a.jpg,stimuli/objects/085a.jpg,stimuli/objects/085b.jpg,stimuli/scenes/059b.jpg,target,dist1,dist2,lure,0,0,0,0,,,,,0,24,24,40,,,,,,,452.08209729008377,,,,,,,,,,,,,,450.7550236862153,450.7550236862153,450.7550236862153,450.7550236862153,450.7550236862153,450.7550236862153,left,None,1.2890206035226583,,,,,,,,,,,,,,student1,2022-10-25_15h08.33.610,Hippopolis_Learning,2022.2.2,59.00494036260012,
Hippopolis,stimuli/subj_files/student1_cityA.csv,./stimuli/frankfurt.jpg,./stimuli/street_plate1.png,TRIATLON UTCA,stimuli/objects/024a.jpg,object,0,stimuli/objects/024a.jpg,stimuli/objects/024b.jpg,stimuli/objects/080a.jpg,stimuli/objects/024a.jpg,stimuli/objects/080b.jpg,lure,dist1,target,dist2,0,0,0,0,,,,,0,25,25,2,,,,,,,456.3731249421835,,,,,,,,,,,,,,453.1053633671254,453.1053633671254,453.1053633671254,453.1053633671254,453.1053633671254,453.1053633671254,left,None,3.2272960990667343,,,,,,,,,,,,,,student1,2022-10-25_15h08.33.610,Hippopolis_Learning,2022.2.2,59.00494036260012,
Hippopolis,stimuli/subj_files/student1_cityA.csv,./stimuli/frankfurt.jpg,./stimuli/street_plate1.png,ÁRNYÉK UTCA,stimuli/objects/020a.jpg,object,1,stimuli/objects/027a.jpg,stimuli/scenes/004a.jpg,stimuli/objects/027b.jpg,stimuli/objects/027a.jpg,stimuli/scenes/004b.jpg,dist1,lure,target,dist2,0,0,0,0,,,,,0,26,26,52,,,,,,,461.3277848754078,,,,,,,,,,,,,,457.3955018520355,457.3955018520355,457.3955018520355,457.3955018520355,457.3955018520355,457.3955018520355,left,None,3.880835600197315,,,,,,,,,,,,,,student1,2022-10-25_15h08.33.610,Hippopolis_Learning,2022.2.2,59.00494036260012,
Hippopolis,stimuli/subj_files/student1_cityA.csv,./stimuli/frankfurt.jpg,./stimuli/street_plate1.png,CITROM UTCA,stimuli/scenes/036a.jpg,scene,2,stimuli/objects/043a.jpg,stimuli/objects/043b.jpg,stimuli/objects/067a.jpg,stimuli/objects/043a.jpg,stimuli/objects/067b.jpg,lure,dist1,target,dist2,0,0,0,0,,,,,0,27,27,26,,,,,,,464.15522328950465,,,,,,,,,,,,,,462.3511109761894,462.3511109761894,462.3511109761894,462.3511109761894,462.3511109761894,462.3511109761894,right,None,1.7577601075172424,,,,,,,,,,,,,,student1,2022-10-25_15h08.33.610,Hippopolis_Learning,2022.2.2,59.00494036260012,
Hippopolis,stimuli/subj_files/student1_cityA.csv,./stimuli/frankfurt.jpg,./stimuli/street_plate1.png,PIZSAMA UTCA,stimuli/scenes/060a.jpg,scene,2,stimuli/objects/006a.jpg,stimuli/scenes/007b.jpg,stimuli/scenes/007a.jpg,stimuli/objects/006b.jpg,stimuli/objects/006a.jpg,dist2,dist1,lure,target,0,0,0,0,,,,,0,28,28,79,,,,,,,467.36905822344124,,,,,,,,,,,,,,465.1865251492709,465.1865251492709,465.1865251492709,465.1865251492709,465.1865251492709,465.1865251492709,right,None,2.137501709163189,,,,,,,,,,,,,,student1,2022-10-25_15h08.33.610,Hippopolis_Learning,2022.2.2,59.00494036260012,
Hippopolis,stimuli/subj_files/student1_cityA.csv,./stimuli/frankfurt.jpg,./stimuli/street_plate1.png,HEGESZTŐ UTCA,stimuli/scenes/043a.jpg,scene,0,stimuli/scenes/043a.jpg,stimuli/scenes/043b.jpg,stimuli/scenes/043a.jpg,stimuli/objects/062a.jpg,stimuli/objects/062b.jpg,lure,target,dist1,dist2,0,0,0,0,,,,,0,29,29,77,,,,,,,469.7867653090507,,,,,,,,,,,,,,468.3918046075851,468.3918046075851,468.3918046075851,468.3918046075851,468.3918046075851,468.3918046075851,left,None,1.3481454066932201,,,,,,,,,,,,,,student1,2022-10-25_15h08.33.610,Hippopolis_Learning,2022.2.2,59.00494036260012,
Hippopolis,stimuli/subj_files/student1_cityA.csv,./stimuli/frankfurt.jpg,./stimuli/street_plate1.png,RÁDIÓ UTCA,stimuli/scenes/068a.jpg,scene,1,stimuli/scenes/067a.jpg,stimuli/scenes/018b.jpg,stimuli/scenes/067a.jpg,stimuli/scenes/067b.jpg,stimuli/scenes/018a.jpg,dist2,target,lure,dist1,0,0,0,0,,,,,0,30,30,44,,,,,,,472.1305035687983,,,,,,,,,,,,,,470.8158322777599,470.8158322777599,470.8158322777599,470.8158322777599,470.8158322777599,470.8158322777599,left,None,1.27638472430408,,,,,,,,,,,,,,student1,2022-10-25_15h08.33.610,Hippopolis_Learning,2022.2.2,59.00494036260012,
Hippopolis,stimuli/subj_files/student1_cityA.csv,./stimuli/frankfurt.jpg,./stimuli/street_plate1.png,HORDÓ UTCA,stimuli/scenes/095a.jpg,scene,0,stimuli/scenes/095a.jpg,stimuli/scenes/095a.jpg,stimuli/scenes/046a.jpg,stimuli/scenes/095b.jpg,stimuli/scenes/046b.jpg,target,dist1,lure,dist2,0,0,0,0,,,,,0,31,31,27,,,,,,,475.91281682252884,,,,,,,,,,,,,,473.15151018463075,473.15151018463075,473.15151018463075,473.15151018463075,473.15151018463075,473.15151018463075,left,None,2.7011883556842804,,,,,,,,,,,,,,student1,2022-10-25_15h08.33.610,Hippopolis_Learning,2022.2.2,59.00494036260012,
Hippopolis,stimuli/subj_files/student1_cityA.csv,./stimuli/frankfurt.jpg,./stimuli/street_plate1.png,KOKTÉL UTCA,stimuli/scenes/008a.jpg,scene,2,stimuli/objects/012a.jpg,stimuli/objects/036b.jpg,stimuli/objects/012b.jpg,stimuli/objects/036a.jpg,stimuli/objects/012a.jpg,dist2,lure,dist1,target,0,0,0,0,,,,,0,32,32,46,,,,,,,500.88684436678886,,,,,,,,,,,,,,476.9441342316568,476.9441342316568,476.9441342316568,476.9441342316568,476.9441342316568,476.9441342316568,right,space,2.2682198733091354,479.24964731931686,479.24964731931686,479.24964731931686,479.24964731931686,479.24964731931686,21.61010266840458,,,,,,,,student1,2022-10-25_15h08.33.610,Hippopolis_Learning,2022.2.2,59.00494036260012,
Hippopolis,stimuli/subj_files/student1_cityA.csv,./stimuli/frankfurt.jpg,./stimuli/street_plate1.png,KULLANCS UTCA,stimuli/objects/089a.jpg,object,0,stimuli/objects/089a.jpg,stimuli/scenes/072a.jpg,stimuli/objects/089a.jpg,stimuli/scenes/072b.jpg,stimuli/objects/089b.jpg,dist1,target,dist2,lure,0,0,0,0,,,,,0,33,33,34,,,,,,,503.39603802748024,,,,,,,,,,,,,,501.9006751328707,501.9006751328707,501.9006751328707,501.9006751328707,501.9006751328707,501.9006751328707,left,None,1.455258496105671,,,,,,,,,,,,,,student1,2022-10-25_15h08.33.610,Hippopolis_Learning,2022.2.2,59.00494036260012,
Hippopolis,stimuli/subj_files/student1_cityA.csv,./stimuli/frankfurt.jpg,./stimuli/street_plate1.png,PAPUCS UTCA,stimuli/scenes/051a.jpg,scene,0,stimuli/scenes/051a.jpg,stimuli/scenes/051b.jpg,stimuli/scenes/051a.jpg,stimuli/scenes/090a.jpg,stimuli/scenes/090b.jpg,lure,target,dist1,dist2,0,0,0,0,,,,,0,34,34,68,,,,,,,506.0778722688556,,,,,,,,,,,,,,504.41216495260596,504.41216495260596,504.41216495260596,504.41216495260596,504.41216495260596,504.41216495260596,left,None,1.615579491481185,,,,,,,,,,,,,,student1,2022-10-25_15h08.33.610,Hippopolis_Learning,2022.2.2,59.00494036260012,
Hippopolis,stimuli/subj_files/student1_cityA.csv,./stimuli/frankfurt.jpg,./stimuli/street_plate1.png,PÁFRÁNY UTCA,stimuli/scenes/101a.jpg,scene,0,stimuli/scenes/101a.jpg,stimuli/scenes/101a.jpg,stimuli/scenes/101b.jpg,stimuli/objects/051a.jpg,stimuli/objects/051b.jpg,target,lure,dist1,dist2,0,0,0,0,,,,,0,35,35,0,,,,,,,509.6944122724235,,,,,,,,,,,,,,507.0951940808445,507.0951940808445,507.0951940808445,507.0951940808445,507.0951940808445,507.0951940808445,right,None,2.5645629353821278,,,,,,,,,,,,,,student1,2022-10-25_15h08.33.610,Hippopolis_Learning,2022.2.2,59.00494036260012,
Hippopolis,stimuli/subj_files/student1_cityA.csv,./stimuli/frankfurt.jpg,./stimuli/street_plate1.png,SZOMSZÉD UTCA,stimuli/objects/026a.jpg,object,1,stimuli/objects/004a.jpg,stimuli/objects/027b.jpg,stimuli/objects/004b.jpg,stimuli/objects/004a.jpg,stimuli/objects/027a.jpg,dist2,lure,target,dist1,0,0,0,0,,,,,0,36,36,65,,,,,,,512.4280352983624,,,,,,,,,,,,,,510.725622696802,510.725622696802,510.725622696802,510.725622696802,510.725622696802,510.725622696802,left,None,1.6703371442854404,,,,,,,,,,,,,,student1,2022-10-25_15h08.33.610,Hippopolis_Learning,2022.2.2,59.00494036260012,
Hippopolis,stimuli/subj_files/student1_cityA.csv,./stimuli/frankfurt.jpg,./stimuli/street_plate1.png,FÓKA UTCA,stimuli/scenes/058a.jpg,scene,0,stimuli/scenes/058a.jpg,stimuli/scenes/058a.jpg,stimuli/scenes/058b.jpg,stimuli/objects/111b.jpg,stimuli/objects/111a.jpg,target,lure,dist2,dist1,0,0,0,0,,,,,0,37,37,51,,,,,,,515.7494059782475,,,,,,,,,,,,,,513.4454706273973,513.4454706273973,513.4454706273973,513.4454706273973,513.4454706273973,513.4454706273973,left,None,2.2622569482773542,,,,,,,,,,,,,,student1,2022-10-25_15h08.33.610,Hippopolis_Learning,2022.2.2,59.00494036260012,
Hippopolis,stimuli/subj_files/student1_cityA.csv,./stimuli/frankfurt.jpg,./stimuli/street_plate1.png,ÁLOM UTCA,stimuli/objects/070a.jpg,object,0,stimuli/objects/070a.jpg,stimuli/objects/070b.jpg,stimuli/objects/114b.jpg,stimuli/objects/114a.jpg,stimuli/objects/070a.jpg,lure,dist2,dist1,target,0,0,0,0,,,,,0,38,38,50,,,,,,,520.7715325281024,,,,,,,,,,,,,,516.7721085101366,516.7721085101366,516.7721085101366,516.7721085101366,516.7721085101366,516.7721085101366,None,None,,,,,,,,,,,,,,,student1,2022-10-25_15h08.33.610,Hippopolis_Learning,2022.2.2,59.00494036260012,
Hippopolis,stimuli/subj_files/student1_cityA.csv,./stimuli/frankfurt.jpg,./stimuli/street_plate1.png,HERNYÓ UTCA,stimuli/scenes/066a.jpg,scene,1,stimuli/scenes/037a.jpg,stimuli/scenes/037a.jpg,stimuli/objects/045b.jpg,stimuli/scenes/037b.jpg,stimuli/objects/045a.jpg,target,dist2,lure,dist1,0,0,0,0,,,,,0,39,39,5,,,,,,,523.0245747920126,,,,,,,,,,,,,,521.7992867380381,521.7992867380381,521.7992867380381,521.7992867380381,521.7992867380381,521.7992867380381,left,None,1.1886560413986444,,,,,,,,,,,,,,student1,2022-10-25_15h08.33.610,Hippopolis_Learning,2022.2.2,59.00494036260012,
Hippopolis,stimuli/subj_files/student1_cityA.csv,./stimuli/frankfurt.jpg,./stimuli/street_plate1.png,KAKAS UTCA,stimuli/objects/002a.jpg,object,2,stimuli/scenes/074a.jpg,stimuli/scenes/074b.jpg,stimuli/scenes/074a.jpg,stimuli/scenes/070a.jpg,stimuli/scenes/070b.jpg,lure,target,dist1,dist2,0,0,0,0,,,,,0,40,40,24,,,,,,,527.2435400858521,,,,,,,,,,,,,,524.0554449744523,524.0554449744523,524.0554449744523,524.0554449744523,524.0554449744523,524.0554449744523,left,None,3.155677856877446,,,,,,,,,,,,,,student1,2022-10-25_15h08.33.610,Hippopolis_Learning,2022.2.2,59.00494036260012,
Hippopolis,stimuli/subj_files/student1_cityA.csv,./stimuli/frankfurt.jpg,./stimuli/street_plate1.png,MUNKA UTCA,stimuli/scenes/039a.jpg,scene,2,stimuli/objects/067a.jpg,stimuli/scenes/097a.jpg,stimuli/objects/067b.jpg,stimuli/objects/067a.jpg,stimuli/scenes/097b.jpg,dist1,lure,target,dist2,0,0,0,0,,,,,0,41,41,4,,,,,,,531.7805016413331,,,,,,,,,,,,,,528.268277535215,528.268277535215,528.268277535215,528.268277535215,528.268277535215,528.268277535215,left,None,3.471847265958786,,,,,,,,,,,,,,student1,2022-10-25_15h08.33.610,Hippopolis_Learning,2022.2.2,59.00494036260012,
Hippopolis,stimuli/subj_files/student1_cityA.csv,./stimuli/frankfurt.jpg,./stimuli/street_plate1.png,KÖNYVTÁR UTCA,stimuli/objects/113a.jpg,object,1,stimuli/objects/109a.jpg,stimuli/objects/109a.jpg,stimuli/objects/109b.jpg,stimuli/scenes/067a.jpg,stimuli/scenes/067b.jpg,target,lure,dist1,dist2,0,0,0,0,,,,,0,42,42,42,,,,,,,536.2722736559808,,,,,,,,,,,,,,532.8061254564673,532.8061254564673,532.8061254564673,532.8061254564673,532.8061254564673,532.8061254564673,left,None,3.429034436121583,,,,,,,,,,,,,,student1,2022-10-25_15h08.33.610,Hippopolis_Learning,2022.2.2,59.00494036260012,
Hippopolis,stimuli/subj_files/student1_cityA.csv,./stimuli/frankfurt.jpg,./stimuli/street_plate1.png,KÖTÉL UTCA,stimuli/objects/051a.jpg,object,0,stimuli/objects/051a.jpg,stimuli/scenes/024b.jpg,stimuli/objects/051b.jpg,stimuli/scenes/024a.jpg,stimuli/objects/051a.jpg,dist2,lure,dist1,target,0,0,0,0,,,,,0,43,43,7,,,,,,,540.230879638344,,,,,,541.2548675611615,,,,,,,,537.3011250961572,537.3011250961572,537.3011250961572,537.3011250961572,537.3011250961572,537.3011250961572,left,None,2.902684109285474,,,,,,,,,,,,,,student1,2022-10-25_15h08.33.610,Hippopolis_Learning,2022.2.2,59.00494036260012,
Hippopolis,stimuli/subj_files/student1_cityA.csv,./stimuli/frankfurt.jpg,./stimuli/street_plate1.png,HEGEDŰ UTCA,stimuli/scenes/113a.jpg,scene,2,stimuli/objects/036a.jpg,stimuli/objects/036b.jpg,stimuli/scenes/059b.jpg,stimuli/scenes/059a.jpg,stimuli/objects/036a.jpg,lure,dist2,dist1,target,0,0,0,0,,,,,0,44,44,69,,,,,,,545.022792102769,,,,,,,,,,,,,,541.2548675611615,541.2548675611615,541.2548675611615,541.2548675611615,541.2548675611615,541.2548675611615,left,None,3.7322899270802736,,,,,,,,,,,,,,student1,2022-10-25_15h08.33.610,Hippopolis_Learning,2022.2.2,59.00494036260012,
Hippopolis,stimuli/subj_files/student1_cityA.csv,./stimuli/frankfurt.jpg,./stimuli/street_plate1.png,MARTINI UTCA,stimuli/objects/060a.jpg,object,1,stimuli/objects/011a.jpg,stimuli/objects/075b.jpg,stimuli/objects/075a.jpg,stimuli/objects/011b.jpg,stimuli/objects/011a.jpg,dist2,dist1,lure,target,0,0,0,0,,,,,0,45,45,60,,,,,,,549.606666482985,,,,,,,,,,,,,,546.055624736473,546.055624736473,546.055624736473,546.055624736473,546.055624736473,546.055624736473,left,None,3.523930571973324,,,,,,,,,,,,,,student1,2022-10-25_15h08.33.610,Hippopolis_Learning,2022.2.2,59.00494036260012,
Hippopolis,stimuli/subj_files/student1_cityA.csv,./stimuli/frankfurt.jpg,./stimuli/street_plate1.png,KÖTÉNY UTCA,stimuli/scenes/031a.jpg,scene,1,stimuli/scenes/064a.jpg,stimuli/objects/103a.jpg,stimuli/objects/103b.jpg,stimuli/scenes/064b.jpg,stimuli/scenes/064a.jpg,dist1,dist2,lure,target,0,0,0,0,,,,,0,46,46,22,,,,,,,554.6085626892745,,,,,,,,,,,,,,550.639203350991,550.639203350991,550.639203350991,550.639203350991,550.639203350991,550.639203350991,left,None,3.931522799655795,,,,,,,,,,,,,,student1,2022-10-25_15h08.33.610,Hippopolis_Learning,2022.2.2,59.00494036260012,
Hippopolis,stimuli/subj_files/student1_cityA.csv,./stimuli/frankfurt.jpg,./stimuli/street_plate1.png,MUSTÁR UTCA,stimuli/scenes/050a.jpg,scene,0,stimuli/scenes/050a.jpg,stimuli/objects/009a.jpg,stimuli/objects/009b.jpg,stimuli/scenes/050a.jpg,stimuli/scenes/050b.jpg,dist1,dist2,target,lure,0,0,0,0,,,,,0,47,47,78,,,,,,,559.1115663889796,,,,,,,,,,,,,,555.633887629956,555.633887629956,555.633887629956,555.633887629956,555.633887629956,555.633887629956,right,None,3.4505912233144045,,,,,,,,,,,,,,student1,2022-10-25_15h08.33.610,Hippopolis_Learning,2022.2.2,59.00494036260012,
Hippopolis,stimuli/subj_files/student1_cityA.csv,./stimuli/frankfurt.jpg,./stimuli/street_plate1.png,TOLLTARTÓ UTCA,stimuli/objects/032a.jpg,object,2,stimuli/scenes/119a.jpg,stimuli/scenes/119a.jpg,stimuli/scenes/104b.jpg,stimuli/scenes/104a.jpg,stimuli/scenes/119b.jpg,target,dist2,dist1,lure,0,0,0,0,,,,,0,48,48,67,,,,,,,562.0111327841878,,,,,,,,,,,,,,560.1359057500958,560.1359057500958,560.1359057500958,560.1359057500958,560.1359057500958,560.1359057500958,left,None,1.827132260426879,,,,,,,,,,,,,,student1,2022-10-25_15h08.33.610,Hippopolis_Learning,2022.2.2,59.00494036260012,
Hippopolis,stimuli/subj_files/student1_cityA.csv,./stimuli/frankfurt.jpg,./stimuli/street_plate1.png,MOGYORÓ UTCA,stimuli/objects/106a.jpg,object,1,stimuli/objects/103a.jpg,stimuli/scenes/116a.jpg,stimuli/objects/103b.jpg,stimuli/objects/103a.jpg,stimuli/scenes/116b.jpg,dist1,lure,target,dist2,0,0,0,0,,,,,0,49,49,54,,,,,,,564.9596273265779,,,,,,,,,,,,,,563.0341789796948,563.0341789796948,563.0341789796948,563.0341789796948,563.0341789796948,563.0341789796948,left,None,1.872484765946865,,,,,,,,,,,,,,student1,2022-10-25_15h08.33.610,Hippopolis_Learning,2022.2.2,59.00494036260012,
Hippopolis,stimuli/subj_files/student1_cityA.csv,./stimuli/frankfurt.jpg,./stimuli/street_plate1.png,LÉTRA UTCA,stimuli/objects/047a.jpg,object,1,stimuli/objects/015a.jpg,stimuli/objects/108b.jpg,stimuli/objects/015b.jpg,stimuli/objects/108a.jpg,stimuli/objects/015a.jpg,dist2,lure,dist1,target,0,0,0,0,,,,,0,50,50,33,,,,,,,569.2298732213676,,,,,,570.2468423526734,,,,,,,,565.9838768057525,565.9838768057525,565.9838768057525,565.9838768057525,565.9838768057525,565.9838768057525,left,None,3.210876515135169,,,,,,,,,,,,,,student1,2022-10-25_15h08.33.610,Hippopolis_Learning,2022.2.2,59.00494036260012,
Hippopolis,stimuli/subj_files/student1_cityA.csv,./stimuli/frankfurt.jpg,./stimuli/street_plate1.png,TERASZ UTCA,stimuli/objects/063a.jpg,object,2,stimuli/scenes/104a.jpg,stimuli/scenes/104a.jpg,stimuli/scenes/056a.jpg,stimuli/scenes/104b.jpg,stimuli/scenes/056b.jpg,target,dist1,lure,dist2,0,0,0,0,,,,,0,51,51,48,,,,,,,574.2551726587117,,,,,,,,,,,,,,570.2468423526734,570.2468423526734,570.2468423526734,570.2468423526734,570.2468423526734,570.2468423526734,None,None,,,,,,,,,,,,,,,student1,2022-10-25_15h08.33.610,Hippopolis_Learning,2022.2.2,59.00494036260012,
Hippopolis,stimuli/subj_files/student1_cityA.csv,./stimuli/frankfurt.jpg,./stimuli/street_plate1.png,KÖMÉNYMAG UTCA,stimuli/objects/068a.jpg,object,1,stimuli/objects/045a.jpg,stimuli/objects/045a.jpg,stimuli/objects/045b.jpg,stimuli/objects/071a.jpg,stimuli/objects/071b.jpg,target,lure,dist1,dist2,0,0,0,0,,,,,0,52,52,18,,,,,,,576.8117157965899,,,,,,,,,,,,,,575.2856117859483,575.2856117859483,575.2856117859483,575.2856117859483,575.2856117859483,575.2856117859483,left,None,1.4770460482686758,,,,,,,,,,,,,,student1,2022-10-25_15h08.33.610,Hippopolis_Learning,2022.2.2,59.00494036260012,
Hippopolis,stimuli/subj_files/student1_cityA.csv,./stimuli/frankfurt.jpg,./stimuli/street_plate1.png,RÓZSA UTCA,stimuli/objects/091a.jpg,object,0,stimuli/objects/091a.jpg,stimuli/objects/091b.jpg,stimuli/objects/078b.jpg,stimuli/objects/078a.jpg,stimuli/objects/091a.jpg,lure,dist2,dist1,target,0,0,0,0,,,,,0,53,53,45,,,,,,,580.3209150545299,,,,,,581.3380104545504,,,,,,,,577.8425259571522,577.8425259571522,577.8425259571522,577.8425259571522,577.8425259571522,577.8425259571522,right,None,2.4401535391807556,,,,,,,,,,,,,,student1,2022-10-25_15h08.33.610,Hippopolis_Learning,2022.2.2,59.00494036260012,
Hippopolis,stimuli/subj_files/student1_cityA.csv,./stimuli/frankfurt.jpg,./stimuli/street_plate1.png,EGÉR UTCA,stimuli/scenes/071a.jpg,scene,1,stimuli/scenes/116a.jpg,stimuli/scenes/116b.jpg,stimuli/scenes/116a.jpg,stimuli/scenes/009b.jpg,stimuli/scenes/009a.jpg,lure,target,dist2,dist1,0,0,0,0,,,,,0,54,54,29,,,,,,,582.6498366594315,,,,,,,,,,,,,,581.3380104545504,581.3380104545504,581.3380104545504,581.3380104545504,581.3380104545504,581.3380104545504,left,None,1.2650448102504015,,,,,,,,,,,,,,student1,2022-10-25_15h08.33.610,Hippopolis_Learning,2022.2.2,59.00494036260012,
Hippopolis,stimuli/subj_files/student1_cityA.csv,./stimuli/frankfurt.jpg,./stimuli/street_plate1.png,KECSKE UTCA,stimuli/scenes/085a.jpg,scene,2,stimuli/objects/022a.jpg,stimuli/objects/022b.jpg,stimuli/objects/022a.jpg,stimuli/scenes/053a.jpg,stimuli/scenes/053b.jpg,lure,target,dist1,dist2,0,0,0,0,,,,,0,55,55,6,,,,,,,586.0224932264537,,,,,,,,,,,,,,583.6821268983185,583.6821268983185,583.6821268983185,583.6821268983185,583.6821268983185,583.6821268983185,left,None,2.312857687473297,,,,,,,,,,,,,,student1,2022-10-25_15h08.33.610,Hippopolis_Learning,2022.2.2,59.00494036260012,
Hippopolis,stimuli/subj_files/student1_cityA.csv,./stimuli/frankfurt.jpg,./stimuli/street_plate1.png,DOMINÓ UTCA,stimuli/scenes/042a.jpg,scene,0,stimuli/scenes/042a.jpg,stimuli/scenes/042a.jpg,stimuli/scenes/042b.jpg,stimuli/objects/070a.jpg,stimuli/objects/070b.jpg,target,lure,dist1,dist2,0,0,0,0,,,,,0,56,56,63,,,,,,,589.3741792533547,,,,,,,,,,,,,,587.0555998571217,587.0555998571217,587.0555998571217,587.0555998571217,587.0555998571217,587.0555998571217,right,None,2.283643612638116,,,,,,,,,,,,,,student1,2022-10-25_15h08.33.610,Hippopolis_Learning,2022.2.2,59.00494036260012,
Hippopolis,stimuli/subj_files/student1_cityA.csv,./stimuli/frankfurt.jpg,./stimuli/street_plate1.png,LAKAT UTCA,stimuli/objects/066a.jpg,object,2,stimuli/scenes/084a.jpg,stimuli/scenes/084b.jpg,stimuli/scenes/034a.jpg,stimuli/scenes/084a.jpg,stimuli/scenes/034b.jpg,lure,dist1,target,dist2,0,0,0,0,,,,,0,57,57,58,,,,,,,591.8153390213847,,,,,,,,,,,,,,590.4026770796627,590.4026770796627,590.4026770796627,590.4026770796627,590.4026770796627,590.4026770796627,left,None,1.3685209900140762,,,,,,,,,,,,,,student1,2022-10-25_15h08.33.610,Hippopolis_Learning,2022.2.2,59.00494036260012,
Hippopolis,stimuli/subj_files/student1_cityA.csv,./stimuli/frankfurt.jpg,./stimuli/street_plate1.png,KORONA UTCA,stimuli/scenes/108a.jpg,scene,1,stimuli/scenes/011a.jpg,stimuli/objects/076a.jpg,stimuli/scenes/011b.jpg,stimuli/objects/076b.jpg,stimuli/scenes/011a.jpg,dist1,lure,dist2,target,0,0,0,0,,,,,0,58,58,9,,,,,,,594.4062465000898,,,,,,,,,,,,,,592.8320242036134,592.8320242036134,592.8320242036134,592.8320242036134,592.8320242036134,592.8320242036134,left,None,1.546723298728466,,,,,,,,,,,,,,student1,2022-10-25_15h08.33.610,Hippopolis_Learning,2022.2.2,59.00494036260012,
Hippopolis,stimuli/subj_files/student1_cityA.csv,./stimuli/frankfurt.jpg,./stimuli/street_plate1.png,BOLYGÓ UTCA,stimuli/scenes/118a.jpg,scene,1,stimuli/scenes/087a.jpg,stimuli/objects/011a.jpg,stimuli/scenes/087b.jpg,stimuli/objects/011b.jpg,stimuli/scenes/087a.jpg,dist1,lure,dist2,target,0,0,0,0,,,,,0,59,59,31,,,,,,,598.4617564771324,,,,,,,,,,,,,,595.4324027597904,595.4324027597904,595.4324027597904,595.4324027597904,595.4324027597904,595.4324027597904,left,None,2.9938456807285547,,,,,,,,,,,,,,student1,2022-10-25_15h08.33.610,Hippopolis_Learning,2022.2.2,59.00494036260012,
Hippopolis,stimuli/subj_files/student1_cityA.csv,./stimuli/frankfurt.jpg,./stimuli/street_plate1.png,SZIKLA UTCA,stimuli/scenes/111a.jpg,scene,2,stimuli/objects/073a.jpg,stimuli/objects/120b.jpg,stimuli/objects/120a.jpg,stimuli/objects/073a.jpg,stimuli/objects/073b.jpg,dist2,dist1,target,lure,0,0,0,0,,,,,0,60,60,1,,,,,,,600.55558119528,,,,,,,,,,,,,,599.4922826867551,599.4922826867551,599.4922826867551,599.4922826867551,599.4922826867551,599.4922826867551,left,None,1.0301743373274803,,,,,,,,,,,,,,student1,2022-10-25_15h08.33.610,Hippopolis_Learning,2022.2.2,59.00494036260012,
Hippopolis,stimuli/subj_files/student1_cityA.csv,./stimuli/frankfurt.jpg,./stimuli/street_plate1.png,CSAVAR UTCA,stimuli/objects/078a.jpg,object,0,stimuli/objects/078a.jpg,stimuli/objects/078b.jpg,stimuli/objects/024b.jpg,stimuli/objects/078a.jpg,stimuli/objects/024a.jpg,lure,dist2,target,dist1,0,0,0,0,,,,,0,61,61,10,,,,,,,605.1201815772802,,,,,,,,,,,,,,601.5834246650338,601.5834246650338,601.5834246650338,601.5834246650338,601.5834246650338,601.5834246650338,left,None,3.499102933332324,,,,,,,,,,,,,,student1,2022-10-25_15h08.33.610,Hippopolis_Learning,2022.2.2,59.00494036260012,
Hippopolis,stimuli/subj_files/student1_cityA.csv,./stimuli/frankfurt.jpg,./stimuli/street_plate1.png,FÉNYKÉP UTCA,stimuli/scenes/010a.jpg,scene,1,stimuli/scenes/078a.jpg,stimuli/scenes/088a.jpg,stimuli/scenes/078a.jpg,stimuli/scenes/088b.jpg,stimuli/scenes/078b.jpg,dist1,target,dist2,lure,0,0,0,0,,,,,0,62,62,32,,,,,,,609.3432291410863,,,,,,610.3596608527005,,,,,,,,606.1499386690557,606.1499386690557,606.1499386690557,606.1499386690557,606.1499386690557,606.1499386690557,left,None,3.1566111873835325,,,,,,,,,,,,,,student1,2022-10-25_15h08.33.610,Hippopolis_Learning,2022.2.2,59.00494036260012,
Hippopolis,stimuli/subj_files/student1_cityA.csv,./stimuli/frankfurt.jpg,./stimuli/street_plate1.png,AJÁNDÉK UTCA,stimuli/scenes/005a.jpg,scene,1,stimuli/scenes/009a.jpg,stimuli/scenes/078b.jpg,stimuli/scenes/078a.jpg,stimuli/scenes/009a.jpg,stimuli/scenes/009b.jpg,dist2,dist1,target,lure,0,0,0,0,,,,,0,63,63,28,,,,,,,614.2274915333837,,,,,,,,,,,,,,610.3596608527005,610.3596608527005,610.3596608527005,610.3596608527005,610.3596608527005,610.3596608527005,left,None,3.8267052471637726,,,,,,,,,,,,,,student1,2022-10-25_15h08.33.610,Hippopolis_Learning,2022.2.2,59.00494036260012,
Hippopolis,stimuli/subj_files/student1_cityA.csv,./stimuli/frankfurt.jpg,./stimuli/street_plate1.png,PAPAGÁJ UTCA,stimuli/objects/093a.jpg,object,2,stimuli/scenes/097a.jpg,stimuli/scenes/097a.jpg,stimuli/scenes/109b.jpg,stimuli/scenes/109a.jpg,stimuli/scenes/097b.jpg,target,dist2,dist1,lure,0,0,0,0,,,,,0,64,64,55,,,,,,,619.0120319034904,,,,,,,,,,,,,,615.2537921015173,615.2537921015173,615.2537921015173,615.2537921015173,615.2537921015173,615.2537921015173,left,None,3.732716316357255,,,,,,,,,,,,,,student1,2022-10-25_15h08.33.610,Hippopolis_Learning,2022.2.2,59.00494036260012,
Hippopolis,stimuli/subj_files/student1_cityA.csv,./stimuli/frankfurt.jpg,./stimuli/street_plate1.png,OROSZLÁN UTCA,stimuli/scenes/072a.jpg,scene,0,stimuli/scenes/072a.jpg,stimuli/scenes/072a.jpg,stimuli/scenes/072b.jpg,stimuli/scenes/027b.jpg,stimuli/scenes/027a.jpg,target,lure,dist2,dist1,0,0,0,0,,,,,0,65,65,66,,,,,,,623.0315705686808,,,,,,,,,,,,,,620.0328127294779,620.0328127294779,620.0328127294779,620.0328127294779,620.0328127294779,620.0328127294779,left,None,2.9534431509673595,,,,,,,,,,,,,,student1,2022-10-25_15h08.33.610,Hippopolis_Learning,2022.2.2,59.00494036260012,
Hippopolis,stimuli/subj_files/student1_cityA.csv,./stimuli/frankfurt.jpg,./stimuli/street_plate1.png,NARANCS UTCA,stimuli/objects/017a.jpg,object,1,stimuli/objects/075a.jpg,stimuli/objects/075a.jpg,stimuli/scenes/041b.jpg,stimuli/scenes/041a.jpg,stimuli/objects/075b.jpg,target,dist2,dist1,lure,0,0,0,0,,,,,0,66,66,76,,,,,,,627.0444620959461,,,,,,,,,,,,,,624.0633249450475,624.0633249450475,624.0633249450475,624.0633249450475,624.0633249450475,624.0633249450475,left,None,2.9387863520532846,,,,,,,,,,,,,,student1,2022-10-25_15h08.33.610,Hippopolis_Learning,2022.2.2,59.00494036260012,
Hippopolis,stimuli/subj_files/student1_cityA.csv,./stimuli/frankfurt.jpg,./stimuli/street_plate1.png,TOJÁS UTCA,stimuli/objects/021a.jpg,object,2,stimuli/scenes/034a.jpg,stimuli/scenes/034a.jpg,stimuli/objects/059a.jpg,stimuli/objects/059b.jpg,stimuli/scenes/034b.jpg,target,dist1,dist2,lure,0,0,0,0,,,,,0,67,67,37,,,,,,,632.0651085656136,,,,,,,,,,,,,,628.0729232225567,628.0729232225567,628.0729232225567,628.0729232225567,628.0729232225567,628.0729232225567,None,None,,,,,,,,,,,,,,,student1,2022-10-25_15h08.33.610,Hippopolis_Learning,2022.2.2,59.00494036260012,
Hippopolis,stimuli/subj_files/student1_cityA.csv,./stimuli/frankfurt.jpg,./stimuli/street_plate1.png,VÖDÖR UTCA,stimuli/scenes/055a.jpg,scene,1,stimuli/scenes/088a.jpg,stimuli/scenes/088b.jpg,stimuli/scenes/088a.jpg,stimuli/scenes/087b.jpg,stimuli/scenes/087a.jpg,lure,target,dist2,dist1,0,0,0,0,,,,,0,68,68,56,,,,,,,636.1608434859663,,,,,,,,,,,,,,633.0961264781654,633.0961264781654,633.0961264781654,633.0961264781654,633.0961264781654,633.0961264781654,left,None,3.0266263764351606,,,,,,,,,,,,,,student1,2022-10-25_15h08.33.610,Hippopolis_Learning,2022.2.2,59.00494036260012,
Hippopolis,stimuli/subj_files/student1_cityA.csv,./stimuli/frankfurt.jpg,./stimuli/street_plate1.png,KARTON UTCA,stimuli/objects/101a.jpg,object,2,stimuli/scenes/044a.jpg,stimuli/scenes/074a.jpg,stimuli/scenes/044b.jpg,stimuli/scenes/044a.jpg,stimuli/scenes/074b.jpg,dist1,lure,target,dist2,0,0,0,0,,,,,0,69,69,8,,,,,,,640.139294475317,,,,,,,,,,,,,,637.1840196829289,637.1840196829289,637.1840196829289,637.1840196829289,637.1840196829289,637.1840196829289,left,None,2.922016266733408,,,,,,,,,,,,,,student1,2022-10-25_15h08.33.610,Hippopolis_Learning,2022.2.2,59.00494036260012,
Hippopolis,stimuli/subj_files/student1_cityA.csv,./stimuli/frankfurt.jpg,./stimuli/street_plate1.png,HÁRFA UTCA,stimuli/objects/083a.jpg,object,2,stimuli/scenes/028a.jpg,stimuli/scenes/028b.jpg,stimuli/objects/012b.jpg,stimuli/objects/012a.jpg,stimuli/scenes/028a.jpg,lure,dist2,dist1,target,0,0,0,0,,,,,0,70,70,16,,,,,,,643.8055930137634,,,,,,,,,,,,,,641.1686562784016,641.1686562784016,641.1686562784016,641.1686562784016,641.1686562784016,641.1686562784016,left,None,2.601987889036536,,,,,,,,,,,,,,student1,2022-10-25_15h08.33.610,Hippopolis_Learning,2022.2.2,59.00494036260012,
Hippopolis,stimuli/subj_files/student1_cityA.csv,./stimuli/frankfurt.jpg,./stimuli/street_plate1.png,HARMONIKA UTCA,stimuli/scenes/024a.jpg,scene,0,stimuli/scenes/024a.jpg,stimuli/scenes/101b.jpg,stimuli/scenes/024b.jpg,stimuli/scenes/101a.jpg,stimuli/scenes/024a.jpg,dist2,lure,dist1,target,0,0,0,0,,,,,0,71,71,25,,,,,,,647.8442501761019,,,,,,,,,,,,,,644.8385886158794,644.8385886158794,644.8385886158794,644.8385886158794,644.8385886158794,644.8385886158794,left,None,2.963755501434207,,,,,,,,,,,,,,student1,2022-10-25_15h08.33.610,Hippopolis_Learning,2022.2.2,59.00494036260012,
Hippopolis,stimuli/subj_files/student1_cityA.csv,./stimuli/frankfurt.jpg,./stimuli/street_plate1.png,TELEP UTCA,stimuli/scenes/048a.jpg,scene,2,stimuli/objects/120a.jpg,stimuli/objects/120a.jpg,stimuli/objects/120b.jpg,stimuli/scenes/119b.jpg,stimuli/scenes/119a.jpg,target,lure,dist2,dist1,0,0,0,0,,,,,0,72,72,75,,,,,,,650.5736170783639,,,,,,,,,,,,,,648.8747602142394,648.8747602142394,648.8747602142394,648.8747602142394,648.8747602142394,648.8747602142394,right,None,1.6637462954968214,,,,,,,,,,,,,,student1,2022-10-25_15h08.33.610,Hippopolis_Learning,2022.2.2,59.00494036260012,
Hippopolis,stimuli/subj_files/student1_cityA.csv,./stimuli/frankfurt.jpg,./stimuli/street_plate1.png,ZSEMLE UTCA,stimuli/objects/115a.jpg,object,1,stimuli/objects/053a.jpg,stimuli/objects/007a.jpg,stimuli/objects/053a.jpg,stimuli/objects/007b.jpg,stimuli/objects/053b.jpg,dist1,target,dist2,lure,0,0,0,0,,,,,0,73,73,47,,,,,,,653.3300113696605,,,,,,,,,,,,,,651.5984425414354,651.5984425414354,651.5984425414354,651.5984425414354,651.5984425414354,651.5984425414354,left,None,1.691449811682105,,,,,,,,,,,,,,student1,2022-10-25_15h08.33.610,Hippopolis_Learning,2022.2.2,59.00494036260012,
Hippopolis,stimuli/subj_files/student1_cityA.csv,./stimuli/frankfurt.jpg,./stimuli/street_plate1.png,OLDAL UTCA,stimuli/scenes/093a.jpg,scene,2,stimuli/objects/107a.jpg,stimuli/objects/107b.jpg,stimuli/objects/022a.jpg,stimuli/objects/107a.jpg,stimuli/objects/022b.jpg,lure,dist1,target,dist2,0,0,0,0,,,,,0,74,74,11,,,,,,,656.178956810385,,,,,,,,,,,,,,654.3461998756975,654.3461998756975,654.3461998756975,654.3461998756975,654.3461998756975,654.3461998756975,left,None,1.7919773403555155,,,,,,,,,,,,,,student1,2022-10-25_15h08.33.610,Hippopolis_Learning,2022.2.2,59.00494036260012,
Hippopolis,stimuli/subj_files/student1_cityA.csv,./stimuli/frankfurt.jpg,./stimuli/street_plate1.png,TALICSKA UTCA,stimuli/objects/014a.jpg,object,1,stimuli/objects/108a.jpg,stimuli/objects/109a.jpg,stimuli/objects/109b.jpg,stimuli/objects/108a.jpg,stimuli/objects/108b.jpg,dist1,dist2,target,lure,0,0,0,0,,,,,0,75,75,13,,,,,,,659.3268216885626,,,,,,,,,,,,,,657.2002361770719,657.2002361770719,657.2002361770719,657.2002361770719,657.2002361770719,657.2002361770719,right,None,2.0734322164207697,,,,,,,,,,,,,,student1,2022-10-25_15h08.33.610,Hippopolis_Learning,2022.2.2,59.00494036260012,
Hippopolis,stimuli/subj_files/student1_cityA.csv,./stimuli/frankfurt.jpg,./stimuli/street_plate1.png,AKÁC UTCA,stimuli/scenes/081a.jpg,scene,2,stimuli/objects/055a.jpg,stimuli/objects/055b.jpg,stimuli/objects/107b.jpg,stimuli/objects/107a.jpg,stimuli/objects/055a.jpg,lure,dist2,dist1,target,0,0,0,0,,,,,0,76,76,74,,,,,,,661.753998298198,,,,,,,,,,,,,,660.3535769470036,660.3535769470036,660.3535769470036,660.3535769470036,660.3535769470036,660.3535769470036,left,None,1.35234927944839,,,,,,,,,,,,,,student1,2022-10-25_15h08.33.610,Hippopolis_Learning,2022.2.2,59.00494036260012,
Hippopolis,stimuli/subj_files/student1_cityA.csv,./stimuli/frankfurt.jpg,./stimuli/street_plate1.png,FIÓK UTCA,stimuli/scenes/002a.jpg,scene,1,stimuli/scenes/014a.jpg,stimuli/scenes/014a.jpg,stimuli/objects/004a.jpg,stimuli/objects/004b.jpg,stimuli/scenes/014b.jpg,target,dist1,dist2,lure,0,0,0,0,,,,,0,77,77,73,,,,,,,664.2864188477397,,,,,,,,,,,,,,662.7869497369975,662.7869497369975,662.7869497369975,662.7869497369975,662.7869497369975,662.7869497369975,left,None,1.4630824830383062,,,,,,,,,,,,,,student1,2022-10-25_15h08.33.610,Hippopolis_Learning,2022.2.2,59.00494036260012,
Hippopolis,stimuli/subj_files/student1_cityA.csv,./stimuli/frankfurt.jpg,./stimuli/street_plate1.png,KOCKA UTCA,stimuli/objects/062a.jpg,object,0,stimuli/objects/062a.jpg,stimuli/scenes/095b.jpg,stimuli/objects/062a.jpg,stimuli/objects/062b.jpg,stimuli/scenes/095a.jpg,dist2,target,lure,dist1,0,0,0,0,,,,,0,78,78,35,,,,,,,666.8531082589179,,,,,,,,,,,,,,665.312042042613,665.312042042613,665.312042042613,665.312042042613,665.312042042613,665.312042042613,left,None,1.5144604295492172,,,,,,,,,,,,,,student1,2022-10-25_15h08.33.610,Hippopolis_Learning,2022.2.2,59.00494036260012,
Hippopolis,stimuli/subj_files/student1_cityA.csv,./stimuli/frankfurt.jpg,./stimuli/street_plate1.png,FOGAS UTCA,stimuli/scenes/025a.jpg,scene,1,stimuli/scenes/018a.jpg,stimuli/scenes/018b.jpg,stimuli/scenes/064a.jpg,stimuli/scenes/018a.jpg,stimuli/scenes/064b.jpg,lure,dist1,target,dist2,0,0,0,0,,,,,0,79,79,38,,,,,,,669.6833535078913,,,,,,,,,,,,,,667.8801132552326,667.8801132552326,667.8801132552326,667.8801132552326,667.8801132552326,667.8801132552326,left,None,1.7620619479566813,,,,,,,,,,,,,,student1,2022-10-25_15h08.33.610,Hippopolis_Learning,2022.2.2,59.00494036260012,
Camponello,stimuli/subj_files/student1_cityB.csv,./stimuli/leipzig.jpg,./stimuli/street_plate2.png,HORGONY UTCA,stimuli/objects/039a.jpg,object,0,stimuli/objects/039a.jpg,stimuli/objects/039b.jpg,stimuli/objects/039a.jpg,stimuli/objects/092b.jpg,stimuli/objects/092a.jpg,lure,target,dist2,dist1,0,1,1,1,0,0,0,26,,,,,,,,,680.4009715206921,680.4009715206921,683.3947629015893,684.4147152043879,684.4147152043879,684.4147152043879,684.4147152043879,None,,,,,,,,,,,,,,,,,,,,,,,,13,670.6865525189787,670.6865525189787,space,9.642779177054763,,,student1,2022-10-25_15h08.33.610,Hippopolis_Learning,2022.2.2,59.00494036260012,
Camponello,stimuli/subj_files/student1_cityB.csv,./stimuli/leipzig.jpg,./stimuli/street_plate2.png,SZŐLŐ UTCA,stimuli/scenes/099a.jpg,scene,0,stimuli/scenes/099a.jpg,stimuli/objects/105a.jpg,stimuli/scenes/099a.jpg,stimuli/scenes/099b.jpg,stimuli/objects/105b.jpg,dist1,target,lure,dist2,0,1,1,1,0,1,1,55,,,,,,,,,,,687.362725822255,688.4240052774549,688.4240052774549,688.4240052774549,688.4240052774549,None,,,,,,,,,,,,,,,,,,,,,,,,,,,,,,,student1,2022-10-25_15h08.33.610,Hippopolis_Learning,2022.2.2,59.00494036260012,
Camponello,stimuli/subj_files/student1_cityB.csv,./stimuli/leipzig.jpg,./stimuli/street_plate2.png,VIHAR UTCA,stimuli/objects/048a.jpg,object,2,stimuli/scenes/054a.jpg,stimuli/scenes/054b.jpg,stimuli/scenes/100b.jpg,stimuli/scenes/054a.jpg,stimuli/scenes/100a.jpg,lure,dist2,target,dist1,0,1,1,1,0,2,2,65,,,,,,,,,,,691.3767179995775,692.4069216959178,692.4069216959178,692.4069216959178,692.4069216959178,None,,,,,,,,,,,,,,,,,,,,,,,,,,,,,,,student1,2022-10-25_15h08.33.610,Hippopolis_Learning,2022.2.2,59.00494036260012,
Camponello,stimuli/subj_files/student1_cityB.csv,./stimuli/leipzig.jpg,./stimuli/street_plate2.png,KOSÁR UTCA,stimuli/objects/057a.jpg,object,2,stimuli/scenes/001a.jpg,stimuli/scenes/001a.jpg,stimuli/scenes/001b.jpg,stimuli/objects/005b.jpg,stimuli/objects/005a.jpg,target,lure,dist2,dist1,0,1,1,1,0,3,3,38,,,,,,,,,,,695.3804183527827,696.4419640302658,696.4419640302658,696.4419640302658,696.4419640302658,None,,,,,,,,,,,,,,,,,,,,,,,,,,,,,,,student1,2022-10-25_15h08.33.610,Hippopolis_Learning,2022.2.2,59.00494036260012,
Camponello,stimuli/subj_files/student1_cityB.csv,./stimuli/leipzig.jpg,./stimuli/street_plate2.png,ASZTAL UTCA,stimuli/scenes/120a.jpg,scene,2,stimuli/objects/035a.jpg,stimuli/scenes/079b.jpg,stimuli/scenes/079a.jpg,stimuli/objects/035b.jpg,stimuli/objects/035a.jpg,dist2,dist1,lure,target,0,1,1,1,0,4,4,24,,,,,,,,,,,699.3859828785062,700.4478687979281,700.4478687979281,700.4478687979281,700.4478687979281,None,,,,,,,,,,,,,,,,,,,,,,,,,,,,,,,student1,2022-10-25_15h08.33.610,Hippopolis_Learning,2022.2.2,59.00494036260012,
Camponello,stimuli/subj_files/student1_cityB.csv,./stimuli/leipzig.jpg,./stimuli/street_plate2.png,LEVÉL UTCA,stimuli/scenes/019a.jpg,scene,0,stimuli/scenes/019a.jpg,stimuli/objects/052a.jpg,stimuli/scenes/019a.jpg,stimuli/scenes/019b.jpg,stimuli/objects/052b.jpg,dist1,target,lure,dist2,0,1,1,1,0,5,5,8,,,,,,,,,,,703.3943228274584,704.4379100613296,704.4379100613296,704.4379100613296,704.4379100613296,None,,,,,,,,,,,,,,,,,,,,,,,,,,,,,,,student1,2022-10-25_15h08.33.610,Hippopolis_Learning,2022.2.2,59.00494036260012,
Camponello,stimuli/subj_files/student1_cityB.csv,./stimuli/leipzig.jpg,./stimuli/street_plate2.png,HENTES UTCA,stimuli/scenes/092a.jpg,scene,0,stimuli/scenes/092a.jpg,stimuli/scenes/114b.jpg,stimuli/scenes/114a.jpg,stimuli/scenes/092a.jpg,stimuli/scenes/092b.jpg,dist2,dist1,target,lure,0,1,1,1,0,6,6,46,,,,,,,,,,,707.4123117476702,708.4697182402015,708.4697182402015,708.4697182402015,708.4697182402015,None,,,,,,,,,,,,,,,,,,,,,,,,,,,,,,,student1,2022-10-25_15h08.33.610,Hippopolis_Learning,2022.2.2,59.00494036260012,
Camponello,stimuli/subj_files/student1_cityB.csv,./stimuli/leipzig.jpg,./stimuli/street_plate2.png,KAKAÓ UTCA,stimuli/objects/099a.jpg,object,1,stimuli/objects/119a.jpg,stimuli/scenes/086a.jpg,stimuli/objects/119a.jpg,stimuli/scenes/086b.jpg,stimuli/objects/119b.jpg,dist1,target,dist2,lure,0,1,1,1,0,7,7,0,,,,,,,,,,,711.4148847032338,712.4602518286556,712.4602518286556,712.4602518286556,712.4602518286556,None,,,,,,,,,,,,,,,,,,,,,,,,,,,,,,,student1,2022-10-25_15h08.33.610,Hippopolis_Learning,2022.2.2,59.00494036260012,
Camponello,stimuli/subj_files/student1_cityB.csv,./stimuli/leipzig.jpg,./stimuli/street_plate2.png,FOLYÓ UTCA,stimuli/scenes/035a.jpg,scene,0,stimuli/scenes/035a.jpg,stimuli/objects/034a.jpg,stimuli/scenes/035a.jpg,stimuli/objects/034b.jpg,stimuli/scenes/035b.jpg,dist1,target,dist2,lure,0,1,1,1,0,8,8,61,,,,,,,,,,,715.4375897254795,716.469706421718,716.469706421718,716.469706421718,716.469706421718,None,,,,,,,,,,,,,,,,,,,,,,,,,,,,,,,student1,2022-10-25_15h08.33.610,Hippopolis_Learning,2022.2.2,59.00494036260012,
Camponello,stimuli/subj_files/student1_cityB.csv,./stimuli/leipzig.jpg,./stimuli/street_plate2.png,KUTYA UTCA,stimuli/scenes/030a.jpg,scene,0,stimuli/scenes/030a.jpg,stimuli/scenes/030b.jpg,stimuli/scenes/052b.jpg,stimuli/scenes/052a.jpg,stimuli/scenes/030a.jpg,lure,dist2,dist1,target,0,1,1,1,0,9,9,35,,,,,,,,,,,719.444666987285,720.4830361567438,720.4830361567438,720.4830361567438,720.4830361567438,None,,,,,,,,,,,,,,,,,,,,,,,,,,,,,,,student1,2022-10-25_15h08.33.610,Hippopolis_Learning,2022.2.2,59.00494036260012,
Camponello,stimuli/subj_files/student1_cityB.csv,./stimuli/leipzig.jpg,./stimuli/street_plate2.png,SÜTEMÉNY UTCA,stimuli/objects/074a.jpg,object,2,stimuli/scenes/102a.jpg,stimuli/objects/061b.jpg,stimuli/objects/061a.jpg,stimuli/scenes/102a.jpg,stimuli/scenes/102b.jpg,dist2,dist1,target,lure,0,1,1,1,0,10,10,32,,,,,,,,,,,723.4620705936104,724.5078725051135,724.5078725051135,724.5078725051135,724.5078725051135,None,,,,,,,,,,,,,,,,,,,,,,,,,,,,,,,student1,2022-10-25_15h08.33.610,Hippopolis_Learning,2022.2.2,59.00494036260012,
Camponello,stimuli/subj_files/student1_cityB.csv,./stimuli/leipzig.jpg,./stimuli/street_plate2.png,ECSET UTCA,stimuli/scenes/003a.jpg,scene,2,stimuli/objects/005a.jpg,stimuli/objects/035b.jpg,stimuli/objects/005b.jpg,stimuli/objects/035a.jpg,stimuli/objects/005a.jpg,dist2,lure,dist1,target,0,1,1,1,0,11,11,11,,,,,,,,,,,727.4659653268754,728.5187847856432,728.5187847856432,728.5187847856432,728.5187847856432,None,,,,,,,,,,,,,,,,,,,,,,,,,,,,,,,student1,2022-10-25_15h08.33.610,Hippopolis_Learning,2022.2.2,59.00494036260012,
Camponello,stimuli/subj_files/student1_cityB.csv,./stimuli/leipzig.jpg,./stimuli/street_plate2.png,TOLMÁCS UTCA,stimuli/scenes/082a.jpg,scene,0,stimuli/scenes/082a.jpg,stimuli/scenes/082b.jpg,stimuli/objects/081b.jpg,stimuli/objects/081a.jpg,stimuli/scenes/082a.jpg,lure,dist2,dist1,target,0,1,1,1,0,12,12,2,,,,,,,,,,,731.478637592867,732.5020986702293,732.5020986702293,732.5020986702293,732.5020986702293,None,,,,,,,,,,,,,,,,,,,,,,,,,,,,,,,student1,2022-10-25_15h08.33.610,Hippopolis_Learning,2022.2.2,59.00494036260012,
Camponello,stimuli/subj_files/student1_cityB.csv,./stimuli/leipzig.jpg,./stimuli/street_plate2.png,KALAPÁCS UTCA,stimuli/scenes/049a.jpg,scene,0,stimuli/scenes/049a.jpg,stimuli/objects/112b.jpg,stimuli/scenes/049a.jpg,stimuli/objects/112a.jpg,stimuli/scenes/049b.jpg,dist2,target,dist1,lure,0,1,1,1,0,13,13,3,,,,,,,,,,,735.4801901374012,736.5053875632584,736.5053875632584,736.5053875632584,736.5053875632584,None,,,,,,,,,,,,,,,,,,,,,,,,,,,,,,,student1,2022-10-25_15h08.33.610,Hippopolis_Learning,2022.2.2,59.00494036260012,
Camponello,stimuli/subj_files/student1_cityB.csv,./stimuli/leipzig.jpg,./stimuli/street_plate2.png,KANÁL UTCA,stimuli/scenes/057a.jpg,scene,1,stimuli/scenes/020a.jpg,stimuli/scenes/020b.jpg,stimuli/scenes/020a.jpg,stimuli/scenes/062a.jpg,stimuli/scenes/062b.jpg,lure,target,dist1,dist2,0,1,1,1,0,14,14,14,,,,,,,,,,,739.4940566681325,740.5299906563014,740.5299906563014,740.5299906563014,740.5299906563014,None,,,,,,,,,,,,,,,,,,,,,,,,,,,,,,,student1,2022-10-25_15h08.33.610,Hippopolis_Learning,2022.2.2,59.00494036260012,
Camponello,stimuli/subj_files/student1_cityB.csv,./stimuli/leipzig.jpg,./stimuli/street_plate2.png,RIBIZLI UTCA,stimuli/objects/088a.jpg,object,0,stimuli/objects/088a.jpg,stimuli/objects/088b.jpg,stimuli/objects/065a.jpg,stimuli/objects/088a.jpg,stimuli/objects/065b.jpg,lure,dist1,target,dist2,0,1,1,1,0,15,15,34,,,,,,,,,,,743.4972625207156,744.5366769842803,744.5366769842803,744.5366769842803,744.5366769842803,None,744.5366769842803,,,,,,,,,,,,,,,,,,,,,,,,,,,,,,student1,2022-10-25_15h08.33.610,Hippopolis_Learning,2022.2.2,59.00494036260012,
Camponello,stimuli/subj_files/student1_cityB.csv,./stimuli/leipzig.jpg,./stimuli/street_plate2.png,MAJOM UTCA,stimuli/objects/018a.jpg,object,0,stimuli/objects/018a.jpg,stimuli/objects/018a.jpg,stimuli/scenes/092b.jpg,stimuli/objects/018b.jpg,stimuli/scenes/092a.jpg,target,dist2,lure,dist1,0,1,1,1,0,16,16,78,,,,,,,,,,,747.510841993615,748.5685874838382,748.5685874838382,748.5685874838382,748.5685874838382,None,,,,,,,,,,,,,,,,,,,,,,,,,,,,,,,student1,2022-10-25_15h08.33.610,Hippopolis_Learning,2022.2.2,59.00494036260012,
