CityName,StimuliFile,CityImage,StreetSign,Cue,Image,Category,Novelty,UpdateImage,TestImage1,TestImage2,TestImage3,TestImage4,TestImage1Type,TestImage2Type,TestImage3Type,TestImage4Type,CityBlock.thisRepN,CityBlock.thisTrialN,CityBlock.thisN,CityBlock.thisIndex,LearningTrials.thisRepN,LearningTrials.thisTrialN,LearningTrials.thisN,LearningTrials.thisIndex,learning_instructions_text.started,intro_key.started,intro_key.keys,intro_key.rt,cityname_text.started,city_image.started,fx_cross.started,plate_updating.started,city_text_updating.started,street_text_updating.started,test_image1.started,test_image2.started,test_image3.started,test_image4.started,button_d.started,button_f.started,button_j.started,button_k.started,key_resp.started,key_resp.keys,key_resp.rt,test_resp,short_break_key.keys,fx_cross.stopped,clock0.started,short_break_text.started,short_break_key.started,short_break_key.rt,n_targets,n_lures,n_dist1s,n_dist2s,break_text.started,break_key_resp.started,break_key_resp.keys,break_key_resp.rt,end_text.started,end_text.stopped,participant,date,expName,psychopyVersion,frameRate,
,,,,,,,,,,,,,,,,,,,,,,,,,17.24055170000065,17.24055170000065,space,20.898708599968813,,,,,,,,,,,,,,,,,,,,,,,,,,,,,,,,,,,student1,2022-10-25_14h14.23.057,Hippopolis_4AFCT,2022.2.4,60.17415605157809,
Hippopolis,stimuli/subj_files/student1_cityA.csv,./stimuli/frankfurt.jpg,./stimuli/street_plate1.png,BOLYGÓ UTCA,stimuli/scenes/118a.jpg,scene,1,stimuli/scenes/087a.jpg,stimuli/objects/011a.jpg,stimuli/scenes/087b.jpg,stimuli/objects/011b.jpg,stimuli/scenes/087a.jpg,dist1,lure,dist2,target,0,0,0,0,0,0,0,31,,,,,38.2526552999625,38.2526552999625,41.190347100025974,42.24298640002962,42.24298640002962,42.24298640002962,42.24298640002962,42.24298640002962,42.24298640002962,42.24298640002962,42.24298640002962,42.24298640002962,42.24298640002962,42.24298640002962,42.24298640002962,k,2.3807297999737784,target,None,,,,,,,,,,,,,,,,student1,2022-10-25_14h14.23.057,Hippopolis_4AFCT,2022.2.4,60.17415605157809,
Hippopolis,stimuli/subj_files/student1_cityA.csv,./stimuli/frankfurt.jpg,./stimuli/street_plate1.png,FÉNYKÉP UTCA,stimuli/scenes/010a.jpg,scene,1,stimuli/scenes/078a.jpg,stimuli/scenes/088a.jpg,stimuli/scenes/078a.jpg,stimuli/scenes/088b.jpg,stimuli/scenes/078b.jpg,dist1,target,dist2,lure,0,0,0,0,0,1,1,32,,,,,,,44.651667100028135,45.66562500002328,45.66562500002328,45.66562500002328,45.66562500002328,45.66562500002328,45.66562500002328,45.66562500002328,45.66562500002328,45.66562500002328,45.66562500002328,45.66562500002328,45.66562500002328,f,3.7390268000308424,target,None,45.66562500002328,49.15272130002268,,,,,,,,,,,,,,student1,2022-10-25_14h14.23.057,Hippopolis_4AFCT,2022.2.4,60.17415605157809,
Hippopolis,stimuli/subj_files/student1_cityA.csv,./stimuli/frankfurt.jpg,./stimuli/street_plate1.png,CSILLAG UTCA,stimuli/scenes/083a.jpg,scene,1,stimuli/scenes/117a.jpg,stimuli/scenes/117a.jpg,stimuli/scenes/117b.jpg,stimuli/objects/041a.jpg,stimuli/objects/041b.jpg,target,lure,dist1,dist2,0,0,0,0,0,2,2,15,,,,,,,49.43456349999178,50.46267230005469,50.46267230005469,50.46267230005469,50.46267230005469,50.46267230005469,50.46267230005469,50.46267230005469,50.46267230005469,50.46267230005469,50.46267230005469,50.46267230005469,50.46267230005469,j,2.1743778999662027,dist1,None,50.46267230005469,,,,,,,,,,,,,,,student1,2022-10-25_14h14.23.057,Hippopolis_4AFCT,2022.2.4,60.17415605157809,
Hippopolis,stimuli/subj_files/student1_cityA.csv,./stimuli/frankfurt.jpg,./stimuli/street_plate1.png,KÖTÉNY UTCA,stimuli/scenes/031a.jpg,scene,1,stimuli/scenes/064a.jpg,stimuli/objects/103a.jpg,stimuli/objects/103b.jpg,stimuli/scenes/064b.jpg,stimuli/scenes/064a.jpg,dist1,dist2,lure,target,0,0,0,0,0,3,3,22,,,,,,,52.668009700020775,53.681195899960585,53.681195899960585,53.681195899960585,53.681195899960585,53.681195899960585,53.681195899960585,53.681195899960585,53.681195899960585,53.681195899960585,53.681195899960585,53.681195899960585,53.681195899960585,d,1.809224999975413,dist1,None,53.681195899960585,,,,,,,,,,,,,,,student1,2022-10-25_14h14.23.057,Hippopolis_4AFCT,2022.2.4,60.17415605157809,
Hippopolis,stimuli/subj_files/student1_cityA.csv,./stimuli/frankfurt.jpg,./stimuli/street_plate1.png,PULÓVER UTCA,stimuli/objects/114a.jpg,object,0,stimuli/objects/114a.jpg,stimuli/scenes/050b.jpg,stimuli/scenes/050a.jpg,stimuli/objects/114b.jpg,stimuli/objects/114a.jpg,dist2,dist1,lure,target,0,0,0,0,0,4,4,43,,,,,,,55.51769799995236,56.543109599966556,56.543109599966556,56.543109599966556,56.543109599966556,56.543109599966556,56.543109599966556,56.543109599966556,56.543109599966556,56.543109599966556,56.543109599966556,56.543109599966556,56.543109599966556,k,2.429078400018625,target,None,56.543109599966556,,,,,,,,,,,,,,,student1,2022-10-25_14h14.23.057,Hippopolis_4AFCT,2022.2.4,60.17415605157809,
Hippopolis,stimuli/subj_files/student1_cityA.csv,./stimuli/frankfurt.jpg,./stimuli/street_plate1.png,KIRAKÓ UTCA,stimuli/objects/079a.jpg,object,2,stimuli/scenes/070a.jpg,stimuli/scenes/070a.jpg,stimuli/scenes/070b.jpg,stimuli/objects/043b.jpg,stimuli/objects/043a.jpg,target,lure,dist2,dist1,0,0,0,0,0,5,5,57,,,,,,,59.001826300052926,60.00832000002265,60.00832000002265,60.00832000002265,60.00832000002265,60.00832000002265,60.00832000002265,60.00832000002265,60.00832000002265,60.00832000002265,60.00832000002265,60.00832000002265,60.00832000002265,d,2.4616584999021143,target,None,60.00832000002265,,,,,,,,,,,,,,,student1,2022-10-25_14h14.23.057,Hippopolis_4AFCT,2022.2.4,60.17415605157809,
Hippopolis,stimuli/subj_files/student1_cityA.csv,./stimuli/frankfurt.jpg,./stimuli/street_plate1.png,TELEP UTCA,stimuli/scenes/048a.jpg,scene,2,stimuli/objects/120a.jpg,stimuli/objects/120a.jpg,stimuli/objects/120b.jpg,stimuli/scenes/119b.jpg,stimuli/scenes/119a.jpg,target,lure,dist2,dist1,0,0,0,0,0,6,6,75,,,,,,,62.500932199996896,63.51727109996136,63.51727109996136,63.51727109996136,63.51727109996136,63.51727109996136,63.51727109996136,63.51727109996136,63.51727109996136,63.51727109996136,63.51727109996136,63.51727109996136,63.51727109996136,k,2.8331815999699757,dist1,None,63.51727109996136,,,,,,,,,,,,,,,student1,2022-10-25_14h14.23.057,Hippopolis_4AFCT,2022.2.4,60.17415605157809,
Hippopolis,stimuli/subj_files/student1_cityA.csv,./stimuli/frankfurt.jpg,./stimuli/street_plate1.png,TERASZ UTCA,stimuli/objects/063a.jpg,object,2,stimuli/scenes/104a.jpg,stimuli/scenes/104a.jpg,stimuli/scenes/056a.jpg,stimuli/scenes/104b.jpg,stimuli/scenes/056b.jpg,target,dist1,lure,dist2,0,0,0,0,0,7,7,48,,,,,,,66.36757949995808,67.37876720004715,67.37876720004715,67.37876720004715,67.37876720004715,67.37876720004715,67.37876720004715,67.37876720004715,67.37876720004715,67.37876720004715,67.37876720004715,67.37876720004715,67.37876720004715,d,2.232529299915768,target,None,67.37876720004715,,,,,,,,,,,,,,,student1,2022-10-25_14h14.23.057,Hippopolis_4AFCT,2022.2.4,60.17415605157809,
Hippopolis,stimuli/subj_files/student1_cityA.csv,./stimuli/frankfurt.jpg,./stimuli/street_plate1.png,ZSEMLE UTCA,stimuli/objects/115a.jpg,object,1,stimuli/objects/053a.jpg,stimuli/objects/007a.jpg,stimuli/objects/053a.jpg,stimuli/objects/007b.jpg,stimuli/objects/053b.jpg,dist1,target,dist2,lure,0,0,0,0,0,8,8,47,,,,,,,69.63411630003247,70.66770370001905,70.66770370001905,70.66770370001905,70.66770370001905,70.66770370001905,70.66770370001905,70.66770370001905,70.66770370001905,70.66770370001905,70.66770370001905,70.66770370001905,70.66770370001905,f,1.8880541000980884,target,None,70.66770370001905,,,,,,,,,,,,,,,student1,2022-10-25_14h14.23.057,Hippopolis_4AFCT,2022.2.4,60.17415605157809,
Hippopolis,stimuli/subj_files/student1_cityA.csv,./stimuli/frankfurt.jpg,./stimuli/street_plate1.png,MOGYORÓ UTCA,stimuli/objects/106a.jpg,object,1,stimuli/objects/103a.jpg,stimuli/scenes/116a.jpg,stimuli/objects/103b.jpg,stimuli/objects/103a.jpg,stimuli/scenes/116b.jpg,dist1,lure,target,dist2,0,0,0,0,0,9,9,54,,,,,,,72.58410229999572,73.61092280002777,73.61092280002777,73.61092280002777,73.61092280002777,73.61092280002777,73.61092280002777,73.61092280002777,73.61092280002777,73.61092280002777,73.61092280002777,73.61092280002777,73.61092280002777,f,3.5863280999474227,lure,None,73.61092280002777,77.08540820004418,,,,,,,,,,,,,,student1,2022-10-25_14h14.23.057,Hippopolis_4AFCT,2022.2.4,60.17415605157809,
Hippopolis,stimuli/subj_files/student1_cityA.csv,./stimuli/frankfurt.jpg,./stimuli/street_plate1.png,HÁRFA UTCA,stimuli/objects/083a.jpg,object,2,stimuli/scenes/028a.jpg,stimuli/scenes/028b.jpg,stimuli/objects/012b.jpg,stimuli/objects/012a.jpg,stimuli/scenes/028a.jpg,lure,dist2,dist1,target,0,0,0,0,0,10,10,16,,,,,,,77.21747589996085,78.23379690002184,78.23379690002184,78.23379690002184,78.23379690002184,78.23379690002184,78.23379690002184,78.23379690002184,78.23379690002184,78.23379690002184,78.23379690002184,78.23379690002184,78.23379690002184,k,3.113177499966696,target,None,78.23379690002184,,,,,,,,,,,,,,,student1,2022-10-25_14h14.23.057,Hippopolis_4AFCT,2022.2.4,60.17415605157809,
Hippopolis,stimuli/subj_files/student1_cityA.csv,./stimuli/frankfurt.jpg,./stimuli/street_plate1.png,HORDÓ UTCA,stimuli/scenes/095a.jpg,scene,0,stimuli/scenes/095a.jpg,stimuli/scenes/095a.jpg,stimuli/scenes/046a.jpg,stimuli/scenes/095b.jpg,stimuli/scenes/046b.jpg,target,dist1,lure,dist2,0,0,0,0,0,11,11,27,,,,,,,81.3673333999468,82.38870819995645,82.38870819995645,82.38870819995645,82.38870819995645,82.38870819995645,82.38870819995645,82.38870819995645,82.38870819995645,82.38870819995645,82.38870819995645,82.38870819995645,82.38870819995645,d,1.0452493999619037,target,None,82.38870819995645,,,,,,,,,,,,,,,student1,2022-10-25_14h14.23.057,Hippopolis_4AFCT,2022.2.4,60.17415605157809,
Hippopolis,stimuli/subj_files/student1_cityA.csv,./stimuli/frankfurt.jpg,./stimuli/street_plate1.png,TALICSKA UTCA,stimuli/objects/014a.jpg,object,1,stimuli/objects/108a.jpg,stimuli/objects/109a.jpg,stimuli/objects/109b.jpg,stimuli/objects/108a.jpg,stimuli/objects/108b.jpg,dist1,dist2,target,lure,0,0,0,0,0,12,12,13,,,,,,,83.45077170000877,84.47185279999394,84.47185279999394,84.47185279999394,84.47185279999394,84.47185279999394,84.47185279999394,84.47185279999394,84.47185279999394,84.47185279999394,84.47185279999394,84.47185279999394,84.47185279999394,j,2.1044364999979734,target,None,84.47185279999394,,,,,,,,,,,,,,,student1,2022-10-25_14h14.23.057,Hippopolis_4AFCT,2022.2.4,60.17415605157809,
Hippopolis,stimuli/subj_files/student1_cityA.csv,./stimuli/frankfurt.jpg,./stimuli/street_plate1.png,KAKAS UTCA,stimuli/objects/002a.jpg,object,2,stimuli/scenes/074a.jpg,stimuli/scenes/074b.jpg,stimuli/scenes/074a.jpg,stimuli/scenes/070a.jpg,stimuli/scenes/070b.jpg,lure,target,dist1,dist2,0,0,0,0,0,13,13,24,,,,,,,86.60055770003237,87.61622820002958,87.61622820002958,87.61622820002958,87.61622820002958,87.61622820002958,87.61622820002958,87.61622820002958,87.61622820002958,87.61622820002958,87.61622820002958,87.61622820002958,87.61622820002958,f,2.1620694999583066,target,None,87.61622820002958,,,,,,,,,,,,,,,student1,2022-10-25_14h14.23.057,Hippopolis_4AFCT,2022.2.4,60.17415605157809,
Hippopolis,stimuli/subj_files/student1_cityA.csv,./stimuli/frankfurt.jpg,./stimuli/street_plate1.png,OLDAL UTCA,stimuli/scenes/093a.jpg,scene,2,stimuli/objects/107a.jpg,stimuli/objects/107b.jpg,stimuli/objects/022a.jpg,stimuli/objects/107a.jpg,stimuli/objects/022b.jpg,lure,dist1,target,dist2,0,0,0,0,0,14,14,11,,,,,,,89.80040910001844,90.83058750000782,90.83058750000782,90.83058750000782,90.83058750000782,90.83058750000782,90.83058750000782,90.83058750000782,90.83058750000782,90.83058750000782,90.83058750000782,90.83058750000782,90.83058750000782,j,3.3052962999790907,target,None,90.83058750000782,,,,,,,,,,,,,,,student1,2022-10-25_14h14.23.057,Hippopolis_4AFCT,2022.2.4,60.17415605157809,
Hippopolis,stimuli/subj_files/student1_cityA.csv,./stimuli/frankfurt.jpg,./stimuli/street_plate1.png,KECSKE UTCA,stimuli/scenes/085a.jpg,scene,2,stimuli/objects/022a.jpg,stimuli/objects/022b.jpg,stimuli/objects/022a.jpg,stimuli/scenes/053a.jpg,stimuli/scenes/053b.jpg,lure,target,dist1,dist2,0,0,0,0,0,15,15,6,,,,,,,94.16718290001154,95.18392810004298,95.18392810004298,95.18392810004298,95.18392810004298,95.18392810004298,95.18392810004298,95.18392810004298,95.18392810004298,95.18392810004298,95.18392810004298,95.18392810004298,95.18392810004298,j,2.429904200020246,dist1,None,95.18392810004298,,,,,,,,,,,,,,,student1,2022-10-25_14h14.23.057,Hippopolis_4AFCT,2022.2.4,60.17415605157809,
Hippopolis,stimuli/subj_files/student1_cityA.csv,./stimuli/frankfurt.jpg,./stimuli/street_plate1.png,LIGET UTCA,stimuli/objects/038a.jpg,object,2,stimuli/scenes/109a.jpg,stimuli/scenes/109a.jpg,stimuli/objects/055a.jpg,stimuli/scenes/109b.jpg,stimuli/objects/055b.jpg,target,dist1,lure,dist2,0,0,0,0,0,16,16,62,,,,,,,97.63384649995714,98.65975570003502,98.65975570003502,98.65975570003502,98.65975570003502,98.65975570003502,98.65975570003502,98.65975570003502,98.65975570003502,98.65975570003502,98.65975570003502,98.65975570003502,98.65975570003502,d,2.286170899984427,target,None,98.65975570003502,,,,,,,,,,,,,,,student1,2022-10-25_14h14.23.057,Hippopolis_4AFCT,2022.2.4,60.17415605157809,
Hippopolis,stimuli/subj_files/student1_cityA.csv,./stimuli/frankfurt.jpg,./stimuli/street_plate1.png,RÁDIÓ UTCA,stimuli/scenes/068a.jpg,scene,1,stimuli/scenes/067a.jpg,stimuli/scenes/018b.jpg,stimuli/scenes/067a.jpg,stimuli/scenes/067b.jpg,stimuli/scenes/018a.jpg,dist2,target,lure,dist1,0,0,0,0,0,17,17,44,,,,,,,100.9671829000581,101.9807804999873,101.9807804999873,101.9807804999873,101.9807804999873,101.9807804999873,101.9807804999873,101.9807804999873,101.9807804999873,101.9807804999873,101.9807804999873,101.9807804999873,101.9807804999873,f,2.6963398000225425,target,None,101.9807804999873,,,,,,,,,,,,,,,student1,2022-10-25_14h14.23.057,Hippopolis_4AFCT,2022.2.4,60.17415605157809,
Hippopolis,stimuli/subj_files/student1_cityA.csv,./stimuli/frankfurt.jpg,./stimuli/street_plate1.png,PIZSAMA UTCA,stimuli/scenes/060a.jpg,scene,2,stimuli/objects/006a.jpg,stimuli/scenes/007b.jpg,stimuli/scenes/007a.jpg,stimuli/objects/006b.jpg,stimuli/objects/006a.jpg,dist2,dist1,lure,target,0,0,0,0,0,18,18,79,,,,,,,104.7003076999681,105.71061830001418,105.71061830001418,105.71061830001418,105.71061830001418,105.71061830001418,105.71061830001418,105.71061830001418,105.71061830001418,105.71061830001418,105.71061830001418,105.71061830001418,105.71061830001418,k,3.20259849994909,target,None,105.71061830001418,,,,,,,,,,,,,,,student1,2022-10-25_14h14.23.057,Hippopolis_4AFCT,2022.2.4,60.17415605157809,
Hippopolis,stimuli/subj_files/student1_cityA.csv,./stimuli/frankfurt.jpg,./stimuli/street_plate1.png,KARTON UTCA,stimuli/objects/101a.jpg,object,2,stimuli/scenes/044a.jpg,stimuli/scenes/074a.jpg,stimuli/scenes/044b.jpg,stimuli/scenes/044a.jpg,stimuli/scenes/074b.jpg,dist1,lure,target,dist2,0,0,0,0,0,19,19,8,,,,,,,108.93385859997943,109.94295789999887,109.94295789999887,109.94295789999887,109.94295789999887,109.94295789999887,109.94295789999887,109.94295789999887,109.94295789999887,109.94295789999887,109.94295789999887,109.94295789999887,109.94295789999887,j,3.16021759994328,target,None,109.94295789999887,,,,,,,,,,,,,,,student1,2022-10-25_14h14.23.057,Hippopolis_4AFCT,2022.2.4,60.17415605157809,
Hippopolis,stimuli/subj_files/student1_cityA.csv,./stimuli/frankfurt.jpg,./stimuli/street_plate1.png,FIÓK UTCA,stimuli/scenes/002a.jpg,scene,1,stimuli/scenes/014a.jpg,stimuli/scenes/014a.jpg,stimuli/objects/004a.jpg,stimuli/objects/004b.jpg,stimuli/scenes/014b.jpg,target,dist1,dist2,lure,0,0,0,0,0,20,20,73,,,,,,,113.13352270005271,114.15990339999553,114.15990339999553,114.15990339999553,114.15990339999553,114.15990339999553,114.15990339999553,114.15990339999553,114.15990339999553,114.15990339999553,114.15990339999553,114.15990339999553,114.15990339999553,d,1.3440089999930933,target,None,114.15990339999553,,,,,,,,,,,,,,,student1,2022-10-25_14h14.23.057,Hippopolis_4AFCT,2022.2.4,60.17415605157809,
Hippopolis,stimuli/subj_files/student1_cityA.csv,./stimuli/frankfurt.jpg,./stimuli/street_plate1.png,DOMINÓ UTCA,stimuli/scenes/042a.jpg,scene,0,stimuli/scenes/042a.jpg,stimuli/scenes/042a.jpg,stimuli/scenes/042b.jpg,stimuli/objects/070a.jpg,stimuli/objects/070b.jpg,target,lure,dist1,dist2,0,0,0,0,0,21,21,63,,,,,,,115.53342260001227,116.54482790001202,116.54482790001202,116.54482790001202,116.54482790001202,116.54482790001202,116.54482790001202,116.54482790001202,116.54482790001202,116.54482790001202,116.54482790001202,116.54482790001202,116.54482790001202,d,1.51955630001612,target,None,116.54482790001202,,,,,,,,,,,,,,,student1,2022-10-25_14h14.23.057,Hippopolis_4AFCT,2022.2.4,60.17415605157809,
Hippopolis,stimuli/subj_files/student1_cityA.csv,./stimuli/frankfurt.jpg,./stimuli/street_plate1.png,MUNKA UTCA,stimuli/scenes/039a.jpg,scene,2,stimuli/objects/067a.jpg,stimuli/scenes/097a.jpg,stimuli/objects/067b.jpg,stimuli/objects/067a.jpg,stimuli/scenes/097b.jpg,dist1,lure,target,dist2,0,0,0,0,0,22,22,4,,,,,,,118.08342779998202,119.10289249999914,119.10289249999914,119.10289249999914,119.10289249999914,119.10289249999914,119.10289249999914,119.10289249999914,119.10289249999914,119.10289249999914,119.10289249999914,119.10289249999914,119.10289249999914,f,2.6796114000026137,lure,None,119.10289249999914,,,,,,,,,,,,,,,student1,2022-10-25_14h14.23.057,Hippopolis_4AFCT,2022.2.4,60.17415605157809,
Hippopolis,stimuli/subj_files/student1_cityA.csv,./stimuli/frankfurt.jpg,./stimuli/street_plate1.png,KÖNYVTÁR UTCA,stimuli/objects/113a.jpg,object,1,stimuli/objects/109a.jpg,stimuli/objects/109a.jpg,stimuli/objects/109b.jpg,stimuli/scenes/067a.jpg,stimuli/scenes/067b.jpg,target,lure,dist1,dist2,0,0,0,0,0,23,23,42,,,,,,,121.79996249999385,122.80879459995776,122.80879459995776,122.80879459995776,122.80879459995776,122.80879459995776,122.80879459995776,122.80879459995776,122.80879459995776,122.80879459995776,122.80879459995776,122.80879459995776,122.80879459995776,d,2.7073195999255404,target,None,122.80879459995776,,,,,,,,,,,,,,,student1,2022-10-25_14h14.23.057,Hippopolis_4AFCT,2022.2.4,60.17415605157809,
Hippopolis,stimuli/subj_files/student1_cityA.csv,./stimuli/frankfurt.jpg,./stimuli/street_plate1.png,PÉKSÉG UTCA,stimuli/scenes/073a.jpg,scene,2,stimuli/objects/059a.jpg,stimuli/objects/059a.jpg,stimuli/objects/046b.jpg,stimuli/objects/059b.jpg,stimuli/objects/046a.jpg,target,dist2,lure,dist1,0,0,0,0,0,24,24,61,,,,,,,125.53339830006007,126.56078629998956,126.56078629998956,126.56078629998956,126.56078629998956,126.56078629998956,126.56078629998956,126.56078629998956,126.56078629998956,126.56078629998956,126.56078629998956,126.56078629998956,126.56078629998956,j,3.408026099903509,lure,None,126.56078629998956,,,,,,,,,,,,,,,student1,2022-10-25_14h14.23.057,Hippopolis_4AFCT,2022.2.4,60.17415605157809,
Hippopolis,stimuli/subj_files/student1_cityA.csv,./stimuli/frankfurt.jpg,./stimuli/street_plate1.png,HAJÓ UTCA,stimuli/objects/086a.jpg,object,1,stimuli/objects/041a.jpg,stimuli/scenes/014a.jpg,stimuli/scenes/014b.jpg,stimuli/objects/041a.jpg,stimuli/objects/041b.jpg,dist1,dist2,target,lure,0,0,0,0,0,25,25,71,,,,,,,130.00003939995077,131.01245599996764,131.01245599996764,131.01245599996764,131.01245599996764,131.01245599996764,131.01245599996764,131.01245599996764,131.01245599996764,131.01245599996764,131.01245599996764,131.01245599996764,131.01245599996764,j,3.482083800015971,target,None,131.01245599996764,134.50069370004348,,,,,,,,,,,,,,student1,2022-10-25_14h14.23.057,Hippopolis_4AFCT,2022.2.4,60.17415605157809,
Hippopolis,stimuli/subj_files/student1_cityA.csv,./stimuli/frankfurt.jpg,./stimuli/street_plate1.png,KORONG UTCA,stimuli/scenes/065a.jpg,scene,1,stimuli/scenes/004a.jpg,stimuli/scenes/004a.jpg,stimuli/scenes/011b.jpg,stimuli/scenes/011a.jpg,stimuli/scenes/004b.jpg,target,dist2,dist1,lure,0,0,0,0,0,26,26,53,,,,,,,134.51682899997104,135.5229845000431,135.5229845000431,135.5229845000431,135.5229845000431,135.5229845000431,135.5229845000431,135.5229845000431,135.5229845000431,135.5229845000431,135.5229845000431,135.5229845000431,135.5229845000431,d,3.6501052000094205,target,None,135.5229845000431,139.01773239998147,,,,,,,,,,,,,,student1,2022-10-25_14h14.23.057,Hippopolis_4AFCT,2022.2.4,60.17415605157809,
Hippopolis,stimuli/subj_files/student1_cityA.csv,./stimuli/frankfurt.jpg,./stimuli/street_plate1.png,CITROM UTCA,stimuli/scenes/036a.jpg,scene,2,stimuli/objects/043a.jpg,stimuli/objects/043b.jpg,stimuli/objects/067a.jpg,stimuli/objects/043a.jpg,stimuli/objects/067b.jpg,lure,dist1,target,dist2,0,0,0,0,0,27,27,26,,,,,,,139.20009649998974,140.21760470001027,140.21760470001027,140.21760470001027,140.21760470001027,140.21760470001027,140.21760470001027,140.21760470001027,140.21760470001027,140.21760470001027,140.21760470001027,140.21760470001027,140.21760470001027,j,2.5364080999279395,target,None,140.21760470001027,,,,,,,,,,,,,,,student1,2022-10-25_14h14.23.057,Hippopolis_4AFCT,2022.2.4,60.17415605157809,
Hippopolis,stimuli/subj_files/student1_cityA.csv,./stimuli/frankfurt.jpg,./stimuli/street_plate1.png,BONBON UTCA,stimuli/objects/095a.jpg,object,2,stimuli/scenes/007a.jpg,stimuli/objects/028b.jpg,stimuli/objects/028a.jpg,stimuli/scenes/007a.jpg,stimuli/scenes/007b.jpg,dist2,dist1,target,lure,0,0,0,0,0,28,28,72,,,,,,,142.782679200056,143.8033421,143.8033421,143.8033421,143.8033421,143.8033421,143.8033421,143.8033421,143.8033421,143.8033421,143.8033421,143.8033421,143.8033421,j,2.846009199973196,target,None,143.8033421,,,,,,,,,,,,,,,student1,2022-10-25_14h14.23.057,Hippopolis_4AFCT,2022.2.4,60.17415605157809,
Hippopolis,stimuli/subj_files/student1_cityA.csv,./stimuli/frankfurt.jpg,./stimuli/street_plate1.png,KOCKA UTCA,stimuli/objects/062a.jpg,object,0,stimuli/objects/062a.jpg,stimuli/scenes/095b.jpg,stimuli/objects/062a.jpg,stimuli/objects/062b.jpg,stimuli/scenes/095a.jpg,dist2,target,lure,dist1,0,0,0,0,0,29,29,35,,,,,,,146.66638670000248,147.6927272999892,147.6927272999892,147.6927272999892,147.6927272999892,147.6927272999892,147.6927272999892,147.6927272999892,147.6927272999892,147.6927272999892,147.6927272999892,147.6927272999892,147.6927272999892,f,2.4003569999476895,target,None,147.6927272999892,,,,,,,,,,,,,,,student1,2022-10-25_14h14.23.057,Hippopolis_4AFCT,2022.2.4,60.17415605157809,
Hippopolis,stimuli/subj_files/student1_cityA.csv,./stimuli/frankfurt.jpg,./stimuli/street_plate1.png,KERET UTCA,stimuli/scenes/027a.jpg,scene,0,stimuli/scenes/027a.jpg,stimuli/objects/100a.jpg,stimuli/objects/100b.jpg,stimuli/scenes/027a.jpg,stimuli/scenes/027b.jpg,dist1,dist2,target,lure,0,0,0,0,0,30,30,3,,,,,,,150.11632529995404,151.12389429996256,151.12389429996256,151.12389429996256,151.12389429996256,151.12389429996256,151.12389429996256,151.12389429996256,151.12389429996256,151.12389429996256,151.12389429996256,151.12389429996256,151.12389429996256,j,2.8116105999797583,target,None,151.12389429996256,,,,,,,,,,,,,,,student1,2022-10-25_14h14.23.057,Hippopolis_4AFCT,2022.2.4,60.17415605157809,
Hippopolis,stimuli/subj_files/student1_cityA.csv,./stimuli/frankfurt.jpg,./stimuli/street_plate1.png,SZIKLA UTCA,stimuli/scenes/111a.jpg,scene,2,stimuli/objects/073a.jpg,stimuli/objects/120b.jpg,stimuli/objects/120a.jpg,stimuli/objects/073a.jpg,stimuli/objects/073b.jpg,dist2,dist1,target,lure,0,0,0,0,0,31,31,1,,,,,,,153.96618410001975,154.99166910001077,154.99166910001077,154.99166910001077,154.99166910001077,154.99166910001077,154.99166910001077,154.99166910001077,154.99166910001077,154.99166910001077,154.99166910001077,154.99166910001077,154.99166910001077,j,2.3807907999726012,target,None,154.99166910001077,,,,,,,,,,,,,,,student1,2022-10-25_14h14.23.057,Hippopolis_4AFCT,2022.2.4,60.17415605157809,
Hippopolis,stimuli/subj_files/student1_cityA.csv,./stimuli/frankfurt.jpg,./stimuli/street_plate1.png,MÁLNA UTCA,stimuli/objects/069a.jpg,object,2,stimuli/scenes/053a.jpg,stimuli/objects/073a.jpg,stimuli/objects/073b.jpg,stimuli/scenes/053b.jpg,stimuli/scenes/053a.jpg,dist1,dist2,lure,target,0,0,0,0,0,32,32,14,,,,,,,157.3995533999987,158.40822740003932,158.40822740003932,158.40822740003932,158.40822740003932,158.40822740003932,158.40822740003932,158.40822740003932,158.40822740003932,158.40822740003932,158.40822740003932,158.40822740003932,158.40822740003932,k,4.021565199946053,target,None,158.40822740003932,161.90044150000904,,,,,,,,,,,,,,student1,2022-10-25_14h14.23.057,Hippopolis_4AFCT,2022.2.4,60.17415605157809,
Hippopolis,stimuli/subj_files/student1_cityA.csv,./stimuli/frankfurt.jpg,./stimuli/street_plate1.png,AKÁC UTCA,stimuli/scenes/081a.jpg,scene,2,stimuli/objects/055a.jpg,stimuli/objects/055b.jpg,stimuli/objects/107b.jpg,stimuli/objects/107a.jpg,stimuli/objects/055a.jpg,lure,dist2,dist1,target,0,0,0,0,0,33,33,74,,,,,,,162.44965099997353,163.45656429999508,163.45656429999508,163.45656429999508,163.45656429999508,163.45656429999508,163.45656429999508,163.45656429999508,163.45656429999508,163.45656429999508,163.45656429999508,163.45656429999508,163.45656429999508,j,3.4686521999537945,dist1,None,163.45656429999508,166.94926719996147,,,,,,,,,,,,,,student1,2022-10-25_14h14.23.057,Hippopolis_4AFCT,2022.2.4,60.17415605157809,
Hippopolis,stimuli/subj_files/student1_cityA.csv,./stimuli/frankfurt.jpg,./stimuli/street_plate1.png,LAKAT UTCA,stimuli/objects/066a.jpg,object,2,stimuli/scenes/084a.jpg,stimuli/scenes/084b.jpg,stimuli/scenes/034a.jpg,stimuli/scenes/084a.jpg,stimuli/scenes/034b.jpg,lure,dist1,target,dist2,0,0,0,0,0,34,34,58,,,,,,,166.94926719996147,167.9600492999889,167.9600492999889,167.9600492999889,167.9600492999889,167.9600492999889,167.9600492999889,167.9600492999889,167.9600492999889,167.9600492999889,167.9600492999889,167.9600492999889,167.9600492999889,j,3.5390550000593066,target,None,167.9600492999889,171.45041679998394,,,,,,,,,,,,,,student1,2022-10-25_14h14.23.057,Hippopolis_4AFCT,2022.2.4,60.17415605157809,
Hippopolis,stimuli/subj_files/student1_cityA.csv,./stimuli/frankfurt.jpg,./stimuli/street_plate1.png,MOTOR UTCA,stimuli/objects/097a.jpg,object,1,stimuli/objects/071a.jpg,stimuli/objects/015b.jpg,stimuli/objects/071b.jpg,stimuli/objects/071a.jpg,stimuli/objects/015a.jpg,dist2,lure,target,dist1,0,0,0,0,0,35,35,36,,,,,,,171.5160134000471,172.5377526000375,172.5377526000375,172.5377526000375,172.5377526000375,172.5377526000375,172.5377526000375,172.5377526000375,172.5377526000375,172.5377526000375,172.5377526000375,172.5377526000375,172.5377526000375,d,3.1963354999898,dist2,None,172.5377526000375,,,,,,,,,,,,,,,student1,2022-10-25_14h14.23.057,Hippopolis_4AFCT,2022.2.4,60.17415605157809,
Hippopolis,stimuli/subj_files/student1_cityA.csv,./stimuli/frankfurt.jpg,./stimuli/street_plate1.png,ÁLOM UTCA,stimuli/objects/070a.jpg,object,0,stimuli/objects/070a.jpg,stimuli/objects/070b.jpg,stimuli/objects/114b.jpg,stimuli/objects/114a.jpg,stimuli/objects/070a.jpg,lure,dist2,dist1,target,0,0,0,0,0,36,36,50,,,,,,,175.76575629995205,176.78617400000803,176.78617400000803,176.78617400000803,176.78617400000803,176.78617400000803,176.78617400000803,176.78617400000803,176.78617400000803,176.78617400000803,176.78617400000803,176.78617400000803,176.78617400000803,k,2.158805500017479,target,None,176.78617400000803,,,,,,,,,,,,,,,student1,2022-10-25_14h14.23.057,Hippopolis_4AFCT,2022.2.4,60.17415605157809,
Hippopolis,stimuli/subj_files/student1_cityA.csv,./stimuli/frankfurt.jpg,./stimuli/street_plate1.png,RÓZSA UTCA,stimuli/objects/091a.jpg,object,0,stimuli/objects/091a.jpg,stimuli/objects/091b.jpg,stimuli/objects/078b.jpg,stimuli/objects/078a.jpg,stimuli/objects/091a.jpg,lure,dist2,dist1,target,0,0,0,0,0,37,37,45,,,,,,,178.96588469995186,179.98907200002577,179.98907200002577,179.98907200002577,179.98907200002577,179.98907200002577,179.98907200002577,179.98907200002577,179.98907200002577,179.98907200002577,179.98907200002577,179.98907200002577,179.98907200002577,k,2.013942199992016,target,None,179.98907200002577,,,,,,,,,,,,,,,student1,2022-10-25_14h14.23.057,Hippopolis_4AFCT,2022.2.4,60.17415605157809,
Hippopolis,stimuli/subj_files/student1_cityA.csv,./stimuli/frankfurt.jpg,./stimuli/street_plate1.png,POGÁCSA UTCA,stimuli/scenes/046a.jpg,scene,0,stimuli/scenes/046a.jpg,stimuli/scenes/042a.jpg,stimuli/scenes/046a.jpg,stimuli/scenes/046b.jpg,stimuli/scenes/042b.jpg,dist1,target,lure,dist2,0,0,0,0,0,38,38,49,,,,,,,182.03261909994762,183.03784010000527,183.03784010000527,183.03784010000527,183.03784010000527,183.03784010000527,183.03784010000527,183.03784010000527,183.03784010000527,183.03784010000527,183.03784010000527,183.03784010000527,183.03784010000527,f,2.680799899972044,target,None,183.03784010000527,,,,,,,,,,,,,,,student1,2022-10-25_14h14.23.057,Hippopolis_4AFCT,2022.2.4,60.17415605157809,
Hippopolis,stimuli/subj_files/student1_cityA.csv,./stimuli/frankfurt.jpg,./stimuli/street_plate1.png,KÖTÉL UTCA,stimuli/objects/051a.jpg,object,0,stimuli/objects/051a.jpg,stimuli/scenes/024b.jpg,stimuli/objects/051b.jpg,stimuli/scenes/024a.jpg,stimuli/objects/051a.jpg,dist2,lure,dist1,target,0,0,0,0,0,39,39,7,,,,,,,185.7490651999833,186.7592050000094,186.7592050000094,186.7592050000094,186.7592050000094,186.7592050000094,186.7592050000094,186.7592050000094,186.7592050000094,186.7592050000094,186.7592050000094,186.7592050000094,186.7592050000094,f,2.271227299934253,lure,None,186.7592050000094,,,,,,,,,,,,,,,student1,2022-10-25_14h14.23.057,Hippopolis_4AFCT,2022.2.4,60.17415605157809,
Hippopolis,stimuli/subj_files/student1_cityA.csv,./stimuli/frankfurt.jpg,./stimuli/street_plate1.png,SIVATAG UTCA,stimuli/scenes/016a.jpg,scene,2,stimuli/objects/046a.jpg,stimuli/objects/046b.jpg,stimuli/objects/006a.jpg,stimuli/objects/006b.jpg,stimuli/objects/046a.jpg,lure,dist1,dist2,target,0,0,0,0,0,40,40,23,,,,,,,189.04907579999417,190.0586886999663,190.0586886999663,190.0586886999663,190.0586886999663,190.0586886999663,190.0586886999663,190.0586886999663,190.0586886999663,190.0586886999663,190.0586886999663,190.0586886999663,190.0586886999663,k,1.8957696999423206,target,None,190.0586886999663,,,,,,,,,,,,,,,student1,2022-10-25_14h14.23.057,Hippopolis_4AFCT,2022.2.4,60.17415605157809,
Hippopolis,stimuli/subj_files/student1_cityA.csv,./stimuli/frankfurt.jpg,./stimuli/street_plate1.png,AJÁNDÉK UTCA,stimuli/scenes/005a.jpg,scene,1,stimuli/scenes/009a.jpg,stimuli/scenes/078b.jpg,stimuli/scenes/078a.jpg,stimuli/scenes/009a.jpg,stimuli/scenes/009b.jpg,dist2,dist1,target,lure,0,0,0,0,0,41,41,28,,,,,,,191.9822216000175,192.99413320003077,192.99413320003077,192.99413320003077,192.99413320003077,192.99413320003077,192.99413320003077,192.99413320003077,192.99413320003077,192.99413320003077,192.99413320003077,192.99413320003077,192.99413320003077,f,1.9397266999585554,dist1,None,192.99413320003077,,,,,,,,,,,,,,,student1,2022-10-25_14h14.23.057,Hippopolis_4AFCT,2022.2.4,60.17415605157809,
Hippopolis,stimuli/subj_files/student1_cityA.csv,./stimuli/frankfurt.jpg,./stimuli/street_plate1.png,CSAVAR UTCA,stimuli/objects/078a.jpg,object,0,stimuli/objects/078a.jpg,stimuli/objects/078b.jpg,stimuli/objects/024b.jpg,stimuli/objects/078a.jpg,stimuli/objects/024a.jpg,lure,dist2,target,dist1,0,0,0,0,0,42,42,10,,,,,,,194.96561149996705,195.97553010005504,195.97553010005504,195.97553010005504,195.97553010005504,195.97553010005504,195.97553010005504,195.97553010005504,195.97553010005504,195.97553010005504,195.97553010005504,195.97553010005504,195.97553010005504,j,3.0783379999920726,target,None,195.97553010005504,,,,,,,,,,,,,,,student1,2022-10-25_14h14.23.057,Hippopolis_4AFCT,2022.2.4,60.17415605157809,
Hippopolis,stimuli/subj_files/student1_cityA.csv,./stimuli/frankfurt.jpg,./stimuli/street_plate1.png,SZOMSZÉD UTCA,stimuli/objects/026a.jpg,object,1,stimuli/objects/004a.jpg,stimuli/objects/027b.jpg,stimuli/objects/004b.jpg,stimuli/objects/004a.jpg,stimuli/objects/027a.jpg,dist2,lure,target,dist1,0,0,0,0,0,43,43,65,,,,,,,199.0821045000339,200.1045406999765,200.1045406999765,200.1045406999765,200.1045406999765,200.1045406999765,200.1045406999765,200.1045406999765,200.1045406999765,200.1045406999765,200.1045406999765,200.1045406999765,200.1045406999765,j,2.3103770000161603,target,None,200.1045406999765,,,,,,,,,,,,,,,student1,2022-10-25_14h14.23.057,Hippopolis_4AFCT,2022.2.4,60.17415605157809,
Hippopolis,stimuli/subj_files/student1_cityA.csv,./stimuli/frankfurt.jpg,./stimuli/street_plate1.png,KORONA UTCA,stimuli/scenes/108a.jpg,scene,1,stimuli/scenes/011a.jpg,stimuli/objects/076a.jpg,stimuli/scenes/011b.jpg,stimuli/objects/076b.jpg,stimuli/scenes/011a.jpg,dist1,lure,dist2,target,0,0,0,0,0,44,44,9,,,,,,,202.43200519995298,203.44149070000276,203.44149070000276,203.44149070000276,203.44149070000276,203.44149070000276,203.44149070000276,203.44149070000276,203.44149070000276,203.44149070000276,203.44149070000276,203.44149070000276,203.44149070000276,k,2.9798609000863507,target,space,203.44149070000276,,206.44865659996867,206.44865659996867,2.340443200082518,,,,,,,,,,,student1,2022-10-25_14h14.23.057,Hippopolis_4AFCT,2022.2.4,60.17415605157809,
Hippopolis,stimuli/subj_files/student1_cityA.csv,./stimuli/frankfurt.jpg,./stimuli/street_plate1.png,BAGOLY UTCA,stimuli/scenes/029a.jpg,scene,2,stimuli/objects/028a.jpg,stimuli/objects/028b.jpg,stimuli/objects/028a.jpg,stimuli/scenes/028a.jpg,stimuli/scenes/028b.jpg,lure,target,dist1,dist2,0,0,0,0,0,45,45,21,,,,,,,208.81524220004212,209.8197700000601,209.8197700000601,209.8197700000601,209.8197700000601,209.8197700000601,209.8197700000601,209.8197700000601,209.8197700000601,209.8197700000601,209.8197700000601,209.8197700000601,209.8197700000601,j,2.728194299968891,dist1,None,209.8197700000601,,,,,,,,,,,,,,,student1,2022-10-25_14h14.23.057,Hippopolis_4AFCT,2022.2.4,60.17415605157809,
Hippopolis,stimuli/subj_files/student1_cityA.csv,./stimuli/frankfurt.jpg,./stimuli/street_plate1.png,EGÉR UTCA,stimuli/scenes/071a.jpg,scene,1,stimuli/scenes/116a.jpg,stimuli/scenes/116b.jpg,stimuli/scenes/116a.jpg,stimuli/scenes/009b.jpg,stimuli/scenes/009a.jpg,lure,target,dist2,dist1,0,0,0,0,0,46,46,29,,,,,,,212.56519900006242,213.58048400003463,213.58048400003463,213.58048400003463,213.58048400003463,213.58048400003463,213.58048400003463,213.58048400003463,213.58048400003463,213.58048400003463,213.58048400003463,213.58048400003463,213.58048400003463,d,2.357983099995181,lure,None,213.58048400003463,,,,,,,,,,,,,,,student1,2022-10-25_14h14.23.057,Hippopolis_4AFCT,2022.2.4,60.17415605157809,
Hippopolis,stimuli/subj_files/student1_cityA.csv,./stimuli/frankfurt.jpg,./stimuli/street_plate1.png,BÖGRE UTCA,stimuli/objects/050a.jpg,object,1,stimuli/objects/076a.jpg,stimuli/scenes/037a.jpg,stimuli/objects/076a.jpg,stimuli/objects/076b.jpg,stimuli/scenes/037b.jpg,dist1,target,lure,dist2,0,0,0,0,0,47,47,41,,,,,,,215.9654281999683,216.9870254000416,216.9870254000416,216.9870254000416,216.9870254000416,216.9870254000416,216.9870254000416,216.9870254000416,216.9870254000416,216.9870254000416,216.9870254000416,216.9870254000416,216.9870254000416,f,2.818103199941106,target,None,216.9870254000416,,,,,,,,,,,,,,,student1,2022-10-25_14h14.23.057,Hippopolis_4AFCT,2022.2.4,60.17415605157809,
Hippopolis,stimuli/subj_files/student1_cityA.csv,./stimuli/frankfurt.jpg,./stimuli/street_plate1.png,PAPAGÁJ UTCA,stimuli/objects/093a.jpg,object,2,stimuli/scenes/097a.jpg,stimuli/scenes/097a.jpg,stimuli/scenes/109b.jpg,stimuli/scenes/109a.jpg,stimuli/scenes/097b.jpg,target,dist2,dist1,lure,0,0,0,0,0,48,48,55,,,,,,,219.83153800002765,220.8334283999866,220.8334283999866,220.8334283999866,220.8334283999866,220.8334283999866,220.8334283999866,220.8334283999866,220.8334283999866,220.8334283999866,220.8334283999866,220.8334283999866,220.8334283999866,d,2.465169999981299,target,None,220.8334283999866,,,,,,,,,,,,,,,student1,2022-10-25_14h14.23.057,Hippopolis_4AFCT,2022.2.4,60.17415605157809,
Hippopolis,stimuli/subj_files/student1_cityA.csv,./stimuli/frankfurt.jpg,./stimuli/street_plate1.png,HEGESZTŐ UTCA,stimuli/scenes/043a.jpg,scene,0,stimuli/scenes/043a.jpg,stimuli/scenes/043b.jpg,stimuli/scenes/043a.jpg,stimuli/objects/062a.jpg,stimuli/objects/062b.jpg,lure,target,dist1,dist2,0,0,0,0,0,49,49,77,,,,,,,223.31509819999337,224.3278541000327,224.3278541000327,224.3278541000327,224.3278541000327,224.3278541000327,224.3278541000327,224.3278541000327,224.3278541000327,224.3278541000327,224.3278541000327,224.3278541000327,224.3278541000327,f,2.1294497000053525,target,None,224.3278541000327,,,,,,,,,,,,,,,student1,2022-10-25_14h14.23.057,Hippopolis_4AFCT,2022.2.4,60.17415605157809,
Hippopolis,stimuli/subj_files/student1_cityA.csv,./stimuli/frankfurt.jpg,./stimuli/street_plate1.png,OROSZLÁN UTCA,stimuli/scenes/072a.jpg,scene,0,stimuli/scenes/072a.jpg,stimuli/scenes/072a.jpg,stimuli/scenes/072b.jpg,stimuli/scenes/027b.jpg,stimuli/scenes/027a.jpg,target,lure,dist2,dist1,0,0,0,0,0,50,50,66,,,,,,,226.48151439998765,227.4929857000243,227.4929857000243,227.4929857000243,227.4929857000243,227.4929857000243,227.4929857000243,227.4929857000243,227.4929857000243,227.4929857000243,227.4929857000243,227.4929857000243,227.4929857000243,d,1.6381972000235692,target,None,227.4929857000243,,,,,,,,,,,,,,,student1,2022-10-25_14h14.23.057,Hippopolis_4AFCT,2022.2.4,60.17415605157809,
Hippopolis,stimuli/subj_files/student1_cityA.csv,./stimuli/frankfurt.jpg,./stimuli/street_plate1.png,PÁLMAFA UTCA,stimuli/objects/090a.jpg,object,1,stimuli/objects/007a.jpg,stimuli/objects/053a.jpg,stimuli/objects/007a.jpg,stimuli/objects/053b.jpg,stimuli/objects/007b.jpg,dist1,target,dist2,lure,0,0,0,0,0,51,51,12,,,,,,,229.14810520003084,230.1744964000536,230.1744964000536,230.1744964000536,230.1744964000536,230.1744964000536,230.1744964000536,230.1744964000536,230.1744964000536,230.1744964000536,230.1744964000536,230.1744964000536,230.1744964000536,j,3.8273499999195337,dist2,None,230.1744964000536,233.64933020004537,,,,,,,,,,,,,,student1,2022-10-25_14h14.23.057,Hippopolis_4AFCT,2022.2.4,60.17415605157809,
Hippopolis,stimuli/subj_files/student1_cityA.csv,./stimuli/frankfurt.jpg,./stimuli/street_plate1.png,KERÉK UTCA,stimuli/scenes/096a.jpg,scene,1,stimuli/scenes/041a.jpg,stimuli/scenes/117a.jpg,stimuli/scenes/041b.jpg,stimuli/scenes/041a.jpg,stimuli/scenes/117b.jpg,dist1,lure,target,dist2,0,0,0,0,0,52,52,20,,,,,,,234.03157610003836,235.04651570005808,235.04651570005808,235.04651570005808,235.04651570005808,235.04651570005808,235.04651570005808,235.04651570005808,235.04651570005808,235.04651570005808,235.04651570005808,235.04651570005808,235.04651570005808,f,4.545636199996807,lure,None,235.04651570005808,238.53259940003045,,,,,,,,,,,,,,student1,2022-10-25_14h14.23.057,Hippopolis_4AFCT,2022.2.4,60.17415605157809,
Hippopolis,stimuli/subj_files/student1_cityA.csv,./stimuli/frankfurt.jpg,./stimuli/street_plate1.png,KULLANCS UTCA,stimuli/objects/089a.jpg,object,0,stimuli/objects/089a.jpg,stimuli/scenes/072a.jpg,stimuli/objects/089a.jpg,stimuli/scenes/072b.jpg,stimuli/objects/089b.jpg,dist1,target,dist2,lure,0,0,0,0,0,53,53,34,,,,,,,239.61478609999176,240.6275491999695,240.6275491999695,240.6275491999695,240.6275491999695,240.6275491999695,240.6275491999695,240.6275491999695,240.6275491999695,240.6275491999695,240.6275491999695,240.6275491999695,240.6275491999695,j,2.528079300071113,dist2,None,240.6275491999695,,,,,,,,,,,,,,,student1,2022-10-25_14h14.23.057,Hippopolis_4AFCT,2022.2.4,60.17415605157809,
Hippopolis,stimuli/subj_files/student1_cityA.csv,./stimuli/frankfurt.jpg,./stimuli/street_plate1.png,LÉTRA UTCA,stimuli/objects/047a.jpg,object,1,stimuli/objects/015a.jpg,stimuli/objects/108b.jpg,stimuli/objects/015b.jpg,stimuli/objects/108a.jpg,stimuli/objects/015a.jpg,dist2,lure,dist1,target,0,0,0,0,0,54,54,33,,,,,,,243.18137190002017,244.2070556000108,244.2070556000108,244.2070556000108,244.2070556000108,244.2070556000108,244.2070556000108,244.2070556000108,244.2070556000108,244.2070556000108,244.2070556000108,244.2070556000108,244.2070556000108,f,3.149538700003177,lure,None,244.2070556000108,,,,,,,,,,,,,,,student1,2022-10-25_14h14.23.057,Hippopolis_4AFCT,2022.2.4,60.17415605157809,
Hippopolis,stimuli/subj_files/student1_cityA.csv,./stimuli/frankfurt.jpg,./stimuli/street_plate1.png,MOCSÁR UTCA,stimuli/objects/080a.jpg,object,0,stimuli/objects/080a.jpg,stimuli/objects/080b.jpg,stimuli/objects/080a.jpg,stimuli/scenes/043b.jpg,stimuli/scenes/043a.jpg,lure,target,dist2,dist1,0,0,0,0,0,55,55,17,,,,,,,247.3809952000156,248.4063544999808,248.4063544999808,248.4063544999808,248.4063544999808,248.4063544999808,248.4063544999808,248.4063544999808,248.4063544999808,248.4063544999808,248.4063544999808,248.4063544999808,248.4063544999808,f,2.4172014000359923,target,None,248.4063544999808,,,,,,,,,,,,,,,student1,2022-10-25_14h14.23.057,Hippopolis_4AFCT,2022.2.4,60.17415605157809,
Hippopolis,stimuli/subj_files/student1_cityA.csv,./stimuli/frankfurt.jpg,./stimuli/street_plate1.png,MARTINI UTCA,stimuli/objects/060a.jpg,object,1,stimuli/objects/011a.jpg,stimuli/objects/075b.jpg,stimuli/objects/075a.jpg,stimuli/objects/011b.jpg,stimuli/objects/011a.jpg,dist2,dist1,lure,target,0,0,0,0,0,56,56,60,,,,,,,250.8474102000473,251.8629502999829,251.8629502999829,251.8629502999829,251.8629502999829,251.8629502999829,251.8629502999829,251.8629502999829,251.8629502999829,251.8629502999829,251.8629502999829,251.8629502999829,251.8629502999829,k,3.1676708000013605,target,None,251.8629502999829,,,,,,,,,,,,,,,student1,2022-10-25_14h14.23.057,Hippopolis_4AFCT,2022.2.4,60.17415605157809,
Hippopolis,stimuli/subj_files/student1_cityA.csv,./stimuli/frankfurt.jpg,./stimuli/street_plate1.png,ÜVEG UTCA,stimuli/scenes/061a.jpg,scene,2,stimuli/objects/085a.jpg,stimuli/objects/085b.jpg,stimuli/scenes/084a.jpg,stimuli/objects/085a.jpg,stimuli/scenes/084b.jpg,lure,dist1,target,dist2,0,0,0,0,0,57,57,19,,,,,,,255.04796100000385,256.0698648999678,256.0698648999678,256.0698648999678,256.0698648999678,256.0698648999678,256.0698648999678,256.0698648999678,256.0698648999678,256.0698648999678,256.0698648999678,256.0698648999678,256.0698648999678,j,3.394063600106165,target,None,256.0698648999678,,,,,,,,,,,,,,,student1,2022-10-25_14h14.23.057,Hippopolis_4AFCT,2022.2.4,60.17415605157809,
Hippopolis,stimuli/subj_files/student1_cityA.csv,./stimuli/frankfurt.jpg,./stimuli/street_plate1.png,HEGEDŰ UTCA,stimuli/scenes/113a.jpg,scene,2,stimuli/objects/036a.jpg,stimuli/objects/036b.jpg,stimuli/scenes/059b.jpg,stimuli/scenes/059a.jpg,stimuli/objects/036a.jpg,lure,dist2,dist1,target,0,0,0,0,0,58,58,69,,,,,,,259.48087920004036,260.4923606000375,260.4923606000375,260.4923606000375,260.4923606000375,260.4923606000375,260.4923606000375,260.4923606000375,260.4923606000375,260.4923606000375,260.4923606000375,260.4923606000375,260.4923606000375,j,4.171808600076474,dist1,None,260.4923606000375,263.9825243999949,,,,,,,,,,,,,,student1,2022-10-25_14h14.23.057,Hippopolis_4AFCT,2022.2.4,60.17415605157809,
Hippopolis,stimuli/subj_files/student1_cityA.csv,./stimuli/frankfurt.jpg,./stimuli/street_plate1.png,KOKTÉL UTCA,stimuli/scenes/008a.jpg,scene,2,stimuli/objects/012a.jpg,stimuli/objects/036b.jpg,stimuli/objects/012b.jpg,stimuli/objects/036a.jpg,stimuli/objects/012a.jpg,dist2,lure,dist1,target,0,0,0,0,0,59,59,46,,,,,,,264.6811713000061,265.69166180002503,265.69166180002503,265.69166180002503,265.69166180002503,265.69166180002503,265.69166180002503,265.69166180002503,265.69166180002503,265.69166180002503,265.69166180002503,265.69166180002503,265.69166180002503,k,3.6098721999442205,target,None,265.69166180002503,269.18186410004273,,,,,,,,,,,,,,student1,2022-10-25_14h14.23.057,Hippopolis_4AFCT,2022.2.4,60.17415605157809,
Hippopolis,stimuli/subj_files/student1_cityA.csv,./stimuli/frankfurt.jpg,./stimuli/street_plate1.png,VÖDÖR UTCA,stimuli/scenes/055a.jpg,scene,1,stimuli/scenes/088a.jpg,stimuli/scenes/088b.jpg,stimuli/scenes/088a.jpg,stimuli/scenes/087b.jpg,stimuli/scenes/087a.jpg,lure,target,dist2,dist1,0,0,0,0,0,60,60,56,,,,,,,269.3309352999786,270.3377008000389,270.3377008000389,270.3377008000389,270.3377008000389,270.3377008000389,270.3377008000389,270.3377008000389,270.3377008000389,270.3377008000389,270.3377008000389,270.3377008000389,270.3377008000389,f,2.1628715000115335,target,None,270.3377008000389,,,,,,,,,,,,,,,student1,2022-10-25_14h14.23.057,Hippopolis_4AFCT,2022.2.4,60.17415605157809,
Hippopolis,stimuli/subj_files/student1_cityA.csv,./stimuli/frankfurt.jpg,./stimuli/street_plate1.png,PETÁRDA UTCA,stimuli/objects/009a.jpg,object,0,stimuli/objects/009a.jpg,stimuli/objects/009a.jpg,stimuli/scenes/051a.jpg,stimuli/objects/009b.jpg,stimuli/scenes/051b.jpg,target,dist1,lure,dist2,0,0,0,0,0,61,61,64,,,,,,,272.53092719998676,273.5499762999825,273.5499762999825,273.5499762999825,273.5499762999825,273.5499762999825,273.5499762999825,273.5499762999825,273.5499762999825,273.5499762999825,273.5499762999825,273.5499762999825,273.5499762999825,j,2.950730299926363,lure,None,273.5499762999825,,,,,,,,,,,,,,,student1,2022-10-25_14h14.23.057,Hippopolis_4AFCT,2022.2.4,60.17415605157809,
Hippopolis,stimuli/subj_files/student1_cityA.csv,./stimuli/frankfurt.jpg,./stimuli/street_plate1.png,VASALÓ UTCA,stimuli/objects/025a.jpg,object,2,stimuli/scenes/056a.jpg,stimuli/scenes/044a.jpg,stimuli/scenes/056b.jpg,stimuli/scenes/056a.jpg,stimuli/scenes/044b.jpg,dist1,lure,target,dist2,0,0,0,0,0,62,62,70,,,,,,,276.53121210006066,277.53546889999416,277.53546889999416,277.53546889999416,277.53546889999416,277.53546889999416,277.53546889999416,277.53546889999416,277.53546889999416,277.53546889999416,277.53546889999416,277.53546889999416,277.53546889999416,k,3.123049100046046,dist2,None,277.53546889999416,,,,,,,,,,,,,,,student1,2022-10-25_14h14.23.057,Hippopolis_4AFCT,2022.2.4,60.17415605157809,
Hippopolis,stimuli/subj_files/student1_cityA.csv,./stimuli/frankfurt.jpg,./stimuli/street_plate1.png,NARANCS UTCA,stimuli/objects/017a.jpg,object,1,stimuli/objects/075a.jpg,stimuli/objects/075a.jpg,stimuli/scenes/041b.jpg,stimuli/scenes/041a.jpg,stimuli/objects/075b.jpg,target,dist2,dist1,lure,0,0,0,0,0,63,63,76,,,,,,,280.6807618000312,281.69668279995676,281.69668279995676,281.69668279995676,281.69668279995676,281.69668279995676,281.69668279995676,281.69668279995676,281.69668279995676,281.69668279995676,281.69668279995676,281.69668279995676,281.69668279995676,d,2.566230500000529,target,None,281.69668279995676,,,,,,,,,,,,,,,student1,2022-10-25_14h14.23.057,Hippopolis_4AFCT,2022.2.4,60.17415605157809,
Hippopolis,stimuli/subj_files/student1_cityA.csv,./stimuli/frankfurt.jpg,./stimuli/street_plate1.png,ÁRNYÉK UTCA,stimuli/objects/020a.jpg,object,1,stimuli/objects/027a.jpg,stimuli/scenes/004a.jpg,stimuli/objects/027b.jpg,stimuli/objects/027a.jpg,stimuli/scenes/004b.jpg,dist1,lure,target,dist2,0,0,0,0,0,64,64,52,,,,,,,284.2805955000222,285.3085172000574,285.3085172000574,285.3085172000574,285.3085172000574,285.3085172000574,285.3085172000574,285.3085172000574,285.3085172000574,285.3085172000574,285.3085172000574,285.3085172000574,285.3085172000574,j,2.918884599930607,target,None,285.3085172000574,,,,,,,,,,,,,,,student1,2022-10-25_14h14.23.057,Hippopolis_4AFCT,2022.2.4,60.17415605157809,
Hippopolis,stimuli/subj_files/student1_cityA.csv,./stimuli/frankfurt.jpg,./stimuli/street_plate1.png,TOBOZ UTCA,stimuli/objects/001a.jpg,object,2,stimuli/scenes/059a.jpg,stimuli/scenes/059a.jpg,stimuli/objects/085a.jpg,stimuli/objects/085b.jpg,stimuli/scenes/059b.jpg,target,dist1,dist2,lure,0,0,0,0,0,65,65,40,,,,,,,288.2473289000336,289.2566592999501,289.2566592999501,289.2566592999501,289.2566592999501,289.2566592999501,289.2566592999501,289.2566592999501,289.2566592999501,289.2566592999501,289.2566592999501,289.2566592999501,289.2566592999501,d,2.4675413999939337,target,None,289.2566592999501,,,,,,,,,,,,,,,student1,2022-10-25_14h14.23.057,Hippopolis_4AFCT,2022.2.4,60.17415605157809,
Hippopolis,stimuli/subj_files/student1_cityA.csv,./stimuli/frankfurt.jpg,./stimuli/street_plate1.png,TOJÁS UTCA,stimuli/objects/021a.jpg,object,2,stimuli/scenes/034a.jpg,stimuli/scenes/034a.jpg,stimuli/objects/059a.jpg,stimuli/objects/059b.jpg,stimuli/scenes/034b.jpg,target,dist1,dist2,lure,0,0,0,0,0,66,66,37,,,,,,,291.74732359999325,292.75319329998456,292.75319329998456,292.75319329998456,292.75319329998456,292.75319329998456,292.75319329998456,292.75319329998456,292.75319329998456,292.75319329998456,292.75319329998456,292.75319329998456,292.75319329998456,d,3.4141054999781772,target,None,292.75319329998456,,,,,,,,,,,,,,,student1,2022-10-25_14h14.23.057,Hippopolis_4AFCT,2022.2.4,60.17415605157809,
Hippopolis,stimuli/subj_files/student1_cityA.csv,./stimuli/frankfurt.jpg,./stimuli/street_plate1.png,LÁNDZSA UTCA,stimuli/scenes/090a.jpg,scene,0,stimuli/scenes/090a.jpg,stimuli/scenes/090a.jpg,stimuli/objects/091b.jpg,stimuli/scenes/090b.jpg,stimuli/objects/091a.jpg,target,dist2,lure,dist1,0,0,0,0,0,67,67,39,,,,,,,296.19722950004507,297.2092594000278,297.2092594000278,297.2092594000278,297.2092594000278,297.2092594000278,297.2092594000278,297.2092594000278,297.2092594000278,297.2092594000278,297.2092594000278,297.2092594000278,297.2092594000278,j,2.526726600015536,lure,None,297.2092594000278,,,,,,,,,,,,,,,student1,2022-10-25_14h14.23.057,Hippopolis_4AFCT,2022.2.4,60.17415605157809,
Hippopolis,stimuli/subj_files/student1_cityA.csv,./stimuli/frankfurt.jpg,./stimuli/street_plate1.png,CUKOR UTCA,stimuli/objects/111a.jpg,object,0,stimuli/objects/111a.jpg,stimuli/objects/089b.jpg,stimuli/objects/111b.jpg,stimuli/objects/111a.jpg,stimuli/objects/089a.jpg,dist2,lure,target,dist1,0,0,0,0,0,68,68,30,,,,,,,299.7637800000375,300.8001810000278,300.8001810000278,300.8001810000278,300.8001810000278,300.8001810000278,300.8001810000278,300.8001810000278,300.8001810000278,300.8001810000278,300.8001810000278,300.8001810000278,300.8001810000278,j,3.20856709999498,target,None,300.8001810000278,,,,,,,,,,,,,,,student1,2022-10-25_14h14.23.057,Hippopolis_4AFCT,2022.2.4,60.17415605157809,
Hippopolis,stimuli/subj_files/student1_cityA.csv,./stimuli/frankfurt.jpg,./stimuli/street_plate1.png,PAPUCS UTCA,stimuli/scenes/051a.jpg,scene,0,stimuli/scenes/051a.jpg,stimuli/scenes/051b.jpg,stimuli/scenes/051a.jpg,stimuli/scenes/090a.jpg,stimuli/scenes/090b.jpg,lure,target,dist1,dist2,0,0,0,0,0,69,69,68,,,,,,,304.03019189997576,305.0425127999624,305.0425127999624,305.0425127999624,305.0425127999624,305.0425127999624,305.0425127999624,305.0425127999624,305.0425127999624,305.0425127999624,305.0425127999624,305.0425127999624,305.0425127999624,f,3.1702765999361873,target,None,305.0425127999624,,,,,,,,,,,,,,,student1,2022-10-25_14h14.23.057,Hippopolis_4AFCT,2022.2.4,60.17415605157809,
Hippopolis,stimuli/subj_files/student1_cityA.csv,./stimuli/frankfurt.jpg,./stimuli/street_plate1.png,PÁFRÁNY UTCA,stimuli/scenes/101a.jpg,scene,0,stimuli/scenes/101a.jpg,stimuli/scenes/101a.jpg,stimuli/scenes/101b.jpg,stimuli/objects/051a.jpg,stimuli/objects/051b.jpg,target,lure,dist1,dist2,0,0,0,0,0,70,70,0,,,,,,,308.23022390005644,309.24063550005667,309.24063550005667,309.24063550005667,309.24063550005667,309.24063550005667,309.24063550005667,309.24063550005667,309.24063550005667,309.24063550005667,309.24063550005667,309.24063550005667,309.24063550005667,d,2.505893199937418,target,None,309.24063550005667,,,,,,,,,,,,,,,student1,2022-10-25_14h14.23.057,Hippopolis_4AFCT,2022.2.4,60.17415605157809,
Hippopolis,stimuli/subj_files/student1_cityA.csv,./stimuli/frankfurt.jpg,./stimuli/street_plate1.png,FÓKA UTCA,stimuli/scenes/058a.jpg,scene,0,stimuli/scenes/058a.jpg,stimuli/scenes/058a.jpg,stimuli/scenes/058b.jpg,stimuli/objects/111b.jpg,stimuli/objects/111a.jpg,target,lure,dist2,dist1,0,0,0,0,0,71,71,51,,,,,,,311.7635764000006,312.7761774000246,312.7761774000246,312.7761774000246,312.7761774000246,312.7761774000246,312.7761774000246,312.7761774000246,312.7761774000246,312.7761774000246,312.7761774000246,312.7761774000246,312.7761774000246,d,3.289342000032775,target,None,312.7761774000246,,,,,,,,,,,,,,,student1,2022-10-25_14h14.23.057,Hippopolis_4AFCT,2022.2.4,60.17415605157809,
Hippopolis,stimuli/subj_files/student1_cityA.csv,./stimuli/frankfurt.jpg,./stimuli/street_plate1.png,FOGAS UTCA,stimuli/scenes/025a.jpg,scene,1,stimuli/scenes/018a.jpg,stimuli/scenes/018b.jpg,stimuli/scenes/064a.jpg,stimuli/scenes/018a.jpg,stimuli/scenes/064b.jpg,lure,dist1,target,dist2,0,0,0,0,0,72,72,38,,,,,,,316.09700910001993,317.10349580005277,317.10349580005277,317.10349580005277,317.10349580005277,317.10349580005277,317.10349580005277,317.10349580005277,317.10349580005277,317.10349580005277,317.10349580005277,317.10349580005277,317.10349580005277,j,3.943212000071071,target,None,317.10349580005277,320.5978935000021,,,,,,,,,,,,,,student1,2022-10-25_14h14.23.057,Hippopolis_4AFCT,2022.2.4,60.17415605157809,
Hippopolis,stimuli/subj_files/student1_cityA.csv,./stimuli/frankfurt.jpg,./stimuli/street_plate1.png,PADLÓ UTCA,stimuli/objects/100a.jpg,object,0,stimuli/objects/100a.jpg,stimuli/scenes/058a.jpg,stimuli/scenes/058b.jpg,stimuli/objects/100a.jpg,stimuli/objects/100b.jpg,dist1,dist2,target,lure,0,0,0,0,0,73,73,59,,,,,,,321.06346360000316,322.0684762999881,322.0684762999881,322.0684762999881,322.0684762999881,322.0684762999881,322.0684762999881,322.0684762999881,322.0684762999881,322.0684762999881,322.0684762999881,322.0684762999881,322.0684762999881,j,2.232818300020881,target,None,322.0684762999881,,,,,,,,,,,,,,,student1,2022-10-25_14h14.23.057,Hippopolis_4AFCT,2022.2.4,60.17415605157809,
Hippopolis,stimuli/subj_files/student1_cityA.csv,./stimuli/frankfurt.jpg,./stimuli/street_plate1.png,KÖMÉNYMAG UTCA,stimuli/objects/068a.jpg,object,1,stimuli/objects/045a.jpg,stimuli/objects/045a.jpg,stimuli/objects/045b.jpg,stimuli/objects/071a.jpg,stimuli/objects/071b.jpg,target,lure,dist1,dist2,0,0,0,0,0,74,74,18,,,,,,,324.33008400001563,325.3596126999473,325.3596126999473,325.3596126999473,325.3596126999473,325.3596126999473,325.3596126999473,325.3596126999473,325.3596126999473,325.3596126999473,325.3596126999473,325.3596126999473,325.3596126999473,k,3.2128670999081805,dist2,None,325.3596126999473,,,,,,,,,,,,,,,student1,2022-10-25_14h14.23.057,Hippopolis_4AFCT,2022.2.4,60.17415605157809,
Hippopolis,stimuli/subj_files/student1_cityA.csv,./stimuli/frankfurt.jpg,./stimuli/street_plate1.png,MUSTÁR UTCA,stimuli/scenes/050a.jpg,scene,0,stimuli/scenes/050a.jpg,stimuli/objects/009a.jpg,stimuli/objects/009b.jpg,stimuli/scenes/050a.jpg,stimuli/scenes/050b.jpg,dist1,dist2,target,lure,0,0,0,0,0,75,75,78,,,,,,,328.59640829998534,329.6164316999493,329.6164316999493,329.6164316999493,329.6164316999493,329.6164316999493,329.6164316999493,329.6164316999493,329.6164316999493,329.6164316999493,329.6164316999493,329.6164316999493,329.6164316999493,j,1.8382752999896184,target,None,329.6164316999493,,,,,,,,,,,,,,,student1,2022-10-25_14h14.23.057,Hippopolis_4AFCT,2022.2.4,60.17415605157809,
Hippopolis,stimuli/subj_files/student1_cityA.csv,./stimuli/frankfurt.jpg,./stimuli/street_plate1.png,TRIATLON UTCA,stimuli/objects/024a.jpg,object,0,stimuli/objects/024a.jpg,stimuli/objects/024b.jpg,stimuli/objects/080a.jpg,stimuli/objects/024a.jpg,stimuli/objects/080b.jpg,lure,dist1,target,dist2,0,0,0,0,0,76,76,2,,,,,,,331.4810744000133,332.51562720001675,332.51562720001675,332.51562720001675,332.51562720001675,332.51562720001675,332.51562720001675,332.51562720001675,332.51562720001675,332.51562720001675,332.51562720001675,332.51562720001675,332.51562720001675,j,2.163115800009109,target,None,,,,,,,,,,,,,,,,student1,2022-10-25_14h14.23.057,Hippopolis_4AFCT,2022.2.4,60.17415605157809,
Hippopolis,stimuli/subj_files/student1_cityA.csv,./stimuli/frankfurt.jpg,./stimuli/street_plate1.png,TOLLTARTÓ UTCA,stimuli/objects/032a.jpg,object,2,stimuli/scenes/119a.jpg,stimuli/scenes/119a.jpg,stimuli/scenes/104b.jpg,stimuli/scenes/104a.jpg,stimuli/scenes/119b.jpg,target,dist2,dist1,lure,0,0,0,0,0,77,77,67,,,,,,,334.6967528000241,335.70396569999866,335.70396569999866,335.70396569999866,335.70396569999866,335.70396569999866,335.70396569999866,335.70396569999866,335.70396569999866,335.70396569999866,335.70396569999866,335.70396569999866,335.70396569999866,k,2.8244102000026032,lure,None,335.70396569999866,,,,,,,,,,,,,,,student1,2022-10-25_14h14.23.057,Hippopolis_4AFCT,2022.2.4,60.17415605157809,
Hippopolis,stimuli/subj_files/student1_cityA.csv,./stimuli/frankfurt.jpg,./stimuli/street_plate1.png,HARMONIKA UTCA,stimuli/scenes/024a.jpg,scene,0,stimuli/scenes/024a.jpg,stimuli/scenes/101b.jpg,stimuli/scenes/024b.jpg,stimuli/scenes/101a.jpg,stimuli/scenes/024a.jpg,dist2,lure,dist1,target,0,0,0,0,0,78,78,25,,,,,,,338.54718100000173,339.55010069999844,339.55010069999844,339.55010069999844,339.55010069999844,339.55010069999844,339.55010069999844,339.55010069999844,339.55010069999844,339.55010069999844,339.55010069999844,339.55010069999844,339.55010069999844,k,2.7169521999312565,target,None,339.55010069999844,,,,,,,,,,,,,,,student1,2022-10-25_14h14.23.057,Hippopolis_4AFCT,2022.2.4,60.17415605157809,
Hippopolis,stimuli/subj_files/student1_cityA.csv,./stimuli/frankfurt.jpg,./stimuli/street_plate1.png,HERNYÓ UTCA,stimuli/scenes/066a.jpg,scene,1,stimuli/scenes/037a.jpg,stimuli/scenes/037a.jpg,stimuli/objects/045b.jpg,stimuli/scenes/037b.jpg,stimuli/objects/045a.jpg,target,dist2,lure,dist1,0,0,0,0,0,79,79,5,,,,,,,342.29639180004597,343.3020067999605,343.3020067999605,343.3020067999605,343.3020067999605,343.3020067999605,343.3020067999605,343.3020067999605,343.3020067999605,343.3020067999605,343.3020067999605,343.3020067999605,343.3020067999605,d,2.1107940999791026,target,None,343.3020067999605,,,,,,,,,,,,,,,student1,2022-10-25_14h14.23.057,Hippopolis_4AFCT,2022.2.4,60.17415605157809,
Camponello,stimuli/subj_files/student1_cityB.csv,./stimuli/leipzig.jpg,./stimuli/street_plate2.png,SZILVA UTCA,stimuli/objects/105a.jpg,object,0,stimuli/objects/105a.jpg,stimuli/objects/049b.jpg,stimuli/objects/105b.jpg,stimuli/objects/049a.jpg,stimuli/objects/105a.jpg,dist2,lure,dist1,target,0,1,1,1,0,0,0,36,,,,,348.84224050003104,348.84224050003104,351.8312105999794,352.8648331000004,352.8648331000004,352.8648331000004,352.8648331000004,352.8648331000004,352.8648331000004,352.8648331000004,352.8648331000004,352.8648331000004,352.8648331000004,352.8648331000004,352.8648331000004,f,2.9136317999800667,lure,None,,,,,,57,10,8,5,345.4299227000447,345.4299227000447,space,3.362892400007695,,,student1,2022-10-25_14h14.23.057,Hippopolis_4AFCT,2022.2.4,60.17415605157809,
Camponello,stimuli/subj_files/student1_cityB.csv,./stimuli/leipzig.jpg,./stimuli/street_plate2.png,TÉRKÉP UTCA,stimuli/scenes/013a.jpg,scene,0,stimuli/scenes/013a.jpg,stimuli/scenes/006b.jpg,stimuli/scenes/006a.jpg,stimuli/scenes/013a.jpg,stimuli/scenes/013b.jpg,dist2,dist1,target,lure,0,1,1,1,0,1,1,63,,,,,,,355.79620450001676,356.81217309995554,356.81217309995554,356.81217309995554,356.81217309995554,356.81217309995554,356.81217309995554,356.81217309995554,356.81217309995554,356.81217309995554,356.81217309995554,356.81217309995554,356.81217309995554,j,2.1532947999658063,target,None,356.81217309995554,,,,,,,,,,,,,,,student1,2022-10-25_14h14.23.057,Hippopolis_4AFCT,2022.2.4,60.17415605157809,
Camponello,stimuli/subj_files/student1_cityB.csv,./stimuli/leipzig.jpg,./stimuli/street_plate2.png,TÁSKA UTCA,stimuli/objects/110a.jpg,object,2,stimuli/scenes/079a.jpg,stimuli/scenes/079a.jpg,stimuli/objects/037b.jpg,stimuli/objects/037a.jpg,stimuli/scenes/079b.jpg,target,dist2,dist1,lure,0,1,1,1,0,2,2,33,,,,,,,358.99593480001204,360.0090420000488,360.0090420000488,360.0090420000488,360.0090420000488,360.0090420000488,360.0090420000488,360.0090420000488,360.0090420000488,360.0090420000488,360.0090420000488,360.0090420000488,360.0090420000488,d,2.3908504999708384,target,None,360.0090420000488,,,,,,,,,,,,,,,student1,2022-10-25_14h14.23.057,Hippopolis_4AFCT,2022.2.4,60.17415605157809,
Camponello,stimuli/subj_files/student1_cityB.csv,./stimuli/leipzig.jpg,./stimuli/street_plate2.png,TISZTÁS UTCA,stimuli/objects/116a.jpg,object,0,stimuli/objects/116a.jpg,stimuli/objects/058a.jpg,stimuli/objects/116a.jpg,stimuli/objects/116b.jpg,stimuli/objects/058b.jpg,dist1,target,lure,dist2,0,1,1,1,0,3,3,18,,,,,,,362.42922499997076,363.44113549997564,363.44113549997564,363.44113549997564,363.44113549997564,363.44113549997564,363.44113549997564,363.44113549997564,363.44113549997564,363.44113549997564,363.44113549997564,363.44113549997564,363.44113549997564,f,3.213942800066434,target,None,363.44113549997564,,,,,,,,,,,,,,,student1,2022-10-25_14h14.23.057,Hippopolis_4AFCT,2022.2.4,60.17415605157809,
Camponello,stimuli/subj_files/student1_cityB.csv,./stimuli/leipzig.jpg,./stimuli/street_plate2.png,PAPRIKA UTCA,stimuli/objects/033a.jpg,object,0,stimuli/objects/033a.jpg,stimuli/scenes/023a.jpg,stimuli/objects/033b.jpg,stimuli/scenes/023b.jpg,stimuli/objects/033a.jpg,dist1,lure,dist2,target,0,1,1,1,0,4,4,30,,,,,,,366.6794667999493,367.7003231999697,367.7003231999697,367.7003231999697,367.7003231999697,367.7003231999697,367.7003231999697,367.7003231999697,367.7003231999697,367.7003231999697,367.7003231999697,367.7003231999697,367.7003231999697,f,3.895469899987802,lure,None,367.7003231999697,371.18051380000543,,,,,,,,,,,,,,student1,2022-10-25_14h14.23.057,Hippopolis_4AFCT,2022.2.4,60.17415605157809,
Camponello,stimuli/subj_files/student1_cityB.csv,./stimuli/leipzig.jpg,./stimuli/street_plate2.png,BOHÓC UTCA,stimuli/objects/064a.jpg,object,0,stimuli/objects/064a.jpg,stimuli/objects/040b.jpg,stimuli/objects/040a.jpg,stimuli/objects/064a.jpg,stimuli/objects/064b.jpg,dist2,dist1,target,lure,0,1,1,1,0,5,5,17,,,,,,,371.6130000000121,372.6315234999638,372.6315234999638,372.6315234999638,372.6315234999638,372.6315234999638,372.6315234999638,372.6315234999638,372.6315234999638,372.6315234999638,372.6315234999638,372.6315234999638,372.6315234999638,j,3.501294800080359,target,None,372.6315234999638,376.11356239998713,,,,,,,,,,,,,,student1,2022-10-25_14h14.23.057,Hippopolis_4AFCT,2022.2.4,60.17415605157809,
Camponello,stimuli/subj_files/student1_cityB.csv,./stimuli/leipzig.jpg,./stimuli/street_plate2.png,TÜKÖR UTCA,stimuli/scenes/006a.jpg,scene,0,stimuli/scenes/006a.jpg,stimuli/objects/116b.jpg,stimuli/objects/116a.jpg,stimuli/scenes/006a.jpg,stimuli/scenes/006b.jpg,dist2,dist1,target,lure,0,1,1,1,0,6,6,25,,,,,,,376.1626200999599,377.17123320000246,377.17123320000246,377.17123320000246,377.17123320000246,377.17123320000246,377.17123320000246,377.17123320000246,377.17123320000246,377.17123320000246,377.17123320000246,377.17123320000246,377.17123320000246,j,3.110587599920109,target,None,377.17123320000246,,,,,,,,,,,,,,,student1,2022-10-25_14h14.23.057,Hippopolis_4AFCT,2022.2.4,60.17415605157809,
Camponello,stimuli/subj_files/student1_cityB.csv,./stimuli/leipzig.jpg,./stimuli/street_plate2.png,KOCSI UTCA,stimuli/scenes/114a.jpg,scene,0,stimuli/scenes/114a.jpg,stimuli/objects/082b.jpg,stimuli/scenes/114b.jpg,stimuli/scenes/114a.jpg,stimuli/objects/082a.jpg,dist2,lure,target,dist1,0,1,1,1,0,7,7,69,,,,,,,380.31227480003145,381.34744289994705,381.34744289994705,381.34744289994705,381.34744289994705,381.34744289994705,381.34744289994705,381.34744289994705,381.34744289994705,381.34744289994705,381.34744289994705,381.34744289994705,381.34744289994705,j,2.487144700018689,target,None,381.34744289994705,,,,,,,,,,,,,,,student1,2022-10-25_14h14.23.057,Hippopolis_4AFCT,2022.2.4,60.17415605157809,
Camponello,stimuli/subj_files/student1_cityB.csv,./stimuli/leipzig.jpg,./stimuli/street_plate2.png,TIGRIS UTCA,stimuli/scenes/021a.jpg,scene,0,stimuli/scenes/021a.jpg,stimuli/scenes/022b.jpg,stimuli/scenes/021a.jpg,stimuli/scenes/021b.jpg,stimuli/scenes/022a.jpg,dist2,target,lure,dist1,0,1,1,1,0,8,8,68,,,,,,,383.8626552999485,384.87439550005365,384.87439550005365,384.87439550005365,384.87439550005365,384.87439550005365,384.87439550005365,384.87439550005365,384.87439550005365,384.87439550005365,384.87439550005365,384.87439550005365,384.87439550005365,d,3.987949899979867,dist2,None,384.87439550005365,388.3633583999472,,,,,,,,,,,,,,student1,2022-10-25_14h14.23.057,Hippopolis_4AFCT,2022.2.4,60.17415605157809,
Camponello,stimuli/subj_files/student1_cityB.csv,./stimuli/leipzig.jpg,./stimuli/street_plate2.png,RIBIZLI UTCA,stimuli/objects/088a.jpg,object,0,stimuli/objects/088a.jpg,stimuli/objects/088b.jpg,stimuli/objects/065a.jpg,stimuli/objects/088a.jpg,stimuli/objects/065b.jpg,lure,dist1,target,dist2,0,1,1,1,0,9,9,34,,,,,,,388.87927399994805,389.8906450000359,389.8906450000359,389.8906450000359,389.8906450000359,389.8906450000359,389.8906450000359,389.8906450000359,389.8906450000359,389.8906450000359,389.8906450000359,389.8906450000359,389.8906450000359,j,2.1162681999849156,target,None,389.8906450000359,,,,,,,,,,,,,,,student1,2022-10-25_14h14.23.057,Hippopolis_4AFCT,2022.2.4,60.17415605157809,
Camponello,stimuli/subj_files/student1_cityB.csv,./stimuli/leipzig.jpg,./stimuli/street_plate2.png,KALAPÁCS UTCA,stimuli/scenes/049a.jpg,scene,0,stimuli/scenes/049a.jpg,stimuli/objects/112b.jpg,stimuli/scenes/049a.jpg,stimuli/objects/112a.jpg,stimuli/scenes/049b.jpg,dist2,target,dist1,lure,0,1,1,1,0,10,10,3,,,,,,,392.0290547000477,393.0542485000333,393.0542485000333,393.0542485000333,393.0542485000333,393.0542485000333,393.0542485000333,393.0542485000333,393.0542485000333,393.0542485000333,393.0542485000333,393.0542485000333,393.0542485000333,f,2.054892700049095,target,None,393.0542485000333,,,,,,,,,,,,,,,student1,2022-10-25_14h14.23.057,Hippopolis_4AFCT,2022.2.4,60.17415605157809,
Camponello,stimuli/subj_files/student1_cityB.csv,./stimuli/leipzig.jpg,./stimuli/street_plate2.png,TELEFON UTCA,stimuli/scenes/017a.jpg,scene,0,stimuli/scenes/017a.jpg,stimuli/objects/094b.jpg,stimuli/scenes/017b.jpg,stimuli/scenes/017a.jpg,stimuli/objects/094a.jpg,dist2,lure,target,dist1,0,1,1,1,0,11,11,27,,,,,,,395.12883309996687,396.1386501999805,396.1386501999805,396.1386501999805,396.1386501999805,396.1386501999805,396.1386501999805,396.1386501999805,396.1386501999805,396.1386501999805,396.1386501999805,396.1386501999805,396.1386501999805,j,3.027214300003834,target,None,396.1386501999805,,,,,,,,,,,,,,,student1,2022-10-25_14h14.23.057,Hippopolis_4AFCT,2022.2.4,60.17415605157809,
Camponello,stimuli/subj_files/student1_cityB.csv,./stimuli/leipzig.jpg,./stimuli/street_plate2.png,MÁRVÁNY UTCA,stimuli/scenes/023a.jpg,scene,0,stimuli/scenes/023a.jpg,stimuli/objects/030a.jpg,stimuli/scenes/023b.jpg,stimuli/objects/030b.jpg,stimuli/scenes/023a.jpg,dist1,lure,dist2,target,0,1,1,1,0,12,12,58,,,,,,,399.19538900000043,400.2076956999954,400.2076956999954,400.2076956999954,400.2076956999954,400.2076956999954,400.2076956999954,400.2076956999954,400.2076956999954,400.2076956999954,400.2076956999954,400.2076956999954,400.2076956999954,k,2.1542759999865666,target,None,400.2076956999954,,,,,,,,,,,,,,,student1,2022-10-25_14h14.23.057,Hippopolis_4AFCT,2022.2.4,60.17415605157809,
Camponello,stimuli/subj_files/student1_cityB.csv,./stimuli/leipzig.jpg,./stimuli/street_plate2.png,KOSÁR UTCA,stimuli/objects/057a.jpg,object,2,stimuli/scenes/001a.jpg,stimuli/scenes/001a.jpg,stimuli/scenes/001b.jpg,stimuli/objects/005b.jpg,stimuli/objects/005a.jpg,target,lure,dist2,dist1,0,1,1,1,0,13,13,38,,,,,,,402.37881300004665,403.3927128999494,403.3927128999494,403.3927128999494,403.3927128999494,403.3927128999494,403.3927128999494,403.3927128999494,403.3927128999494,403.3927128999494,403.3927128999494,403.3927128999494,403.3927128999494,d,3.0279761999845505,target,None,403.3927128999494,,,,,,,,,,,,,,,student1,2022-10-25_14h14.23.057,Hippopolis_4AFCT,2022.2.4,60.17415605157809,
Camponello,stimuli/subj_files/student1_cityB.csv,./stimuli/leipzig.jpg,./stimuli/street_plate2.png,TULIPÁN UTCA,stimuli/objects/058a.jpg,object,0,stimuli/objects/058a.jpg,stimuli/objects/117a.jpg,stimuli/objects/117b.jpg,stimuli/objects/058b.jpg,stimuli/objects/058a.jpg,dist1,dist2,lure,target,0,1,1,1,0,14,14,1,,,,,,,406.44523419998586,407.458567499998,407.458567499998,407.458567499998,407.458567499998,407.458567499998,407.458567499998,407.458567499998,407.458567499998,407.458567499998,407.458567499998,407.458567499998,407.458567499998,k,3.283001699950546,target,None,407.458567499998,,,,,,,,,,,,,,,student1,2022-10-25_14h14.23.057,Hippopolis_4AFCT,2022.2.4,60.17415605157809,
Camponello,stimuli/subj_files/student1_cityB.csv,./stimuli/leipzig.jpg,./stimuli/street_plate2.png,KÓKUSZ UTCA,stimuli/scenes/052a.jpg,scene,0,stimuli/scenes/052a.jpg,stimuli/scenes/052a.jpg,stimuli/objects/077b.jpg,stimuli/objects/077a.jpg,stimuli/scenes/052b.jpg,target,dist2,dist1,lure,0,1,1,1,0,15,15,19,,,,,,,410.7619773000479,411.77443350001704,411.77443350001704,411.77443350001704,411.77443350001704,411.77443350001704,411.77443350001704,411.77443350001704,411.77443350001704,411.77443350001704,411.77443350001704,411.77443350001704,411.77443350001704,d,2.2575894999317825,target,None,411.77443350001704,,,,,,,,,,,,,,,student1,2022-10-25_14h14.23.057,Hippopolis_4AFCT,2022.2.4,60.17415605157809,
Camponello,stimuli/subj_files/student1_cityB.csv,./stimuli/leipzig.jpg,./stimuli/street_plate2.png,FÜZET UTCA,stimuli/scenes/047a.jpg,scene,1,stimuli/scenes/012a.jpg,stimuli/scenes/012b.jpg,stimuli/objects/010b.jpg,stimuli/scenes/012a.jpg,stimuli/objects/010a.jpg,lure,dist2,target,dist1,0,1,1,1,0,16,16,56,,,,,,,414.0618376999628,415.08156620000955,415.08156620000955,415.08156620000955,415.08156620000955,415.08156620000955,415.08156620000955,415.08156620000955,415.08156620000955,415.08156620000955,415.08156620000955,415.08156620000955,415.08156620000955,d,2.8880530999740586,lure,None,415.08156620000955,,,,,,,,,,,,,,,student1,2022-10-25_14h14.23.057,Hippopolis_4AFCT,2022.2.4,60.17415605157809,
Camponello,stimuli/subj_files/student1_cityB.csv,./stimuli/leipzig.jpg,./stimuli/street_plate2.png,KÁRTYA UTCA,stimuli/scenes/076a.jpg,scene,0,stimuli/scenes/076a.jpg,stimuli/objects/008a.jpg,stimuli/scenes/076b.jpg,stimuli/scenes/076a.jpg,stimuli/objects/008b.jpg,dist1,lure,target,dist2,0,1,1,1,0,17,17,64,,,,,,,417.9951699000085,419.0041829999536,419.0041829999536,419.0041829999536,419.0041829999536,419.0041829999536,419.0041829999536,419.0041829999536,419.0041829999536,419.0041829999536,419.0041829999536,419.0041829999536,419.0041829999536,j,3.7602060000644997,target,None,419.0041829999536,422.4958772000391,,,,,,,,,,,,,,student1,2022-10-25_14h14.23.057,Hippopolis_4AFCT,2022.2.4,60.17415605157809,
Camponello,stimuli/subj_files/student1_cityB.csv,./stimuli/leipzig.jpg,./stimuli/street_plate2.png,FEJSZE UTCA,stimuli/objects/065a.jpg,object,0,stimuli/objects/065a.jpg,stimuli/scenes/075b.jpg,stimuli/objects/065b.jpg,stimuli/objects/065a.jpg,stimuli/scenes/075a.jpg,dist2,lure,target,dist1,0,1,1,1,0,18,18,9,,,,,,,422.79513390001375,423.80410369997844,423.80410369997844,423.80410369997844,423.80410369997844,423.80410369997844,423.80410369997844,423.80410369997844,423.80410369997844,423.80410369997844,423.80410369997844,423.80410369997844,423.80410369997844,j,2.6712763000978157,target,None,423.80410369997844,,,,,,,,,,,,,,,student1,2022-10-25_14h14.23.057,Hippopolis_4AFCT,2022.2.4,60.17415605157809,
Camponello,stimuli/subj_files/student1_cityB.csv,./stimuli/leipzig.jpg,./stimuli/street_plate2.png,FOLYÓ UTCA,stimuli/scenes/035a.jpg,scene,0,stimuli/scenes/035a.jpg,stimuli/objects/034a.jpg,stimuli/scenes/035a.jpg,stimuli/objects/034b.jpg,stimuli/scenes/035b.jpg,dist1,target,dist2,lure,0,1,1,1,0,19,19,61,,,,,,,426.4952417999739,427.5211478000274,427.5211478000274,427.5211478000274,427.5211478000274,427.5211478000274,427.5211478000274,427.5211478000274,427.5211478000274,427.5211478000274,427.5211478000274,427.5211478000274,427.5211478000274,d,3.5889213000191376,dist1,None,427.5211478000274,430.9959809000138,,,,,,,,,,,,,,student1,2022-10-25_14h14.23.057,Hippopolis_4AFCT,2022.2.4,60.17415605157809,
Camponello,stimuli/subj_files/student1_cityB.csv,./stimuli/leipzig.jpg,./stimuli/street_plate2.png,LEVÉL UTCA,stimuli/scenes/019a.jpg,scene,0,stimuli/scenes/019a.jpg,stimuli/objects/052a.jpg,stimuli/scenes/019a.jpg,stimuli/scenes/019b.jpg,stimuli/objects/052b.jpg,dist1,target,lure,dist2,0,1,1,1,0,20,20,8,,,,,,,431.12849599996116,432.1422796000261,432.1422796000261,432.1422796000261,432.1422796000261,432.1422796000261,432.1422796000261,432.1422796000261,432.1422796000261,432.1422796000261,432.1422796000261,432.1422796000261,432.1422796000261,f,3.341317299986258,target,None,432.1422796000261,,,,,,,,,,,,,,,student1,2022-10-25_14h14.23.057,Hippopolis_4AFCT,2022.2.4,60.17415605157809,
Camponello,stimuli/subj_files/student1_cityB.csv,./stimuli/leipzig.jpg,./stimuli/street_plate2.png,MAJOM UTCA,stimuli/objects/018a.jpg,object,0,stimuli/objects/018a.jpg,stimuli/objects/018a.jpg,stimuli/scenes/092b.jpg,stimuli/objects/018b.jpg,stimuli/scenes/092a.jpg,target,dist2,lure,dist1,0,1,1,1,0,21,21,78,,,,,,,435.5114683000138,436.54076480004005,436.54076480004005,436.54076480004005,436.54076480004005,436.54076480004005,436.54076480004005,436.54076480004005,436.54076480004005,436.54076480004005,436.54076480004005,436.54076480004005,436.54076480004005,d,2.5785073000006378,target,None,436.54076480004005,,,,,,,,,,,,,,,student1,2022-10-25_14h14.23.057,Hippopolis_4AFCT,2022.2.4,60.17415605157809,
Camponello,stimuli/subj_files/student1_cityB.csv,./stimuli/leipzig.jpg,./stimuli/street_plate2.png,SAJTÓ UTCA,stimuli/scenes/112a.jpg,scene,0,stimuli/scenes/112a.jpg,stimuli/objects/018a.jpg,stimuli/scenes/112b.jpg,stimuli/scenes/112a.jpg,stimuli/objects/018b.jpg,dist1,lure,target,dist2,0,1,1,1,0,22,22,15,,,,,,,439.144823599956,440.15616140002385,440.15616140002385,440.15616140002385,440.15616140002385,440.15616140002385,440.15616140002385,440.15616140002385,440.15616140002385,440.15616140002385,440.15616140002385,440.15616140002385,440.15616140002385,j,1.4986440999200568,target,None,440.15616140002385,,,,,,,,,,,,,,,student1,2022-10-25_14h14.23.057,Hippopolis_4AFCT,2022.2.4,60.17415605157809,
Camponello,stimuli/subj_files/student1_cityB.csv,./stimuli/leipzig.jpg,./stimuli/street_plate2.png,SIRÁLY UTCA,stimuli/objects/081a.jpg,object,0,stimuli/objects/081a.jpg,stimuli/objects/081a.jpg,stimuli/objects/081b.jpg,stimuli/scenes/019a.jpg,stimuli/scenes/019b.jpg,target,lure,dist1,dist2,0,1,1,1,0,23,23,50,,,,,,,441.6779916000087,442.68502590002026,442.68502590002026,442.68502590002026,442.68502590002026,442.68502590002026,442.68502590002026,442.68502590002026,442.68502590002026,442.68502590002026,442.68502590002026,442.68502590002026,442.68502590002026,d,1.98067760001868,target,None,442.68502590002026,,,,,,,,,,,,,,,student1,2022-10-25_14h14.23.057,Hippopolis_4AFCT,2022.2.4,60.17415605157809,
Camponello,stimuli/subj_files/student1_cityB.csv,./stimuli/leipzig.jpg,./stimuli/street_plate2.png,HENTES UTCA,stimuli/scenes/092a.jpg,scene,0,stimuli/scenes/092a.jpg,stimuli/scenes/114b.jpg,stimuli/scenes/114a.jpg,stimuli/scenes/092a.jpg,stimuli/scenes/092b.jpg,dist2,dist1,target,lure,0,1,1,1,0,24,24,46,,,,,,,444.6949592999881,445.7088717999868,445.7088717999868,445.7088717999868,445.7088717999868,445.7088717999868,445.7088717999868,445.7088717999868,445.7088717999868,445.7088717999868,445.7088717999868,445.7088717999868,445.7088717999868,j,1.7043477999977767,target,None,445.7088717999868,,,,,,,,,,,,,,,student1,2022-10-25_14h14.23.057,Hippopolis_4AFCT,2022.2.4,60.17415605157809,
Camponello,stimuli/subj_files/student1_cityB.csv,./stimuli/leipzig.jpg,./stimuli/street_plate2.png,LÉPCSŐ UTCA,stimuli/objects/049a.jpg,object,0,stimuli/objects/049a.jpg,stimuli/scenes/076b.jpg,stimuli/scenes/076a.jpg,stimuli/objects/049b.jpg,stimuli/objects/049a.jpg,dist2,dist1,lure,target,0,1,1,1,0,25,25,43,,,,,,,447.44499410002027,448.4536947000306,448.4536947000306,448.4536947000306,448.4536947000306,448.4536947000306,448.4536947000306,448.4536947000306,448.4536947000306,448.4536947000306,448.4536947000306,448.4536947000306,448.4536947000306,k,3.4210541000356898,target,None,448.4536947000306,,,,,,,,,,,,,,,student1,2022-10-25_14h14.23.057,Hippopolis_4AFCT,2022.2.4,60.17415605157809,
Camponello,stimuli/subj_files/student1_cityB.csv,./stimuli/leipzig.jpg,./stimuli/street_plate2.png,GYŰRŰ UTCA,stimuli/objects/056a.jpg,object,1,stimuli/objects/013a.jpg,stimuli/objects/013b.jpg,stimuli/objects/087b.jpg,stimuli/objects/013a.jpg,stimuli/objects/087a.jpg,lure,dist2,target,dist1,0,1,1,1,0,26,26,22,,,,,,,451.8950451000128,452.9110963999992,452.9110963999992,452.9110963999992,452.9110963999992,452.9110963999992,452.9110963999992,452.9110963999992,452.9110963999992,452.9110963999992,452.9110963999992,452.9110963999992,452.9110963999992,j,2.75398070004303,target,None,452.9110963999992,,,,,,,,,,,,,,,student1,2022-10-25_14h14.23.057,Hippopolis_4AFCT,2022.2.4,60.17415605157809,
Camponello,stimuli/subj_files/student1_cityB.csv,./stimuli/leipzig.jpg,./stimuli/street_plate2.png,VITORLA UTCA,stimuli/scenes/110a.jpg,scene,1,stimuli/scenes/062a.jpg,stimuli/scenes/107a.jpg,stimuli/scenes/107b.jpg,stimuli/scenes/062b.jpg,stimuli/scenes/062a.jpg,dist1,dist2,lure,target,0,1,1,1,0,27,27,45,,,,,,,455.69442079996224,456.7132546999492,456.7132546999492,456.7132546999492,456.7132546999492,456.7132546999492,456.7132546999492,456.7132546999492,456.7132546999492,456.7132546999492,456.7132546999492,456.7132546999492,456.7132546999492,k,3.611227500019595,target,None,456.7132546999492,460.19552760000806,,,,,,,,,,,,,,student1,2022-10-25_14h14.23.057,Hippopolis_4AFCT,2022.2.4,60.17415605157809,
Camponello,stimuli/subj_files/student1_cityB.csv,./stimuli/leipzig.jpg,./stimuli/street_plate2.png,TÁNYÉR UTCA,stimuli/objects/118a.jpg,object,0,stimuli/objects/118a.jpg,stimuli/objects/102b.jpg,stimuli/objects/102a.jpg,stimuli/objects/118b.jpg,stimuli/objects/118a.jpg,dist2,dist1,lure,target,0,1,1,1,0,28,28,28,,,,,,,460.3444141000509,461.35829849995207,461.35829849995207,461.35829849995207,461.35829849995207,461.35829849995207,461.35829849995207,461.35829849995207,461.35829849995207,461.35829849995207,461.35829849995207,461.35829849995207,461.35829849995207,k,2.0659989999840036,target,None,461.35829849995207,,,,,,,,,,,,,,,student1,2022-10-25_14h14.23.057,Hippopolis_4AFCT,2022.2.4,60.17415605157809,
Camponello,stimuli/subj_files/student1_cityB.csv,./stimuli/leipzig.jpg,./stimuli/street_plate2.png,ASZTAL UTCA,stimuli/scenes/120a.jpg,scene,2,stimuli/objects/035a.jpg,stimuli/scenes/079b.jpg,stimuli/scenes/079a.jpg,stimuli/objects/035b.jpg,stimuli/objects/035a.jpg,dist2,dist1,lure,target,0,1,1,1,0,29,29,24,,,,,,,463.4449008000083,464.47323100001086,464.47323100001086,464.47323100001086,464.47323100001086,464.47323100001086,464.47323100001086,464.47323100001086,464.47323100001086,464.47323100001086,464.47323100001086,464.47323100001086,464.47323100001086,j,2.813782799988985,lure,None,464.47323100001086,,,,,,,,,,,,,,,student1,2022-10-25_14h14.23.057,Hippopolis_4AFCT,2022.2.4,60.17415605157809,
Camponello,stimuli/subj_files/student1_cityB.csv,./stimuli/leipzig.jpg,./stimuli/street_plate2.png,SÜTEMÉNY UTCA,stimuli/objects/074a.jpg,object,2,stimuli/scenes/102a.jpg,stimuli/objects/061b.jpg,stimuli/objects/061a.jpg,stimuli/scenes/102a.jpg,stimuli/scenes/102b.jpg,dist2,dist1,target,lure,0,1,1,1,0,30,30,32,,,,,,,467.31112550001126,468.33722330001183,468.33722330001183,468.33722330001183,468.33722330001183,468.33722330001183,468.33722330001183,468.33722330001183,468.33722330001183,468.33722330001183,468.33722330001183,468.33722330001183,468.33722330001183,d,1.9256398000288755,dist2,None,468.33722330001183,,,,,,,,,,,,,,,student1,2022-10-25_14h14.23.057,Hippopolis_4AFCT,2022.2.4,60.17415605157809,
Camponello,stimuli/subj_files/student1_cityB.csv,./stimuli/leipzig.jpg,./stimuli/street_plate2.png,SZÖCSKE UTCA,stimuli/scenes/026a.jpg,scene,2,stimuli/objects/061a.jpg,stimuli/scenes/063a.jpg,stimuli/objects/061a.jpg,stimuli/scenes/063b.jpg,stimuli/objects/061b.jpg,dist1,target,dist2,lure,0,1,1,1,0,31,31,71,,,,,,,470.2943194999825,471.3047806000104,471.3047806000104,471.3047806000104,471.3047806000104,471.3047806000104,471.3047806000104,471.3047806000104,471.3047806000104,471.3047806000104,471.3047806000104,471.3047806000104,471.3047806000104,k,2.8845957999583334,lure,None,471.3047806000104,,,,,,,,,,,,,,,student1,2022-10-25_14h14.23.057,Hippopolis_4AFCT,2022.2.4,60.17415605157809,
Camponello,stimuli/subj_files/student1_cityB.csv,./stimuli/leipzig.jpg,./stimuli/street_plate2.png,FÉSŰ UTCA,stimuli/objects/084a.jpg,object,0,stimuli/objects/084a.jpg,stimuli/objects/118b.jpg,stimuli/objects/118a.jpg,stimuli/objects/084a.jpg,stimuli/objects/084b.jpg,dist2,dist1,target,lure,0,1,1,1,0,32,32,23,,,,,,,474.21097490005195,475.2340491999639,475.2340491999639,475.2340491999639,475.2340491999639,475.2340491999639,475.2340491999639,475.2340491999639,475.2340491999639,475.2340491999639,475.2340491999639,475.2340491999639,475.2340491999639,j,2.6262938999570906,target,None,475.2340491999639,,,,,,,,,,,,,,,student1,2022-10-25_14h14.23.057,Hippopolis_4AFCT,2022.2.4,60.17415605157809,
Camponello,stimuli/subj_files/student1_cityB.csv,./stimuli/leipzig.jpg,./stimuli/street_plate2.png,PALACK UTCA,stimuli/scenes/033a.jpg,scene,1,stimuli/scenes/107a.jpg,stimuli/objects/119b.jpg,stimuli/scenes/107b.jpg,stimuli/objects/119a.jpg,stimuli/scenes/107a.jpg,dist2,lure,dist1,target,0,1,1,1,0,33,33,44,,,,,,,477.8774731999729,478.9066563999513,478.9066563999513,478.9066563999513,478.9066563999513,478.9066563999513,478.9066563999513,478.9066563999513,478.9066563999513,478.9066563999513,478.9066563999513,478.9066563999513,478.9066563999513,d,3.717653000028804,dist2,None,478.9066563999513,482.37850330001675,,,,,,,,,,,,,,student1,2022-10-25_14h14.23.057,Hippopolis_4AFCT,2022.2.4,60.17415605157809,
Camponello,stimuli/subj_files/student1_cityB.csv,./stimuli/leipzig.jpg,./stimuli/street_plate2.png,BETON UTCA,stimuli/objects/104a.jpg,object,2,stimuli/scenes/063a.jpg,stimuli/scenes/063b.jpg,stimuli/scenes/063a.jpg,stimuli/objects/054a.jpg,stimuli/objects/054b.jpg,lure,target,dist1,dist2,0,1,1,1,0,34,34,52,,,,,,,482.64435259997845,483.65690209995955,483.65690209995955,483.65690209995955,483.65690209995955,483.65690209995955,483.65690209995955,483.65690209995955,483.65690209995955,483.65690209995955,483.65690209995955,483.65690209995955,483.65690209995955,d,2.794995700009167,lure,None,483.65690209995955,,,,,,,,,,,,,,,student1,2022-10-25_14h14.23.057,Hippopolis_4AFCT,2022.2.4,60.17415605157809,
Camponello,stimuli/subj_files/student1_cityB.csv,./stimuli/leipzig.jpg,./stimuli/street_plate2.png,TENISZ UTCA,stimuli/objects/102a.jpg,object,0,stimuli/objects/102a.jpg,stimuli/objects/102b.jpg,stimuli/objects/102a.jpg,stimuli/scenes/038a.jpg,stimuli/scenes/038b.jpg,lure,target,dist1,dist2,0,1,1,1,0,35,35,75,,,,,,,486.4775452000322,487.50559770001564,487.50559770001564,487.50559770001564,487.50559770001564,487.50559770001564,487.50559770001564,487.50559770001564,487.50559770001564,487.50559770001564,487.50559770001564,487.50559770001564,487.50559770001564,f,2.434718000004068,target,None,487.50559770001564,,,,,,,,,,,,,,,student1,2022-10-25_14h14.23.057,Hippopolis_4AFCT,2022.2.4,60.17415605157809,
Camponello,stimuli/subj_files/student1_cityB.csv,./stimuli/leipzig.jpg,./stimuli/street_plate2.png,FÜGE UTCA,stimuli/scenes/115a.jpg,scene,0,stimuli/scenes/115a.jpg,stimuli/scenes/115b.jpg,stimuli/scenes/115a.jpg,stimuli/objects/084b.jpg,stimuli/objects/084a.jpg,lure,target,dist2,dist1,0,1,1,1,0,36,36,47,,,,,,,489.9606677000411,490.98599990003277,490.98599990003277,490.98599990003277,490.98599990003277,490.98599990003277,490.98599990003277,490.98599990003277,490.98599990003277,490.98599990003277,490.98599990003277,490.98599990003277,490.98599990003277,f,2.283366199932061,target,None,490.98599990003277,,,,,,,,,,,,,,,student1,2022-10-25_14h14.23.057,Hippopolis_4AFCT,2022.2.4,60.17415605157809,
Camponello,stimuli/subj_files/student1_cityB.csv,./stimuli/leipzig.jpg,./stimuli/street_plate2.png,MOSODA UTCA,stimuli/objects/052a.jpg,object,0,stimuli/objects/052a.jpg,stimuli/objects/052b.jpg,stimuli/scenes/035a.jpg,stimuli/objects/052a.jpg,stimuli/scenes/035b.jpg,lure,dist1,target,dist2,0,1,1,1,0,37,37,51,,,,,,,493.2938823000295,494.3060373000335,494.3060373000335,494.3060373000335,494.3060373000335,494.3060373000335,494.3060373000335,494.3060373000335,494.3060373000335,494.3060373000335,494.3060373000335,494.3060373000335,494.3060373000335,j,4.123240199987777,target,None,494.3060373000335,497.7940660000313,,,,,,,,,,,,,,student1,2022-10-25_14h14.23.057,Hippopolis_4AFCT,2022.2.4,60.17415605157809,
Camponello,stimuli/subj_files/student1_cityB.csv,./stimuli/leipzig.jpg,./stimuli/street_plate2.png,KATONA UTCA,stimuli/objects/077a.jpg,object,0,stimuli/objects/077a.jpg,stimuli/objects/077a.jpg,stimuli/scenes/115a.jpg,stimuli/scenes/115b.jpg,stimuli/objects/077b.jpg,target,dist1,dist2,lure,0,1,1,1,0,38,38,74,,,,,,,498.4605493999552,499.47186619997956,499.47186619997956,499.47186619997956,499.47186619997956,499.47186619997956,499.47186619997956,499.47186619997956,499.47186619997956,499.47186619997956,499.47186619997956,499.47186619997956,499.47186619997956,d,2.212114000110887,target,None,499.47186619997956,,,,,,,,,,,,,,,student1,2022-10-25_14h14.23.057,Hippopolis_4AFCT,2022.2.4,60.17415605157809,
Camponello,stimuli/subj_files/student1_cityB.csv,./stimuli/leipzig.jpg,./stimuli/street_plate2.png,LEMEZ UTCA,stimuli/scenes/022a.jpg,scene,0,stimuli/scenes/022a.jpg,stimuli/scenes/077b.jpg,stimuli/scenes/022a.jpg,stimuli/scenes/022b.jpg,stimuli/scenes/077a.jpg,dist2,target,lure,dist1,0,1,1,1,0,39,39,13,,,,,,,501.71053869999014,502.73562970000785,502.73562970000785,502.73562970000785,502.73562970000785,502.73562970000785,502.73562970000785,502.73562970000785,502.73562970000785,502.73562970000785,502.73562970000785,502.73562970000785,502.73562970000785,f,2.7562268000328913,target,None,502.73562970000785,,,,,,,,,,,,,,,student1,2022-10-25_14h14.23.057,Hippopolis_4AFCT,2022.2.4,60.17415605157809,
Camponello,stimuli/subj_files/student1_cityB.csv,./stimuli/leipzig.jpg,./stimuli/street_plate2.png,BANÁN UTCA,stimuli/scenes/045a.jpg,scene,0,stimuli/scenes/045a.jpg,stimuli/scenes/045b.jpg,stimuli/scenes/045a.jpg,stimuli/scenes/112b.jpg,stimuli/scenes/112a.jpg,lure,target,dist2,dist1,0,1,1,1,0,40,40,57,,,,,,,505.5104877999984,506.52227489999495,506.52227489999495,506.52227489999495,506.52227489999495,506.52227489999495,506.52227489999495,506.52227489999495,506.52227489999495,506.52227489999495,506.52227489999495,506.52227489999495,506.52227489999495,k,2.4274337000679225,dist1,None,506.52227489999495,,,,,,,,,,,,,,,student1,2022-10-25_14h14.23.057,Hippopolis_4AFCT,2022.2.4,60.17415605157809,
Camponello,stimuli/subj_files/student1_cityB.csv,./stimuli/leipzig.jpg,./stimuli/street_plate2.png,KAKAÓ UTCA,stimuli/objects/099a.jpg,object,1,stimuli/objects/119a.jpg,stimuli/scenes/086a.jpg,stimuli/objects/119a.jpg,stimuli/scenes/086b.jpg,stimuli/objects/119b.jpg,dist1,target,dist2,lure,0,1,1,1,0,41,41,0,,,,,,,508.9771526999539,509.9873749000253,509.9873749000253,509.9873749000253,509.9873749000253,509.9873749000253,509.9873749000253,509.9873749000253,509.9873749000253,509.9873749000253,509.9873749000253,509.9873749000253,509.9873749000253,f,3.708270199946128,target,None,509.9873749000253,513.4782077999553,,,,,,,,,,,,,,student1,2022-10-25_14h14.23.057,Hippopolis_4AFCT,2022.2.4,60.17415605157809,
Camponello,stimuli/subj_files/student1_cityB.csv,./stimuli/leipzig.jpg,./stimuli/street_plate2.png,VIHAR UTCA,stimuli/objects/048a.jpg,object,2,stimuli/scenes/054a.jpg,stimuli/scenes/054b.jpg,stimuli/scenes/100b.jpg,stimuli/scenes/054a.jpg,stimuli/scenes/100a.jpg,lure,dist2,target,dist1,0,1,1,1,0,42,42,65,,,,,,,513.7272372000152,514.7357819000026,514.7357819000026,514.7357819000026,514.7357819000026,514.7357819000026,514.7357819000026,514.7357819000026,514.7357819000026,514.7357819000026,514.7357819000026,514.7357819000026,514.7357819000026,j,3.4432063000276685,target,None,514.7357819000026,,,,,,,,,,,,,,,student1,2022-10-25_14h14.23.057,Hippopolis_4AFCT,2022.2.4,60.17415605157809,
Camponello,stimuli/subj_files/student1_cityB.csv,./stimuli/leipzig.jpg,./stimuli/street_plate2.png,HARCSA UTCA,stimuli/scenes/080a.jpg,scene,2,stimuli/objects/029a.jpg,stimuli/scenes/054b.jpg,stimuli/scenes/054a.jpg,stimuli/objects/029b.jpg,stimuli/objects/029a.jpg,dist2,dist1,lure,target,0,1,1,1,0,43,43,59,,,,,,,518.2101065999595,519.2208589999937,519.2208589999937,519.2208589999937,519.2208589999937,519.2208589999937,519.2208589999937,519.2208589999937,519.2208589999937,519.2208589999937,519.2208589999937,519.2208589999937,519.2208589999937,k,2.9910067999735475,target,None,519.2208589999937,,,,,,,,,,,,,,,student1,2022-10-25_14h14.23.057,Hippopolis_4AFCT,2022.2.4,60.17415605157809,
Camponello,stimuli/subj_files/student1_cityB.csv,./stimuli/leipzig.jpg,./stimuli/street_plate2.png,LABDA UTCA,stimuli/objects/082a.jpg,object,0,stimuli/objects/082a.jpg,stimuli/scenes/049a.jpg,stimuli/scenes/049b.jpg,stimuli/objects/082b.jpg,stimuli/objects/082a.jpg,dist1,dist2,lure,target,0,1,1,1,0,44,44,72,,,,,,,522.2434403999941,523.2671519999858,523.2671519999858,523.2671519999858,523.2671519999858,523.2671519999858,523.2671519999858,523.2671519999858,523.2671519999858,523.2671519999858,523.2671519999858,523.2671519999858,523.2671519999858,k,3.12637780001387,target,space,523.2671519999858,,526.4103465999942,526.4103465999942,1.8517407999606803,,,,,,,,,,,student1,2022-10-25_14h14.23.057,Hippopolis_4AFCT,2022.2.4,60.17415605157809,
Camponello,stimuli/subj_files/student1_cityB.csv,./stimuli/leipzig.jpg,./stimuli/street_plate2.png,KESZTYŰ UTCA,stimuli/scenes/040a.jpg,scene,1,stimuli/scenes/105a.jpg,stimuli/objects/096b.jpg,stimuli/scenes/105a.jpg,stimuli/scenes/105b.jpg,stimuli/objects/096a.jpg,dist2,target,lure,dist1,0,1,1,1,0,45,45,16,,,,,,,528.2935084999772,529.2986808000132,529.2986808000132,529.2986808000132,529.2986808000132,529.2986808000132,529.2986808000132,529.2986808000132,529.2986808000132,529.2986808000132,529.2986808000132,529.2986808000132,529.2986808000132,j,4.950663099996746,lure,None,529.2986808000132,532.7942458000034,,,,,,,,,,,,,,student1,2022-10-25_14h14.23.057,Hippopolis_4AFCT,2022.2.4,60.17415605157809,
Camponello,stimuli/subj_files/student1_cityB.csv,./stimuli/leipzig.jpg,./stimuli/street_plate2.png,BÚJÓCSKA UTCA,stimuli/scenes/015a.jpg,scene,1,stimuli/scenes/086a.jpg,stimuli/scenes/105b.jpg,stimuli/scenes/086a.jpg,stimuli/scenes/105a.jpg,stimuli/scenes/086b.jpg,dist2,target,dist1,lure,0,1,1,1,0,46,46,48,,,,,,,534.2764722000575,535.2837018000428,535.2837018000428,535.2837018000428,535.2837018000428,535.2837018000428,535.2837018000428,535.2837018000428,535.2837018000428,535.2837018000428,535.2837018000428,535.2837018000428,535.2837018000428,f,2.6453852999256924,target,None,535.2837018000428,,,,,,,,,,,,,,,student1,2022-10-25_14h14.23.057,Hippopolis_4AFCT,2022.2.4,60.17415605157809,
Camponello,stimuli/subj_files/student1_cityB.csv,./stimuli/leipzig.jpg,./stimuli/street_plate2.png,VÁSÁR UTCA,stimuli/scenes/089a.jpg,scene,0,stimuli/scenes/089a.jpg,stimuli/scenes/089a.jpg,stimuli/scenes/089b.jpg,stimuli/scenes/082b.jpg,stimuli/scenes/082a.jpg,target,lure,dist2,dist1,0,1,1,1,0,47,47,41,,,,,,,537.960208500037,538.9692027999554,538.9692027999554,538.9692027999554,538.9692027999554,538.9692027999554,538.9692027999554,538.9692027999554,538.9692027999554,538.9692027999554,538.9692027999554,538.9692027999554,538.9692027999554,d,2.944273400004022,target,None,538.9692027999554,,,,,,,,,,,,,,,student1,2022-10-25_14h14.23.057,Hippopolis_4AFCT,2022.2.4,60.17415605157809,
Camponello,stimuli/subj_files/student1_cityB.csv,./stimuli/leipzig.jpg,./stimuli/street_plate2.png,LEGELŐ UTCA,stimuli/objects/030a.jpg,object,0,stimuli/objects/030a.jpg,stimuli/objects/039a.jpg,stimuli/objects/030a.jpg,stimuli/objects/030b.jpg,stimuli/objects/039b.jpg,dist1,target,lure,dist2,0,1,1,1,0,48,48,70,,,,,,,541.9430522000184,542.9694692000048,542.9694692000048,542.9694692000048,542.9694692000048,542.9694692000048,542.9694692000048,542.9694692000048,542.9694692000048,542.9694692000048,542.9694692000048,542.9694692000048,542.9694692000048,d,3.3226436000550166,dist1,None,542.9694692000048,,,,,,,,,,,,,,,student1,2022-10-25_14h14.23.057,Hippopolis_4AFCT,2022.2.4,60.17415605157809,
Camponello,stimuli/subj_files/student1_cityB.csv,./stimuli/leipzig.jpg,./stimuli/street_plate2.png,TORONY UTCA,stimuli/scenes/094a.jpg,scene,2,stimuli/objects/054a.jpg,stimuli/scenes/001a.jpg,stimuli/scenes/001b.jpg,stimuli/objects/054b.jpg,stimuli/objects/054a.jpg,dist1,dist2,lure,target,0,1,1,1,0,49,49,62,,,,,,,546.3096466000425,547.3335253000259,547.3335253000259,547.3335253000259,547.3335253000259,547.3335253000259,547.3335253000259,547.3335253000259,547.3335253000259,547.3335253000259,547.3335253000259,547.3335253000259,547.3335253000259,j,4.691370700020343,lure,None,547.3335253000259,550.810698300018,,,,,,,,,,,,,,student1,2022-10-25_14h14.23.057,Hippopolis_4AFCT,2022.2.4,60.17415605157809,
Camponello,stimuli/subj_files/student1_cityB.csv,./stimuli/leipzig.jpg,./stimuli/street_plate2.png,PÁRNA UTCA,stimuli/objects/112a.jpg,object,0,stimuli/objects/112a.jpg,stimuli/objects/112b.jpg,stimuli/scenes/032b.jpg,stimuli/scenes/032a.jpg,stimuli/objects/112a.jpg,lure,dist2,dist1,target,0,1,1,1,0,50,50,77,,,,,,,552.0430688000051,553.0480869000312,553.0480869000312,553.0480869000312,553.0480869000312,553.0480869000312,553.0480869000312,553.0480869000312,553.0480869000312,553.0480869000312,553.0480869000312,553.0480869000312,553.0480869000312,k,2.6127107000211254,target,None,553.0480869000312,,,,,,,,,,,,,,,student1,2022-10-25_14h14.23.057,Hippopolis_4AFCT,2022.2.4,60.17415605157809,
Camponello,stimuli/subj_files/student1_cityB.csv,./stimuli/leipzig.jpg,./stimuli/street_plate2.png,SUGÁR UTCA,stimuli/objects/094a.jpg,object,0,stimuli/objects/094a.jpg,stimuli/objects/094b.jpg,stimuli/objects/064b.jpg,stimuli/objects/064a.jpg,stimuli/objects/094a.jpg,lure,dist2,dist1,target,0,1,1,1,0,51,51,40,,,,,,,555.6764073000522,556.6955062999623,556.6955062999623,556.6955062999623,556.6955062999623,556.6955062999623,556.6955062999623,556.6955062999623,556.6955062999623,556.6955062999623,556.6955062999623,556.6955062999623,556.6955062999623,k,1.9956362000666559,target,None,556.6955062999623,,,,,,,,,,,,,,,student1,2022-10-25_14h14.23.057,Hippopolis_4AFCT,2022.2.4,60.17415605157809,
Camponello,stimuli/subj_files/student1_cityB.csv,./stimuli/leipzig.jpg,./stimuli/street_plate2.png,LOVAGLÁS UTCA,stimuli/objects/019a.jpg,object,0,stimuli/objects/019a.jpg,stimuli/objects/019b.jpg,stimuli/objects/019a.jpg,stimuli/scenes/017b.jpg,stimuli/scenes/017a.jpg,lure,target,dist2,dist1,0,1,1,1,0,52,52,53,,,,,,,558.7096528999973,559.7349096999969,559.7349096999969,559.7349096999969,559.7349096999969,559.7349096999969,559.7349096999969,559.7349096999969,559.7349096999969,559.7349096999969,559.7349096999969,559.7349096999969,559.7349096999969,f,3.7419204999459907,target,None,559.7349096999969,563.2106877999613,,,,,,,,,,,,,,student1,2022-10-25_14h14.23.057,Hippopolis_4AFCT,2022.2.4,60.17415605157809,
Camponello,stimuli/subj_files/student1_cityB.csv,./stimuli/leipzig.jpg,./stimuli/street_plate2.png,POLIP UTCA,stimuli/scenes/077a.jpg,scene,0,stimuli/scenes/077a.jpg,stimuli/scenes/077b.jpg,stimuli/scenes/077a.jpg,stimuli/scenes/091b.jpg,stimuli/scenes/091a.jpg,lure,target,dist2,dist1,0,1,1,1,0,53,53,49,,,,,,,563.4925891000312,564.5104174000444,564.5104174000444,564.5104174000444,564.5104174000444,564.5104174000444,564.5104174000444,564.5104174000444,564.5104174000444,564.5104174000444,564.5104174000444,564.5104174000444,564.5104174000444,f,1.9713914999738336,target,None,564.5104174000444,,,,,,,,,,,,,,,student1,2022-10-25_14h14.23.057,Hippopolis_4AFCT,2022.2.4,60.17415605157809,
Camponello,stimuli/subj_files/student1_cityB.csv,./stimuli/leipzig.jpg,./stimuli/street_plate2.png,TOLMÁCS UTCA,stimuli/scenes/082a.jpg,scene,0,stimuli/scenes/082a.jpg,stimuli/scenes/082b.jpg,stimuli/objects/081b.jpg,stimuli/objects/081a.jpg,stimuli/scenes/082a.jpg,lure,dist2,dist1,target,0,1,1,1,0,54,54,2,,,,,,,566.5096084000543,567.5155405000551,567.5155405000551,567.5155405000551,567.5155405000551,567.5155405000551,567.5155405000551,567.5155405000551,567.5155405000551,567.5155405000551,567.5155405000551,567.5155405000551,567.5155405000551,k,2.0463196999626234,target,None,567.5155405000551,,,,,,,,,,,,,,,student1,2022-10-25_14h14.23.057,Hippopolis_4AFCT,2022.2.4,60.17415605157809,
Camponello,stimuli/subj_files/student1_cityB.csv,./stimuli/leipzig.jpg,./stimuli/street_plate2.png,KUTYA UTCA,stimuli/scenes/030a.jpg,scene,0,stimuli/scenes/030a.jpg,stimuli/scenes/030b.jpg,stimuli/scenes/052b.jpg,stimuli/scenes/052a.jpg,stimuli/scenes/030a.jpg,lure,dist2,dist1,target,0,1,1,1,0,55,55,35,,,,,,,569.5925351000624,570.6000567000592,570.6000567000592,570.6000567000592,570.6000567000592,570.6000567000592,570.6000567000592,570.6000567000592,570.6000567000592,570.6000567000592,570.6000567000592,570.6000567000592,570.6000567000592,k,2.5176751000108197,target,None,570.6000567000592,,,,,,,,,,,,,,,student1,2022-10-25_14h14.23.057,Hippopolis_4AFCT,2022.2.4,60.17415605157809,
Camponello,stimuli/subj_files/student1_cityB.csv,./stimuli/leipzig.jpg,./stimuli/street_plate2.png,ÁLLOMÁS UTCA,stimuli/scenes/069a.jpg,scene,0,stimuli/scenes/069a.jpg,stimuli/scenes/106a.jpg,stimuli/scenes/106b.jpg,stimuli/scenes/069b.jpg,stimuli/scenes/069a.jpg,dist1,dist2,lure,target,0,1,1,1,0,56,56,42,,,,,,,573.142493500025,574.15159090003,574.15159090003,574.15159090003,574.15159090003,574.15159090003,574.15159090003,574.15159090003,574.15159090003,574.15159090003,574.15159090003,574.15159090003,574.15159090003,j,2.7694806000217795,lure,None,574.15159090003,,,,,,,,,,,,,,,student1,2022-10-25_14h14.23.057,Hippopolis_4AFCT,2022.2.4,60.17415605157809,
Camponello,stimuli/subj_files/student1_cityB.csv,./stimuli/leipzig.jpg,./stimuli/street_plate2.png,KÍGYÓ UTCA,stimuli/scenes/032a.jpg,scene,0,stimuli/scenes/032a.jpg,stimuli/scenes/032a.jpg,stimuli/objects/088a.jpg,stimuli/scenes/032b.jpg,stimuli/objects/088b.jpg,target,dist1,lure,dist2,0,1,1,1,0,57,57,76,,,,,,,576.9423916999949,577.9490085999714,577.9490085999714,577.9490085999714,577.9490085999714,577.9490085999714,577.9490085999714,577.9490085999714,577.9490085999714,577.9490085999714,577.9490085999714,577.9490085999714,577.9490085999714,d,1.8370882000308484,target,None,577.9490085999714,,,,,,,,,,,,,,,student1,2022-10-25_14h14.23.057,Hippopolis_4AFCT,2022.2.4,60.17415605157809,
Camponello,stimuli/subj_files/student1_cityB.csv,./stimuli/leipzig.jpg,./stimuli/street_plate2.png,REPÜLŐ UTCA,stimuli/scenes/098a.jpg,scene,0,stimuli/scenes/098a.jpg,stimuli/scenes/013a.jpg,stimuli/scenes/013b.jpg,stimuli/scenes/098a.jpg,stimuli/scenes/098b.jpg,dist1,dist2,target,lure,0,1,1,1,0,58,58,66,,,,,,,579.8091967999935,580.8185428000288,580.8185428000288,580.8185428000288,580.8185428000288,580.8185428000288,580.8185428000288,580.8185428000288,580.8185428000288,580.8185428000288,580.8185428000288,580.8185428000288,580.8185428000288,j,2.652417099918239,target,None,580.8185428000288,,,,,,,,,,,,,,,student1,2022-10-25_14h14.23.057,Hippopolis_4AFCT,2022.2.4,60.17415605157809,
Camponello,stimuli/subj_files/student1_cityB.csv,./stimuli/leipzig.jpg,./stimuli/street_plate2.png,SZOBOR UTCA,stimuli/objects/031a.jpg,object,1,stimuli/objects/010a.jpg,stimuli/objects/010a.jpg,stimuli/objects/044b.jpg,stimuli/objects/044a.jpg,stimuli/objects/010b.jpg,target,dist2,dist1,lure,0,1,1,1,0,59,59,79,,,,,,,583.4922502000118,584.5211022000294,584.5211022000294,584.5211022000294,584.5211022000294,584.5211022000294,584.5211022000294,584.5211022000294,584.5211022000294,584.5211022000294,584.5211022000294,584.5211022000294,584.5211022000294,j,2.725990099948831,dist1,None,584.5211022000294,,,,,,,,,,,,,,,student1,2022-10-25_14h14.23.057,Hippopolis_4AFCT,2022.2.4,60.17415605157809,
