CityName,StimuliFile,CityImage,StreetSign,Cue,Image,Category,Novelty,UpdateImage,TestImage1,TestImage2,TestImage3,TestImage4,TestImage1Type,TestImage2Type,TestImage3Type,TestImage4Type,CityBlock.thisRepN,CityBlock.thisTrialN,CityBlock.thisN,CityBlock.thisIndex,LearningTrials.thisRepN,LearningTrials.thisTrialN,LearningTrials.thisN,LearningTrials.thisIndex,trials.thisRepN,trials.thisTrialN,trials.thisN,trials.thisIndex,learning_instructions_text.started,intro_key.started,intro_key.keys,intro_key.rt,cityname_text.started,city_image.started,fx_cross.started,plate.started,city_text.started,street_text.started,learning_image.started,short_break_key.keys,fx_cross.stopped,short_break_text.started,short_break_key.started,short_break_key.rt,plate.stopped,city_text.stopped,street_text.stopped,learning_image.stopped,test_text.started,key_resp.started,key_resp.keys,key_resp.rt,plate_test.started,city_text_test.started,street_text_test.started,test_question.started,test_key_resp.started,button_image.started,test_key_resp.keys,verbal_test_key_resp.keys,test_key_resp.rt,plate_verbal.started,street_text_verbal.started,city_text_verbal.started,question_verbal.started,verbal_test_key_resp.started,verbal_test_key_resp.rt,plate_test.stopped,city_text_test.stopped,street_text_test.stopped,test_question.stopped,test_key_resp.stopped,button_image.stopped,n_remembered,break_text.started,break_key_resp.started,break_key_resp.keys,break_key_resp.rt,end_text.started,end_text.stopped,participant,date,expName,psychopyVersion,frameRate,
,,,,,,,,,,,,,,,,,,,,,,,,,,,,,23.74235860002227,23.74235860002227,space,9.1389248999767,,,,,,,,,,,,,,,,,,,,,,,,,,,,,,,,,,,,,,,,,,,,,,,,,student1,2022-10-25_11h17.08.736,Hippopolis_Learning,2022.2.4,60.14031939748861,
Hippopolis,stimuli/subj_files/student1_cityA.csv,./stimuli/frankfurt.jpg,./stimuli/street_plate1.png,NARANCS UTCA,stimuli/objects/017a.jpg,object,1,stimuli/objects/075a.jpg,stimuli/objects/075a.jpg,stimuli/scenes/041b.jpg,stimuli/scenes/041a.jpg,stimuli/objects/075b.jpg,target,dist2,dist1,lure,0,0,0,0,0,0,0,76,,,,,,,,,32.97711049998179,32.97711049998179,35.913620900013484,36.95175190002192,36.95175190002192,36.95175190002192,36.95175190002192,None,,,,,,,,,,,,,,,,,,,,,,,,,,,,,,,,,,,,,,,,,student1,2022-10-25_11h17.08.736,Hippopolis_Learning,2022.2.4,60.14031939748861,
Hippopolis,stimuli/subj_files/student1_cityA.csv,./stimuli/frankfurt.jpg,./stimuli/street_plate1.png,KERÉK UTCA,stimuli/scenes/096a.jpg,scene,1,stimuli/scenes/041a.jpg,stimuli/scenes/117a.jpg,stimuli/scenes/041b.jpg,stimuli/scenes/041a.jpg,stimuli/scenes/117b.jpg,dist1,lure,target,dist2,0,0,0,0,0,1,1,20,,,,,,,,,,,39.92104659997858,40.92386209999677,40.92386209999677,40.92386209999677,40.92386209999677,None,40.92386209999677,,,,,,,,,,,,,,,,,,,,,,,,,,,,,,,,,,,,,,,,student1,2022-10-25_11h17.08.736,Hippopolis_Learning,2022.2.4,60.14031939748861,
Hippopolis,stimuli/subj_files/student1_cityA.csv,./stimuli/frankfurt.jpg,./stimuli/street_plate1.png,BOLYGÓ UTCA,stimuli/scenes/118a.jpg,scene,1,stimuli/scenes/087a.jpg,stimuli/objects/011a.jpg,stimuli/scenes/087b.jpg,stimuli/objects/011b.jpg,stimuli/scenes/087a.jpg,dist1,lure,dist2,target,0,0,0,0,0,2,2,31,,,,,,,,,,,43.93763229995966,44.94150409998838,44.94150409998838,44.94150409998838,44.94150409998838,None,44.94150409998838,,,,,,,,,,,,,,,,,,,,,,,,,,,,,,,,,,,,,,,,student1,2022-10-25_11h17.08.736,Hippopolis_Learning,2022.2.4,60.14031939748861,
Hippopolis,stimuli/subj_files/student1_cityA.csv,./stimuli/frankfurt.jpg,./stimuli/street_plate1.png,OROSZLÁN UTCA,stimuli/scenes/072a.jpg,scene,0,stimuli/scenes/072a.jpg,stimuli/scenes/072a.jpg,stimuli/scenes/072b.jpg,stimuli/scenes/027b.jpg,stimuli/scenes/027a.jpg,target,lure,dist2,dist1,0,0,0,0,0,3,3,66,,,,,,,,,,,47.954475600039586,48.959785699960776,48.959785699960776,48.959785699960776,48.959785699960776,None,48.959785699960776,,,,,,,,,,,,,,,,,,,,,,,,,,,,,,,,,,,,,,,,student1,2022-10-25_11h17.08.736,Hippopolis_Learning,2022.2.4,60.14031939748861,
Hippopolis,stimuli/subj_files/student1_cityA.csv,./stimuli/frankfurt.jpg,./stimuli/street_plate1.png,VASALÓ UTCA,stimuli/objects/025a.jpg,object,2,stimuli/scenes/056a.jpg,stimuli/scenes/044a.jpg,stimuli/scenes/056b.jpg,stimuli/scenes/056a.jpg,stimuli/scenes/044b.jpg,dist1,lure,target,dist2,0,0,0,0,0,4,4,70,,,,,,,,,,,51.970972100039944,52.97763850004412,52.97763850004412,52.97763850004412,52.97763850004412,None,52.97763850004412,,,,,,,,,,,,,,,,,,,,,,,,,,,,,,,,,,,,,,,,student1,2022-10-25_11h17.08.736,Hippopolis_Learning,2022.2.4,60.14031939748861,
Hippopolis,stimuli/subj_files/student1_cityA.csv,./stimuli/frankfurt.jpg,./stimuli/street_plate1.png,BAGOLY UTCA,stimuli/scenes/029a.jpg,scene,2,stimuli/objects/028a.jpg,stimuli/objects/028b.jpg,stimuli/objects/028a.jpg,stimuli/scenes/028a.jpg,stimuli/scenes/028b.jpg,lure,target,dist1,dist2,0,0,0,0,0,5,5,21,,,,,,,,,,,55.98788220004644,56.995024999952875,56.995024999952875,56.995024999952875,56.995024999952875,None,56.995024999952875,,,,,,,,,,,,,,,,,,,,,,,,,,,,,,,,,,,,,,,,student1,2022-10-25_11h17.08.736,Hippopolis_Learning,2022.2.4,60.14031939748861,
Hippopolis,stimuli/subj_files/student1_cityA.csv,./stimuli/frankfurt.jpg,./stimuli/street_plate1.png,LÉTRA UTCA,stimuli/objects/047a.jpg,object,1,stimuli/objects/015a.jpg,stimuli/objects/108b.jpg,stimuli/objects/015b.jpg,stimuli/objects/108a.jpg,stimuli/objects/015a.jpg,dist2,lure,dist1,target,0,0,0,0,0,6,6,33,,,,,,,,,,,60.00419700006023,61.01516569999512,61.01516569999512,61.01516569999512,61.01516569999512,None,61.01516569999512,,,,,,,,,,,,,,,,,,,,,,,,,,,,,,,,,,,,,,,,student1,2022-10-25_11h17.08.736,Hippopolis_Learning,2022.2.4,60.14031939748861,
Hippopolis,stimuli/subj_files/student1_cityA.csv,./stimuli/frankfurt.jpg,./stimuli/street_plate1.png,ÁRNYÉK UTCA,stimuli/objects/020a.jpg,object,1,stimuli/objects/027a.jpg,stimuli/scenes/004a.jpg,stimuli/objects/027b.jpg,stimuli/objects/027a.jpg,stimuli/scenes/004b.jpg,dist1,lure,target,dist2,0,0,0,0,0,7,7,52,,,,,,,,,,,64.02102059999015,65.0319213999901,65.0319213999901,65.0319213999901,65.0319213999901,None,65.0319213999901,,,,,,,,,,,,,,,,,,,,,,,,,,,,,,,,,,,,,,,,student1,2022-10-25_11h17.08.736,Hippopolis_Learning,2022.2.4,60.14031939748861,
Hippopolis,stimuli/subj_files/student1_cityA.csv,./stimuli/frankfurt.jpg,./stimuli/street_plate1.png,VÖDÖR UTCA,stimuli/scenes/055a.jpg,scene,1,stimuli/scenes/088a.jpg,stimuli/scenes/088b.jpg,stimuli/scenes/088a.jpg,stimuli/scenes/087b.jpg,stimuli/scenes/087a.jpg,lure,target,dist2,dist1,0,0,0,0,0,8,8,56,,,,,,,,,,,68.03759690001607,69.0466820000438,69.0466820000438,69.0466820000438,69.0466820000438,None,69.0466820000438,,,,,,,,,,,,,,,,,,,,,,,,,,,,,,,,,,,,,,,,student1,2022-10-25_11h17.08.736,Hippopolis_Learning,2022.2.4,60.14031939748861,
Hippopolis,stimuli/subj_files/student1_cityA.csv,./stimuli/frankfurt.jpg,./stimuli/street_plate1.png,PÉKSÉG UTCA,stimuli/scenes/073a.jpg,scene,2,stimuli/objects/059a.jpg,stimuli/objects/059a.jpg,stimuli/objects/046b.jpg,stimuli/objects/059b.jpg,stimuli/objects/046a.jpg,target,dist2,lure,dist1,0,0,0,0,0,9,9,61,,,,,,,,,,,72.05443659995217,73.06077650003135,73.06077650003135,73.06077650003135,73.06077650003135,None,73.06077650003135,,,,,,,,,,,,,,,,,,,,,,,,,,,,,,,,,,,,,,,,student1,2022-10-25_11h17.08.736,Hippopolis_Learning,2022.2.4,60.14031939748861,
Hippopolis,stimuli/subj_files/student1_cityA.csv,./stimuli/frankfurt.jpg,./stimuli/street_plate1.png,FÉNYKÉP UTCA,stimuli/scenes/010a.jpg,scene,1,stimuli/scenes/078a.jpg,stimuli/scenes/088a.jpg,stimuli/scenes/078a.jpg,stimuli/scenes/088b.jpg,stimuli/scenes/078b.jpg,dist1,target,dist2,lure,0,0,0,0,0,10,10,32,,,,,,,,,,,76.07079150003847,77.0752621999709,77.0752621999709,77.0752621999709,77.0752621999709,None,77.0752621999709,,,,,,,,,,,,,,,,,,,,,,,,,,,,,,,,,,,,,,,,student1,2022-10-25_11h17.08.736,Hippopolis_Learning,2022.2.4,60.14031939748861,
Hippopolis,stimuli/subj_files/student1_cityA.csv,./stimuli/frankfurt.jpg,./stimuli/street_plate1.png,KIRAKÓ UTCA,stimuli/objects/079a.jpg,object,2,stimuli/scenes/070a.jpg,stimuli/scenes/070a.jpg,stimuli/scenes/070b.jpg,stimuli/objects/043b.jpg,stimuli/objects/043a.jpg,target,lure,dist2,dist1,0,0,0,0,0,11,11,57,,,,,,,,,,,80.08726669999305,81.10465460002888,81.10465460002888,81.10465460002888,81.10465460002888,None,81.10465460002888,,,,,,,,,,,,,,,,,,,,,,,,,,,,,,,,,,,,,,,,student1,2022-10-25_11h17.08.736,Hippopolis_Learning,2022.2.4,60.14031939748861,
Hippopolis,stimuli/subj_files/student1_cityA.csv,./stimuli/frankfurt.jpg,./stimuli/street_plate1.png,KÖMÉNYMAG UTCA,stimuli/objects/068a.jpg,object,1,stimuli/objects/045a.jpg,stimuli/objects/045a.jpg,stimuli/objects/045b.jpg,stimuli/objects/071a.jpg,stimuli/objects/071b.jpg,target,lure,dist1,dist2,0,0,0,0,0,12,12,18,,,,,,,,,,,84.10412170004565,85.12179690005723,85.12179690005723,85.12179690005723,85.12179690005723,None,85.12179690005723,,,,,,,,,,,,,,,,,,,,,,,,,,,,,,,,,,,,,,,,student1,2022-10-25_11h17.08.736,Hippopolis_Learning,2022.2.4,60.14031939748861,
Hippopolis,stimuli/subj_files/student1_cityA.csv,./stimuli/frankfurt.jpg,./stimuli/street_plate1.png,HORDÓ UTCA,stimuli/scenes/095a.jpg,scene,0,stimuli/scenes/095a.jpg,stimuli/scenes/095a.jpg,stimuli/scenes/046a.jpg,stimuli/scenes/095b.jpg,stimuli/scenes/046b.jpg,target,dist1,lure,dist2,0,0,0,0,0,13,13,27,,,,,,,,,,,88.12057769997045,89.12747579999268,89.12747579999268,89.12747579999268,89.12747579999268,None,89.12747579999268,,,,,,,,,,,,,,,,,,,,,,,,,,,,,,,,,,,,,,,,student1,2022-10-25_11h17.08.736,Hippopolis_Learning,2022.2.4,60.14031939748861,
Hippopolis,stimuli/subj_files/student1_cityA.csv,./stimuli/frankfurt.jpg,./stimuli/street_plate1.png,HÁRFA UTCA,stimuli/objects/083a.jpg,object,2,stimuli/scenes/028a.jpg,stimuli/scenes/028b.jpg,stimuli/objects/012b.jpg,stimuli/objects/012a.jpg,stimuli/scenes/028a.jpg,lure,dist2,dist1,target,0,0,0,0,0,14,14,16,,,,,,,,,,,92.13738740002736,93.15627000003587,93.15627000003587,93.15627000003587,93.15627000003587,None,93.15627000003587,,,,,,,,,,,,,,,,,,,,,,,,,,,,,,,,,,,,,,,,student1,2022-10-25_11h17.08.736,Hippopolis_Learning,2022.2.4,60.14031939748861,
Hippopolis,stimuli/subj_files/student1_cityA.csv,./stimuli/frankfurt.jpg,./stimuli/street_plate1.png,PAPAGÁJ UTCA,stimuli/objects/093a.jpg,object,2,stimuli/scenes/097a.jpg,stimuli/scenes/097a.jpg,stimuli/scenes/109b.jpg,stimuli/scenes/109a.jpg,stimuli/scenes/097b.jpg,target,dist2,dist1,lure,0,0,0,0,0,15,15,55,,,,,,,,,,,96.15383419999853,97.16103309998289,97.16103309998289,97.16103309998289,97.16103309998289,None,97.16103309998289,,,,,,,,,,,,,,,,,,,,,,,,,,,,,,,,,,,,,,,,student1,2022-10-25_11h17.08.736,Hippopolis_Learning,2022.2.4,60.14031939748861,
Hippopolis,stimuli/subj_files/student1_cityA.csv,./stimuli/frankfurt.jpg,./stimuli/street_plate1.png,CUKOR UTCA,stimuli/objects/111a.jpg,object,0,stimuli/objects/111a.jpg,stimuli/objects/089b.jpg,stimuli/objects/111b.jpg,stimuli/objects/111a.jpg,stimuli/objects/089a.jpg,dist2,lure,target,dist1,0,0,0,0,0,16,16,30,,,,,,,,,,,100.1704946999671,101.18661259999499,101.18661259999499,101.18661259999499,101.18661259999499,None,101.18661259999499,,,,,,,,,,,,,,,,,,,,,,,,,,,,,,,,,,,,,,,,student1,2022-10-25_11h17.08.736,Hippopolis_Learning,2022.2.4,60.14031939748861,
Hippopolis,stimuli/subj_files/student1_cityA.csv,./stimuli/frankfurt.jpg,./stimuli/street_plate1.png,ÁLOM UTCA,stimuli/objects/070a.jpg,object,0,stimuli/objects/070a.jpg,stimuli/objects/070b.jpg,stimuli/objects/114b.jpg,stimuli/objects/114a.jpg,stimuli/objects/070a.jpg,lure,dist2,dist1,target,0,0,0,0,0,17,17,50,,,,,,,,,,,104.18702199996915,105.18920490005985,105.18920490005985,105.18920490005985,105.18920490005985,None,105.18920490005985,,,,,,,,,,,,,,,,,,,,,,,,,,,,,,,,,,,,,,,,student1,2022-10-25_11h17.08.736,Hippopolis_Learning,2022.2.4,60.14031939748861,
Hippopolis,stimuli/subj_files/student1_cityA.csv,./stimuli/frankfurt.jpg,./stimuli/street_plate1.png,PULÓVER UTCA,stimuli/objects/114a.jpg,object,0,stimuli/objects/114a.jpg,stimuli/scenes/050b.jpg,stimuli/scenes/050a.jpg,stimuli/objects/114b.jpg,stimuli/objects/114a.jpg,dist2,dist1,lure,target,0,0,0,0,0,18,18,43,,,,,,,,,,,108.20364580000751,109.20747589995153,109.20747589995153,109.20747589995153,109.20747589995153,None,109.20747589995153,,,,,,,,,,,,,,,,,,,,,,,,,,,,,,,,,,,,,,,,student1,2022-10-25_11h17.08.736,Hippopolis_Learning,2022.2.4,60.14031939748861,
Hippopolis,stimuli/subj_files/student1_cityA.csv,./stimuli/frankfurt.jpg,./stimuli/street_plate1.png,ZSEMLE UTCA,stimuli/objects/115a.jpg,object,1,stimuli/objects/053a.jpg,stimuli/objects/007a.jpg,stimuli/objects/053a.jpg,stimuli/objects/007b.jpg,stimuli/objects/053b.jpg,dist1,target,dist2,lure,0,0,0,0,0,19,19,47,,,,,,,,,,,112.22018479998223,113.2336930000456,113.2336930000456,113.2336930000456,113.2336930000456,None,113.2336930000456,,,,,,,,,,,,,,,,,,,,,,,,,,,,,,,,,,,,,,,,student1,2022-10-25_11h17.08.736,Hippopolis_Learning,2022.2.4,60.14031939748861,
Hippopolis,stimuli/subj_files/student1_cityA.csv,./stimuli/frankfurt.jpg,./stimuli/street_plate1.png,TRIATLON UTCA,stimuli/objects/024a.jpg,object,0,stimuli/objects/024a.jpg,stimuli/objects/024b.jpg,stimuli/objects/080a.jpg,stimuli/objects/024a.jpg,stimuli/objects/080b.jpg,lure,dist1,target,dist2,0,0,0,0,0,20,20,2,,,,,,,,,,,116.23687530006282,117.23966039996594,117.23966039996594,117.23966039996594,117.23966039996594,None,117.23966039996594,,,,,,,,,,,,,,,,,,,,,,,,,,,,,,,,,,,,,,,,student1,2022-10-25_11h17.08.736,Hippopolis_Learning,2022.2.4,60.14031939748861,
Hippopolis,stimuli/subj_files/student1_cityA.csv,./stimuli/frankfurt.jpg,./stimuli/street_plate1.png,MÁLNA UTCA,stimuli/objects/069a.jpg,object,2,stimuli/scenes/053a.jpg,stimuli/objects/073a.jpg,stimuli/objects/073b.jpg,stimuli/scenes/053b.jpg,stimuli/scenes/053a.jpg,dist1,dist2,lure,target,0,0,0,0,0,21,21,14,,,,,,,,,,,120.25302079995163,121.26849759998731,121.26849759998731,121.26849759998731,121.26849759998731,None,121.26849759998731,,,,,,,,,,,,,,,,,,,,,,,,,,,,,,,,,,,,,,,,student1,2022-10-25_11h17.08.736,Hippopolis_Learning,2022.2.4,60.14031939748861,
Hippopolis,stimuli/subj_files/student1_cityA.csv,./stimuli/frankfurt.jpg,./stimuli/street_plate1.png,KOKTÉL UTCA,stimuli/scenes/008a.jpg,scene,2,stimuli/objects/012a.jpg,stimuli/objects/036b.jpg,stimuli/objects/012b.jpg,stimuli/objects/036a.jpg,stimuli/objects/012a.jpg,dist2,lure,dist1,target,0,0,0,0,0,22,22,46,,,,,,,,,,,124.26988190005068,125.28246330004185,125.28246330004185,125.28246330004185,125.28246330004185,None,125.28246330004185,,,,,,,,,,,,,,,,,,,,,,,,,,,,,,,,,,,,,,,,student1,2022-10-25_11h17.08.736,Hippopolis_Learning,2022.2.4,60.14031939748861,
Hippopolis,stimuli/subj_files/student1_cityA.csv,./stimuli/frankfurt.jpg,./stimuli/street_plate1.png,FIÓK UTCA,stimuli/scenes/002a.jpg,scene,1,stimuli/scenes/014a.jpg,stimuli/scenes/014a.jpg,stimuli/objects/004a.jpg,stimuli/objects/004b.jpg,stimuli/scenes/014b.jpg,target,dist1,dist2,lure,0,0,0,0,0,23,23,73,,,,,,,,,,,128.28680010000244,129.28919300006237,129.28919300006237,129.28919300006237,129.28919300006237,None,129.28919300006237,,,,,,,,,,,,,,,,,,,,,,,,,,,,,,,,,,,,,,,,student1,2022-10-25_11h17.08.736,Hippopolis_Learning,2022.2.4,60.14031939748861,
Hippopolis,stimuli/subj_files/student1_cityA.csv,./stimuli/frankfurt.jpg,./stimuli/street_plate1.png,HEGESZTŐ UTCA,stimuli/scenes/043a.jpg,scene,0,stimuli/scenes/043a.jpg,stimuli/scenes/043b.jpg,stimuli/scenes/043a.jpg,stimuli/objects/062a.jpg,stimuli/objects/062b.jpg,lure,target,dist1,dist2,0,0,0,0,0,24,24,77,,,,,,,,,,,132.303269200027,133.30869660002645,133.30869660002645,133.30869660002645,133.30869660002645,None,133.30869660002645,,,,,,,,,,,,,,,,,,,,,,,,,,,,,,,,,,,,,,,,student1,2022-10-25_11h17.08.736,Hippopolis_Learning,2022.2.4,60.14031939748861,
Hippopolis,stimuli/subj_files/student1_cityA.csv,./stimuli/frankfurt.jpg,./stimuli/street_plate1.png,TOBOZ UTCA,stimuli/objects/001a.jpg,object,2,stimuli/scenes/059a.jpg,stimuli/scenes/059a.jpg,stimuli/objects/085a.jpg,stimuli/objects/085b.jpg,stimuli/scenes/059b.jpg,target,dist1,dist2,lure,0,0,0,0,0,25,25,40,,,,,,,,,,,136.31982890004292,137.33537930005696,137.33537930005696,137.33537930005696,137.33537930005696,None,137.33537930005696,,,,,,,,,,,,,,,,,,,,,,,,,,,,,,,,,,,,,,,,student1,2022-10-25_11h17.08.736,Hippopolis_Learning,2022.2.4,60.14031939748861,
Hippopolis,stimuli/subj_files/student1_cityA.csv,./stimuli/frankfurt.jpg,./stimuli/street_plate1.png,MOCSÁR UTCA,stimuli/objects/080a.jpg,object,0,stimuli/objects/080a.jpg,stimuli/objects/080b.jpg,stimuli/objects/080a.jpg,stimuli/scenes/043b.jpg,stimuli/scenes/043a.jpg,lure,target,dist2,dist1,0,0,0,0,0,26,26,17,,,,,,,,,,,140.33661240001675,141.34988949995022,141.34988949995022,141.34988949995022,141.34988949995022,None,141.34988949995022,,,,,,,,,,,,,,,,,,,,,,,,,,,,,,,,,,,,,,,,student1,2022-10-25_11h17.08.736,Hippopolis_Learning,2022.2.4,60.14031939748861,
Hippopolis,stimuli/subj_files/student1_cityA.csv,./stimuli/frankfurt.jpg,./stimuli/street_plate1.png,MOGYORÓ UTCA,stimuli/objects/106a.jpg,object,1,stimuli/objects/103a.jpg,stimuli/scenes/116a.jpg,stimuli/objects/103b.jpg,stimuli/objects/103a.jpg,stimuli/scenes/116b.jpg,dist1,lure,target,dist2,0,0,0,0,0,27,27,54,,,,,,,,,,,144.35308779997285,145.3635471999878,145.3635471999878,145.3635471999878,145.3635471999878,None,145.3635471999878,,,,,,,,,,,,,,,,,,,,,,,,,,,,,,,,,,,,,,,,student1,2022-10-25_11h17.08.736,Hippopolis_Learning,2022.2.4,60.14031939748861,
Hippopolis,stimuli/subj_files/student1_cityA.csv,./stimuli/frankfurt.jpg,./stimuli/street_plate1.png,RÁDIÓ UTCA,stimuli/scenes/068a.jpg,scene,1,stimuli/scenes/067a.jpg,stimuli/scenes/018b.jpg,stimuli/scenes/067a.jpg,stimuli/scenes/067b.jpg,stimuli/scenes/018a.jpg,dist2,target,lure,dist1,0,0,0,0,0,28,28,44,,,,,,,,,,,148.36978439998347,149.38302559999283,149.38302559999283,149.38302559999283,149.38302559999283,None,149.38302559999283,,,,,,,,,,,,,,,,,,,,,,,,,,,,,,,,,,,,,,,,student1,2022-10-25_11h17.08.736,Hippopolis_Learning,2022.2.4,60.14031939748861,
Hippopolis,stimuli/subj_files/student1_cityA.csv,./stimuli/frankfurt.jpg,./stimuli/street_plate1.png,MARTINI UTCA,stimuli/objects/060a.jpg,object,1,stimuli/objects/011a.jpg,stimuli/objects/075b.jpg,stimuli/objects/075a.jpg,stimuli/objects/011b.jpg,stimuli/objects/011a.jpg,dist2,dist1,lure,target,0,0,0,0,0,29,29,60,,,,,,,,,,,152.38608089997433,153.39799680002034,153.39799680002034,153.39799680002034,153.39799680002034,None,153.39799680002034,,,,,,,,,,,,,,,,,,,,,,,,,,,,,,,,,,,,,,,,student1,2022-10-25_11h17.08.736,Hippopolis_Learning,2022.2.4,60.14031939748861,
Hippopolis,stimuli/subj_files/student1_cityA.csv,./stimuli/frankfurt.jpg,./stimuli/street_plate1.png,KÖNYVTÁR UTCA,stimuli/objects/113a.jpg,object,1,stimuli/objects/109a.jpg,stimuli/objects/109a.jpg,stimuli/objects/109b.jpg,stimuli/scenes/067a.jpg,stimuli/scenes/067b.jpg,target,lure,dist1,dist2,0,0,0,0,0,30,30,42,,,,,,,,,,,156.4031086000614,157.40814710000996,157.40814710000996,157.40814710000996,157.40814710000996,None,157.40814710000996,,,,,,,,,,,,,,,,,,,,,,,,,,,,,,,,,,,,,,,,student1,2022-10-25_11h17.08.736,Hippopolis_Learning,2022.2.4,60.14031939748861,
Hippopolis,stimuli/subj_files/student1_cityA.csv,./stimuli/frankfurt.jpg,./stimuli/street_plate1.png,LÁNDZSA UTCA,stimuli/scenes/090a.jpg,scene,0,stimuli/scenes/090a.jpg,stimuli/scenes/090a.jpg,stimuli/objects/091b.jpg,stimuli/scenes/090b.jpg,stimuli/objects/091a.jpg,target,dist2,lure,dist1,0,0,0,0,0,31,31,39,,,,,,,,,,,160.41947800002526,161.42483469995204,161.42483469995204,161.42483469995204,161.42483469995204,None,161.42483469995204,,,,,,,,,,,,,,,,,,,,,,,,,,,,,,,,,,,,,,,,student1,2022-10-25_11h17.08.736,Hippopolis_Learning,2022.2.4,60.14031939748861,
Hippopolis,stimuli/subj_files/student1_cityA.csv,./stimuli/frankfurt.jpg,./stimuli/street_plate1.png,CSILLAG UTCA,stimuli/scenes/083a.jpg,scene,1,stimuli/scenes/117a.jpg,stimuli/scenes/117a.jpg,stimuli/scenes/117b.jpg,stimuli/objects/041a.jpg,stimuli/objects/041b.jpg,target,lure,dist1,dist2,0,0,0,0,0,32,32,15,,,,,,,,,,,164.4362746999832,165.4395535000367,165.4395535000367,165.4395535000367,165.4395535000367,None,165.4395535000367,,,,,,,,,,,,,,,,,,,,,,,,,,,,,,,,,,,,,,,,student1,2022-10-25_11h17.08.736,Hippopolis_Learning,2022.2.4,60.14031939748861,
Hippopolis,stimuli/subj_files/student1_cityA.csv,./stimuli/frankfurt.jpg,./stimuli/street_plate1.png,KARTON UTCA,stimuli/objects/101a.jpg,object,2,stimuli/scenes/044a.jpg,stimuli/scenes/074a.jpg,stimuli/scenes/044b.jpg,stimuli/scenes/044a.jpg,stimuli/scenes/074b.jpg,dist1,lure,target,dist2,0,0,0,0,0,33,33,8,,,,,,,,,,,168.4528986000223,169.4581804999616,169.4581804999616,169.4581804999616,169.4581804999616,None,169.4581804999616,,,,,,,,,,,,,,,,,,,,,,,,,,,,,,,,,,,,,,,,student1,2022-10-25_11h17.08.736,Hippopolis_Learning,2022.2.4,60.14031939748861,
Hippopolis,stimuli/subj_files/student1_cityA.csv,./stimuli/frankfurt.jpg,./stimuli/street_plate1.png,PÁFRÁNY UTCA,stimuli/scenes/101a.jpg,scene,0,stimuli/scenes/101a.jpg,stimuli/scenes/101a.jpg,stimuli/scenes/101b.jpg,stimuli/objects/051a.jpg,stimuli/objects/051b.jpg,target,lure,dist1,dist2,0,0,0,0,0,34,34,0,,,,,,,,,,,172.46928770001978,173.48085950000677,173.48085950000677,173.48085950000677,173.48085950000677,None,173.48085950000677,,,,,,,,,,,,,,,,,,,,,,,,,,,,,,,,,,,,,,,,student1,2022-10-25_11h17.08.736,Hippopolis_Learning,2022.2.4,60.14031939748861,
Hippopolis,stimuli/subj_files/student1_cityA.csv,./stimuli/frankfurt.jpg,./stimuli/street_plate1.png,KORONA UTCA,stimuli/scenes/108a.jpg,scene,1,stimuli/scenes/011a.jpg,stimuli/objects/076a.jpg,stimuli/scenes/011b.jpg,stimuli/objects/076b.jpg,stimuli/scenes/011a.jpg,dist1,lure,dist2,target,0,0,0,0,0,35,35,9,,,,,,,,,,,176.48591289995238,177.48697500000708,177.48697500000708,177.48697500000708,177.48697500000708,None,177.48697500000708,,,,,,,,,,,,,,,,,,,,,,,,,,,,,,,,,,,,,,,,student1,2022-10-25_11h17.08.736,Hippopolis_Learning,2022.2.4,60.14031939748861,
Hippopolis,stimuli/subj_files/student1_cityA.csv,./stimuli/frankfurt.jpg,./stimuli/street_plate1.png,PÁLMAFA UTCA,stimuli/objects/090a.jpg,object,1,stimuli/objects/007a.jpg,stimuli/objects/053a.jpg,stimuli/objects/007a.jpg,stimuli/objects/053b.jpg,stimuli/objects/007b.jpg,dist1,target,dist2,lure,0,0,0,0,0,36,36,12,,,,,,,,,,,180.50220820005052,181.50960840005428,181.50960840005428,181.50960840005428,181.50960840005428,None,181.50960840005428,,,,,,,,,,,,,,,,,,,,,,,,,,,,,,,,,,,,,,,,student1,2022-10-25_11h17.08.736,Hippopolis_Learning,2022.2.4,60.14031939748861,
Hippopolis,stimuli/subj_files/student1_cityA.csv,./stimuli/frankfurt.jpg,./stimuli/street_plate1.png,FÓKA UTCA,stimuli/scenes/058a.jpg,scene,0,stimuli/scenes/058a.jpg,stimuli/scenes/058a.jpg,stimuli/scenes/058b.jpg,stimuli/objects/111b.jpg,stimuli/objects/111a.jpg,target,lure,dist2,dist1,0,0,0,0,0,37,37,51,,,,,,,,,,,184.5192029000027,185.52459020004608,185.52459020004608,185.52459020004608,185.52459020004608,None,185.52459020004608,,,,,,,,,,,,,,,,,,,,,,,,,,,,,,,,,,,,,,,,student1,2022-10-25_11h17.08.736,Hippopolis_Learning,2022.2.4,60.14031939748861,
Hippopolis,stimuli/subj_files/student1_cityA.csv,./stimuli/frankfurt.jpg,./stimuli/street_plate1.png,TOJÁS UTCA,stimuli/objects/021a.jpg,object,2,stimuli/scenes/034a.jpg,stimuli/scenes/034a.jpg,stimuli/objects/059a.jpg,stimuli/objects/059b.jpg,stimuli/scenes/034b.jpg,target,dist1,dist2,lure,0,0,0,0,0,38,38,37,,,,,,,,,,,188.53576160001103,189.54910139995627,189.54910139995627,189.54910139995627,189.54910139995627,None,189.54910139995627,,,,,,,,,,,,,,,,,,,,,,,,,,,,,,,,,,,,,,,,student1,2022-10-25_11h17.08.736,Hippopolis_Learning,2022.2.4,60.14031939748861,
Hippopolis,stimuli/subj_files/student1_cityA.csv,./stimuli/frankfurt.jpg,./stimuli/street_plate1.png,OLDAL UTCA,stimuli/scenes/093a.jpg,scene,2,stimuli/objects/107a.jpg,stimuli/objects/107b.jpg,stimuli/objects/022a.jpg,stimuli/objects/107a.jpg,stimuli/objects/022b.jpg,lure,dist1,target,dist2,0,0,0,0,0,39,39,11,,,,,,,,,,,192.55207810003776,193.57054620003328,193.57054620003328,193.57054620003328,193.57054620003328,None,193.57054620003328,,,,,,,,,,,,,,,,,,,,,,,,,,,,,,,,,,,,,,,,student1,2022-10-25_11h17.08.736,Hippopolis_Learning,2022.2.4,60.14031939748861,
Hippopolis,stimuli/subj_files/student1_cityA.csv,./stimuli/frankfurt.jpg,./stimuli/street_plate1.png,KÖTÉL UTCA,stimuli/objects/051a.jpg,object,0,stimuli/objects/051a.jpg,stimuli/scenes/024b.jpg,stimuli/objects/051b.jpg,stimuli/scenes/024a.jpg,stimuli/objects/051a.jpg,dist2,lure,dist1,target,0,0,0,0,0,40,40,7,,,,,,,,,,,196.56851350003853,197.575323499972,197.575323499972,197.575323499972,197.575323499972,None,197.575323499972,,,,,,,,,,,,,,,,,,,,,,,,,,,,,,,,,,,,,,,,student1,2022-10-25_11h17.08.736,Hippopolis_Learning,2022.2.4,60.14031939748861,
Hippopolis,stimuli/subj_files/student1_cityA.csv,./stimuli/frankfurt.jpg,./stimuli/street_plate1.png,PIZSAMA UTCA,stimuli/scenes/060a.jpg,scene,2,stimuli/objects/006a.jpg,stimuli/scenes/007b.jpg,stimuli/scenes/007a.jpg,stimuli/objects/006b.jpg,stimuli/objects/006a.jpg,dist2,dist1,lure,target,0,0,0,0,0,41,41,79,,,,,,,,,,,200.5851850999752,201.59029560000636,201.59029560000636,201.59029560000636,201.59029560000636,None,201.59029560000636,,,,,,,,,,,,,,,,,,,,,,,,,,,,,,,,,,,,,,,,student1,2022-10-25_11h17.08.736,Hippopolis_Learning,2022.2.4,60.14031939748861,
Hippopolis,stimuli/subj_files/student1_cityA.csv,./stimuli/frankfurt.jpg,./stimuli/street_plate1.png,SZOMSZÉD UTCA,stimuli/objects/026a.jpg,object,1,stimuli/objects/004a.jpg,stimuli/objects/027b.jpg,stimuli/objects/004b.jpg,stimuli/objects/004a.jpg,stimuli/objects/027a.jpg,dist2,lure,target,dist1,0,0,0,0,0,42,42,65,,,,,,,,,,,204.60211290000007,205.60795209999196,205.60795209999196,205.60795209999196,205.60795209999196,None,205.60795209999196,,,,,,,,,,,,,,,,,,,,,,,,,,,,,,,,,,,,,,,,student1,2022-10-25_11h17.08.736,Hippopolis_Learning,2022.2.4,60.14031939748861,
Hippopolis,stimuli/subj_files/student1_cityA.csv,./stimuli/frankfurt.jpg,./stimuli/street_plate1.png,TELEP UTCA,stimuli/scenes/048a.jpg,scene,2,stimuli/objects/120a.jpg,stimuli/objects/120a.jpg,stimuli/objects/120b.jpg,stimuli/scenes/119b.jpg,stimuli/scenes/119a.jpg,target,lure,dist2,dist1,0,0,0,0,0,43,43,75,,,,,,,,,,,208.6184409999987,209.62195379997138,209.62195379997138,209.62195379997138,209.62195379997138,None,209.62195379997138,,,,,,,,,,,,,,,,,,,,,,,,,,,,,,,,,,,,,,,,student1,2022-10-25_11h17.08.736,Hippopolis_Learning,2022.2.4,60.14031939748861,
Hippopolis,stimuli/subj_files/student1_cityA.csv,./stimuli/frankfurt.jpg,./stimuli/street_plate1.png,KERET UTCA,stimuli/scenes/027a.jpg,scene,0,stimuli/scenes/027a.jpg,stimuli/objects/100a.jpg,stimuli/objects/100b.jpg,stimuli/scenes/027a.jpg,stimuli/scenes/027b.jpg,dist1,dist2,target,lure,0,0,0,0,0,44,44,3,,,,,,,,,,,212.6352403999772,213.6395575000206,213.6395575000206,213.6395575000206,213.6395575000206,space,213.6395575000206,216.65196170005947,216.65196170005947,8.704706500051543,,,,,,,,,,,,,,,,,,,,,,,,,,,,,,,,,,,,,student1,2022-10-25_11h17.08.736,Hippopolis_Learning,2022.2.4,60.14031939748861,
Hippopolis,stimuli/subj_files/student1_cityA.csv,./stimuli/frankfurt.jpg,./stimuli/street_plate1.png,MUSTÁR UTCA,stimuli/scenes/050a.jpg,scene,0,stimuli/scenes/050a.jpg,stimuli/objects/009a.jpg,stimuli/objects/009b.jpg,stimuli/scenes/050a.jpg,stimuli/scenes/050b.jpg,dist1,dist2,target,lure,0,0,0,0,0,45,45,78,,,,,,,,,,,225.3842794999946,226.40378439996857,226.40378439996857,226.40378439996857,226.40378439996857,None,226.40378439996857,,,,,,,,,,,,,,,,,,,,,,,,,,,,,,,,,,,,,,,,student1,2022-10-25_11h17.08.736,Hippopolis_Learning,2022.2.4,60.14031939748861,
Hippopolis,stimuli/subj_files/student1_cityA.csv,./stimuli/frankfurt.jpg,./stimuli/street_plate1.png,TOLLTARTÓ UTCA,stimuli/objects/032a.jpg,object,2,stimuli/scenes/119a.jpg,stimuli/scenes/119a.jpg,stimuli/scenes/104b.jpg,stimuli/scenes/104a.jpg,stimuli/scenes/119b.jpg,target,dist2,dist1,lure,0,0,0,0,0,46,46,67,,,,,,,,,,,229.40121180005372,230.418634200003,230.418634200003,230.418634200003,230.418634200003,None,230.418634200003,,,,,,,,,,,,,,,,,,,,,,,,,,,,,,,,,,,,,,,,student1,2022-10-25_11h17.08.736,Hippopolis_Learning,2022.2.4,60.14031939748861,
Hippopolis,stimuli/subj_files/student1_cityA.csv,./stimuli/frankfurt.jpg,./stimuli/street_plate1.png,HERNYÓ UTCA,stimuli/scenes/066a.jpg,scene,1,stimuli/scenes/037a.jpg,stimuli/scenes/037a.jpg,stimuli/objects/045b.jpg,stimuli/scenes/037b.jpg,stimuli/objects/045a.jpg,target,dist2,lure,dist1,0,0,0,0,0,47,47,5,,,,,,,,,,,233.41814109997358,234.43059989996254,234.43059989996254,234.43059989996254,234.43059989996254,None,234.43059989996254,,,,,,,,,,,,,,,,,,,,,,,,,,,,,,,,,,,,,,,,student1,2022-10-25_11h17.08.736,Hippopolis_Learning,2022.2.4,60.14031939748861,
Hippopolis,stimuli/subj_files/student1_cityA.csv,./stimuli/frankfurt.jpg,./stimuli/street_plate1.png,RÓZSA UTCA,stimuli/objects/091a.jpg,object,0,stimuli/objects/091a.jpg,stimuli/objects/091b.jpg,stimuli/objects/078b.jpg,stimuli/objects/078a.jpg,stimuli/objects/091a.jpg,lure,dist2,dist1,target,0,0,0,0,0,48,48,45,,,,,,,,,,,237.43505950004328,238.45423270005267,238.45423270005267,238.45423270005267,238.45423270005267,None,238.45423270005267,,,,,,,,,,,,,,,,,,,,,,,,,,,,,,,,,,,,,,,,student1,2022-10-25_11h17.08.736,Hippopolis_Learning,2022.2.4,60.14031939748861,
Hippopolis,stimuli/subj_files/student1_cityA.csv,./stimuli/frankfurt.jpg,./stimuli/street_plate1.png,SIVATAG UTCA,stimuli/scenes/016a.jpg,scene,2,stimuli/objects/046a.jpg,stimuli/objects/046b.jpg,stimuli/objects/006a.jpg,stimuli/objects/006b.jpg,stimuli/objects/046a.jpg,lure,dist1,dist2,target,0,0,0,0,0,49,49,23,,,,,,,,,,,241.4515340999933,242.45642649999354,242.45642649999354,242.45642649999354,242.45642649999354,None,242.45642649999354,,,,,,,,,,,,,,,,,,,,,,,,,,,,,,,,,,,,,,,,student1,2022-10-25_11h17.08.736,Hippopolis_Learning,2022.2.4,60.14031939748861,
Hippopolis,stimuli/subj_files/student1_cityA.csv,./stimuli/frankfurt.jpg,./stimuli/street_plate1.png,POGÁCSA UTCA,stimuli/scenes/046a.jpg,scene,0,stimuli/scenes/046a.jpg,stimuli/scenes/042a.jpg,stimuli/scenes/046a.jpg,stimuli/scenes/046b.jpg,stimuli/scenes/042b.jpg,dist1,target,lure,dist2,0,0,0,0,0,50,50,49,,,,,,,,,,,245.4682041000342,246.4729335999582,246.4729335999582,246.4729335999582,246.4729335999582,None,246.4729335999582,,,,,,,,,,,,,,,,,,,,,,,,,,,,,,,,,,,,,,,,student1,2022-10-25_11h17.08.736,Hippopolis_Learning,2022.2.4,60.14031939748861,
Hippopolis,stimuli/subj_files/student1_cityA.csv,./stimuli/frankfurt.jpg,./stimuli/street_plate1.png,MUNKA UTCA,stimuli/scenes/039a.jpg,scene,2,stimuli/objects/067a.jpg,stimuli/scenes/097a.jpg,stimuli/objects/067b.jpg,stimuli/objects/067a.jpg,stimuli/scenes/097b.jpg,dist1,lure,target,dist2,0,0,0,0,0,51,51,4,,,,,,,,,,,249.4679306000471,250.4756821000483,250.4756821000483,250.4756821000483,250.4756821000483,None,250.4756821000483,,,,,,,,,,,,,,,,,,,,,,,,,,,,,,,,,,,,,,,,student1,2022-10-25_11h17.08.736,Hippopolis_Learning,2022.2.4,60.14031939748861,
Hippopolis,stimuli/subj_files/student1_cityA.csv,./stimuli/frankfurt.jpg,./stimuli/street_plate1.png,ÜVEG UTCA,stimuli/scenes/061a.jpg,scene,2,stimuli/objects/085a.jpg,stimuli/objects/085b.jpg,stimuli/scenes/084a.jpg,stimuli/objects/085a.jpg,stimuli/scenes/084b.jpg,lure,dist1,target,dist2,0,0,0,0,0,52,52,19,,,,,,,,,,,253.4846513000084,254.4910066999728,254.4910066999728,254.4910066999728,254.4910066999728,None,254.4910066999728,,,,,,,,,,,,,,,,,,,,,,,,,,,,,,,,,,,,,,,,student1,2022-10-25_11h17.08.736,Hippopolis_Learning,2022.2.4,60.14031939748861,
Hippopolis,stimuli/subj_files/student1_cityA.csv,./stimuli/frankfurt.jpg,./stimuli/street_plate1.png,DOMINÓ UTCA,stimuli/scenes/042a.jpg,scene,0,stimuli/scenes/042a.jpg,stimuli/scenes/042a.jpg,stimuli/scenes/042b.jpg,stimuli/objects/070a.jpg,stimuli/objects/070b.jpg,target,lure,dist1,dist2,0,0,0,0,0,53,53,63,,,,,,,,,,,257.50107280001976,258.50524299999233,258.50524299999233,258.50524299999233,258.50524299999233,None,258.50524299999233,,,,,,,,,,,,,,,,,,,,,,,,,,,,,,,,,,,,,,,,student1,2022-10-25_11h17.08.736,Hippopolis_Learning,2022.2.4,60.14031939748861,
Hippopolis,stimuli/subj_files/student1_cityA.csv,./stimuli/frankfurt.jpg,./stimuli/street_plate1.png,PADLÓ UTCA,stimuli/objects/100a.jpg,object,0,stimuli/objects/100a.jpg,stimuli/scenes/058a.jpg,stimuli/scenes/058b.jpg,stimuli/objects/100a.jpg,stimuli/objects/100b.jpg,dist1,dist2,target,lure,0,0,0,0,0,54,54,59,,,,,,,,,,,261.51800829998683,262.52975630003493,262.52975630003493,262.52975630003493,262.52975630003493,None,262.52975630003493,,,,,,,,,,,,,,,,,,,,,,,,,,,,,,,,,,,,,,,,student1,2022-10-25_11h17.08.736,Hippopolis_Learning,2022.2.4,60.14031939748861,
Hippopolis,stimuli/subj_files/student1_cityA.csv,./stimuli/frankfurt.jpg,./stimuli/street_plate1.png,SZIKLA UTCA,stimuli/scenes/111a.jpg,scene,2,stimuli/objects/073a.jpg,stimuli/objects/120b.jpg,stimuli/objects/120a.jpg,stimuli/objects/073a.jpg,stimuli/objects/073b.jpg,dist2,dist1,target,lure,0,0,0,0,0,55,55,1,,,,,,,,,,,265.53408480004873,266.54369299998507,266.54369299998507,266.54369299998507,266.54369299998507,None,266.54369299998507,,,,,,,,,,,,,,,,,,,,,,,,,,,,,,,,,,,,,,,,student1,2022-10-25_11h17.08.736,Hippopolis_Learning,2022.2.4,60.14031939748861,
Hippopolis,stimuli/subj_files/student1_cityA.csv,./stimuli/frankfurt.jpg,./stimuli/street_plate1.png,TERASZ UTCA,stimuli/objects/063a.jpg,object,2,stimuli/scenes/104a.jpg,stimuli/scenes/104a.jpg,stimuli/scenes/056a.jpg,stimuli/scenes/104b.jpg,stimuli/scenes/056b.jpg,target,dist1,lure,dist2,0,0,0,0,0,56,56,48,,,,,,,,,,,269.5512100000633,270.55928309995215,270.55928309995215,270.55928309995215,270.55928309995215,None,270.55928309995215,,,,,,,,,,,,,,,,,,,,,,,,,,,,,,,,,,,,,,,,student1,2022-10-25_11h17.08.736,Hippopolis_Learning,2022.2.4,60.14031939748861,
Hippopolis,stimuli/subj_files/student1_cityA.csv,./stimuli/frankfurt.jpg,./stimuli/street_plate1.png,TALICSKA UTCA,stimuli/objects/014a.jpg,object,1,stimuli/objects/108a.jpg,stimuli/objects/109a.jpg,stimuli/objects/109b.jpg,stimuli/objects/108a.jpg,stimuli/objects/108b.jpg,dist1,dist2,target,lure,0,0,0,0,0,57,57,13,,,,,,,,,,,273.5673440999817,274.57396690000314,274.57396690000314,274.57396690000314,274.57396690000314,None,274.57396690000314,,,,,,,,,,,,,,,,,,,,,,,,,,,,,,,,,,,,,,,,student1,2022-10-25_11h17.08.736,Hippopolis_Learning,2022.2.4,60.14031939748861,
Hippopolis,stimuli/subj_files/student1_cityA.csv,./stimuli/frankfurt.jpg,./stimuli/street_plate1.png,AJÁNDÉK UTCA,stimuli/scenes/005a.jpg,scene,1,stimuli/scenes/009a.jpg,stimuli/scenes/078b.jpg,stimuli/scenes/078a.jpg,stimuli/scenes/009a.jpg,stimuli/scenes/009b.jpg,dist2,dist1,target,lure,0,0,0,0,0,58,58,28,,,,,,,,,,,277.58408820000477,278.58911119995173,278.58911119995173,278.58911119995173,278.58911119995173,None,278.58911119995173,,,,,,,,,,,,,,,,,,,,,,,,,,,,,,,,,,,,,,,,student1,2022-10-25_11h17.08.736,Hippopolis_Learning,2022.2.4,60.14031939748861,
Hippopolis,stimuli/subj_files/student1_cityA.csv,./stimuli/frankfurt.jpg,./stimuli/street_plate1.png,KULLANCS UTCA,stimuli/objects/089a.jpg,object,0,stimuli/objects/089a.jpg,stimuli/scenes/072a.jpg,stimuli/objects/089a.jpg,stimuli/scenes/072b.jpg,stimuli/objects/089b.jpg,dist1,target,dist2,lure,0,0,0,0,0,59,59,34,,,,,,,,,,,281.6006531000603,282.6081419000402,282.6081419000402,282.6081419000402,282.6081419000402,None,282.6081419000402,,,,,,,,,,,,,,,,,,,,,,,,,,,,,,,,,,,,,,,,student1,2022-10-25_11h17.08.736,Hippopolis_Learning,2022.2.4,60.14031939748861,
Hippopolis,stimuli/subj_files/student1_cityA.csv,./stimuli/frankfurt.jpg,./stimuli/street_plate1.png,KÖTÉNY UTCA,stimuli/scenes/031a.jpg,scene,1,stimuli/scenes/064a.jpg,stimuli/objects/103a.jpg,stimuli/objects/103b.jpg,stimuli/scenes/064b.jpg,stimuli/scenes/064a.jpg,dist1,dist2,lure,target,0,0,0,0,0,60,60,22,,,,,,,,,,,285.6175088000018,286.61921549995895,286.61921549995895,286.61921549995895,286.61921549995895,None,286.61921549995895,,,,,,,,,,,,,,,,,,,,,,,,,,,,,,,,,,,,,,,,student1,2022-10-25_11h17.08.736,Hippopolis_Learning,2022.2.4,60.14031939748861,
Hippopolis,stimuli/subj_files/student1_cityA.csv,./stimuli/frankfurt.jpg,./stimuli/street_plate1.png,KORONG UTCA,stimuli/scenes/065a.jpg,scene,1,stimuli/scenes/004a.jpg,stimuli/scenes/004a.jpg,stimuli/scenes/011b.jpg,stimuli/scenes/011a.jpg,stimuli/scenes/004b.jpg,target,dist2,dist1,lure,0,0,0,0,0,61,61,53,,,,,,,,,,,289.63403229997493,290.6341092999792,290.6341092999792,290.6341092999792,290.6341092999792,None,290.6341092999792,,,,293.6339608000126,293.6339608000126,293.6339608000126,293.6339608000126,,,,,,,,,,,,,,,,,,,,,,,,,,,,,,,,,student1,2022-10-25_11h17.08.736,Hippopolis_Learning,2022.2.4,60.14031939748861,
Hippopolis,stimuli/subj_files/student1_cityA.csv,./stimuli/frankfurt.jpg,./stimuli/street_plate1.png,HARMONIKA UTCA,stimuli/scenes/024a.jpg,scene,0,stimuli/scenes/024a.jpg,stimuli/scenes/101b.jpg,stimuli/scenes/024b.jpg,stimuli/scenes/101a.jpg,stimuli/scenes/024a.jpg,dist2,lure,dist1,target,0,0,0,0,0,62,62,25,,,,,,,,,,,293.6339608000126,294.6379313999787,294.6379313999787,294.6379313999787,294.6379313999787,None,294.6379313999787,,,,,,,,,,,,,,,,,,,,,,,,,,,,,,,,,,,,,,,,student1,2022-10-25_11h17.08.736,Hippopolis_Learning,2022.2.4,60.14031939748861,
Hippopolis,stimuli/subj_files/student1_cityA.csv,./stimuli/frankfurt.jpg,./stimuli/street_plate1.png,FOGAS UTCA,stimuli/scenes/025a.jpg,scene,1,stimuli/scenes/018a.jpg,stimuli/scenes/018b.jpg,stimuli/scenes/064a.jpg,stimuli/scenes/018a.jpg,stimuli/scenes/064b.jpg,lure,dist1,target,dist2,0,0,0,0,0,63,63,38,,,,,,,,,,,297.65064899995923,298.65545039996505,298.65545039996505,298.65545039996505,298.65545039996505,None,298.65545039996505,,,,,,,,,,,,,,,,,,,,,,,,,,,,,,,,,,,,,,,,student1,2022-10-25_11h17.08.736,Hippopolis_Learning,2022.2.4,60.14031939748861,
Hippopolis,stimuli/subj_files/student1_cityA.csv,./stimuli/frankfurt.jpg,./stimuli/street_plate1.png,BONBON UTCA,stimuli/objects/095a.jpg,object,2,stimuli/scenes/007a.jpg,stimuli/objects/028b.jpg,stimuli/objects/028a.jpg,stimuli/scenes/007a.jpg,stimuli/scenes/007b.jpg,dist2,dist1,target,lure,0,0,0,0,0,64,64,72,,,,,,,,,,,301.6667587000411,302.68480389995966,302.68480389995966,302.68480389995966,302.68480389995966,None,302.68480389995966,,,,,,,,,,,,,,,,,,,,,,,,,,,,,,,,,,,,,,,,student1,2022-10-25_11h17.08.736,Hippopolis_Learning,2022.2.4,60.14031939748861,
Hippopolis,stimuli/subj_files/student1_cityA.csv,./stimuli/frankfurt.jpg,./stimuli/street_plate1.png,PETÁRDA UTCA,stimuli/objects/009a.jpg,object,0,stimuli/objects/009a.jpg,stimuli/objects/009a.jpg,stimuli/scenes/051a.jpg,stimuli/objects/009b.jpg,stimuli/scenes/051b.jpg,target,dist1,lure,dist2,0,0,0,0,0,65,65,64,,,,,,,,,,,305.68370689998847,306.6947032000171,306.6947032000171,306.6947032000171,306.6947032000171,None,306.6947032000171,,,,,,,,,,,,,,,,,,,,,,,,,,,,,,,,,,,,,,,,student1,2022-10-25_11h17.08.736,Hippopolis_Learning,2022.2.4,60.14031939748861,
Hippopolis,stimuli/subj_files/student1_cityA.csv,./stimuli/frankfurt.jpg,./stimuli/street_plate1.png,PAPUCS UTCA,stimuli/scenes/051a.jpg,scene,0,stimuli/scenes/051a.jpg,stimuli/scenes/051b.jpg,stimuli/scenes/051a.jpg,stimuli/scenes/090a.jpg,stimuli/scenes/090b.jpg,lure,target,dist1,dist2,0,0,0,0,0,66,66,68,,,,,,,,,,,309.7002452999586,310.7085557000246,310.7085557000246,310.7085557000246,310.7085557000246,None,310.7085557000246,,,,,,,,,,,,,,,,,,,,,,,,,,,,,,,,,,,,,,,,student1,2022-10-25_11h17.08.736,Hippopolis_Learning,2022.2.4,60.14031939748861,
Hippopolis,stimuli/subj_files/student1_cityA.csv,./stimuli/frankfurt.jpg,./stimuli/street_plate1.png,LIGET UTCA,stimuli/objects/038a.jpg,object,2,stimuli/scenes/109a.jpg,stimuli/scenes/109a.jpg,stimuli/objects/055a.jpg,stimuli/scenes/109b.jpg,stimuli/objects/055b.jpg,target,dist1,lure,dist2,0,0,0,0,0,67,67,62,,,,,,,,,,,313.7169716999633,314.7326332000084,314.7326332000084,314.7326332000084,314.7326332000084,None,314.7326332000084,,,,,,,,,,,,,,,,,,,,,,,,,,,,,,,,,,,,,,,,student1,2022-10-25_11h17.08.736,Hippopolis_Learning,2022.2.4,60.14031939748861,
Hippopolis,stimuli/subj_files/student1_cityA.csv,./stimuli/frankfurt.jpg,./stimuli/street_plate1.png,HEGEDŰ UTCA,stimuli/scenes/113a.jpg,scene,2,stimuli/objects/036a.jpg,stimuli/objects/036b.jpg,stimuli/scenes/059b.jpg,stimuli/scenes/059a.jpg,stimuli/objects/036a.jpg,lure,dist2,dist1,target,0,0,0,0,0,68,68,69,,,,,,,,,,,317.73323240003083,318.7584146000445,318.7584146000445,318.7584146000445,318.7584146000445,None,318.7584146000445,,,,,,,,,,,,,,,,,,,,,,,,,,,,,,,,,,,,,,,,student1,2022-10-25_11h17.08.736,Hippopolis_Learning,2022.2.4,60.14031939748861,
Hippopolis,stimuli/subj_files/student1_cityA.csv,./stimuli/frankfurt.jpg,./stimuli/street_plate1.png,LAKAT UTCA,stimuli/objects/066a.jpg,object,2,stimuli/scenes/084a.jpg,stimuli/scenes/084b.jpg,stimuli/scenes/034a.jpg,stimuli/scenes/084a.jpg,stimuli/scenes/034b.jpg,lure,dist1,target,dist2,0,0,0,0,0,69,69,58,,,,,,,,,,,321.73341240000445,322.7404933000216,322.7404933000216,322.7404933000216,322.7404933000216,None,322.7404933000216,,,,,,,,,,,,,,,,,,,,,,,,,,,,,,,,,,,,,,,,student1,2022-10-25_11h17.08.736,Hippopolis_Learning,2022.2.4,60.14031939748861,
Hippopolis,stimuli/subj_files/student1_cityA.csv,./stimuli/frankfurt.jpg,./stimuli/street_plate1.png,AKÁC UTCA,stimuli/scenes/081a.jpg,scene,2,stimuli/objects/055a.jpg,stimuli/objects/055b.jpg,stimuli/objects/107b.jpg,stimuli/objects/107a.jpg,stimuli/objects/055a.jpg,lure,dist2,dist1,target,0,0,0,0,0,70,70,74,,,,,,,,,,,325.75020090001635,326.7548327000113,326.7548327000113,326.7548327000113,326.7548327000113,None,326.7548327000113,,,,,,,,,,,,,,,,,,,,,,,,,,,,,,,,,,,,,,,,student1,2022-10-25_11h17.08.736,Hippopolis_Learning,2022.2.4,60.14031939748861,
Hippopolis,stimuli/subj_files/student1_cityA.csv,./stimuli/frankfurt.jpg,./stimuli/street_plate1.png,EGÉR UTCA,stimuli/scenes/071a.jpg,scene,1,stimuli/scenes/116a.jpg,stimuli/scenes/116b.jpg,stimuli/scenes/116a.jpg,stimuli/scenes/009b.jpg,stimuli/scenes/009a.jpg,lure,target,dist2,dist1,0,0,0,0,0,71,71,29,,,,,,,,,,,329.7665258999914,330.76955079997424,330.76955079997424,330.76955079997424,330.76955079997424,None,330.76955079997424,,,,,,,,,,,,,,,,,,,,,,,,,,,,,,,,,,,,,,,,student1,2022-10-25_11h17.08.736,Hippopolis_Learning,2022.2.4,60.14031939748861,
Hippopolis,stimuli/subj_files/student1_cityA.csv,./stimuli/frankfurt.jpg,./stimuli/street_plate1.png,KOCKA UTCA,stimuli/objects/062a.jpg,object,0,stimuli/objects/062a.jpg,stimuli/scenes/095b.jpg,stimuli/objects/062a.jpg,stimuli/objects/062b.jpg,stimuli/scenes/095a.jpg,dist2,target,lure,dist1,0,0,0,0,0,72,72,35,,,,,,,,,,,333.7832425000379,334.78965180006344,334.78965180006344,334.78965180006344,334.78965180006344,None,334.78965180006344,,,,,,,,,,,,,,,,,,,,,,,,,,,,,,,,,,,,,,,,student1,2022-10-25_11h17.08.736,Hippopolis_Learning,2022.2.4,60.14031939748861,
Hippopolis,stimuli/subj_files/student1_cityA.csv,./stimuli/frankfurt.jpg,./stimuli/street_plate1.png,CITROM UTCA,stimuli/scenes/036a.jpg,scene,2,stimuli/objects/043a.jpg,stimuli/objects/043b.jpg,stimuli/objects/067a.jpg,stimuli/objects/043a.jpg,stimuli/objects/067b.jpg,lure,dist1,target,dist2,0,0,0,0,0,73,73,26,,,,,,,,,,,337.79972110001836,338.80779099999927,338.80779099999927,338.80779099999927,338.80779099999927,None,338.80779099999927,,,,,,,,,,,,,,,,,,,,,,,,,,,,,,,,,,,,,,,,student1,2022-10-25_11h17.08.736,Hippopolis_Learning,2022.2.4,60.14031939748861,
Hippopolis,stimuli/subj_files/student1_cityA.csv,./stimuli/frankfurt.jpg,./stimuli/street_plate1.png,CSAVAR UTCA,stimuli/objects/078a.jpg,object,0,stimuli/objects/078a.jpg,stimuli/objects/078b.jpg,stimuli/objects/024b.jpg,stimuli/objects/078a.jpg,stimuli/objects/024a.jpg,lure,dist2,target,dist1,0,0,0,0,0,74,74,10,,,,,,,,,,,341.8164066000609,342.82076330005657,342.82076330005657,342.82076330005657,342.82076330005657,None,342.82076330005657,,,,,,,,,,,,,,,,,,,,,,,,,,,,,,,,,,,,,,,,student1,2022-10-25_11h17.08.736,Hippopolis_Learning,2022.2.4,60.14031939748861,
Hippopolis,stimuli/subj_files/student1_cityA.csv,./stimuli/frankfurt.jpg,./stimuli/street_plate1.png,KAKAS UTCA,stimuli/objects/002a.jpg,object,2,stimuli/scenes/074a.jpg,stimuli/scenes/074b.jpg,stimuli/scenes/074a.jpg,stimuli/scenes/070a.jpg,stimuli/scenes/070b.jpg,lure,target,dist1,dist2,0,0,0,0,0,75,75,24,,,,,,,,,,,345.83337680005934,346.84338269999716,346.84338269999716,346.84338269999716,346.84338269999716,None,346.84338269999716,,,,,,,,,,,,,,,,,,,,,,,,,,,,,,,,,,,,,,,,student1,2022-10-25_11h17.08.736,Hippopolis_Learning,2022.2.4,60.14031939748861,
Hippopolis,stimuli/subj_files/student1_cityA.csv,./stimuli/frankfurt.jpg,./stimuli/street_plate1.png,HAJÓ UTCA,stimuli/objects/086a.jpg,object,1,stimuli/objects/041a.jpg,stimuli/scenes/014a.jpg,stimuli/scenes/014b.jpg,stimuli/objects/041a.jpg,stimuli/objects/041b.jpg,dist1,dist2,target,lure,0,0,0,0,0,76,76,71,,,,,,,,,,,349.8498157999711,350.8577530999901,350.8577530999901,350.8577530999901,350.8577530999901,None,350.8577530999901,,,,,,,,,,,,,,,,,,,,,,,,,,,,,,,,,,,,,,,,student1,2022-10-25_11h17.08.736,Hippopolis_Learning,2022.2.4,60.14031939748861,
Hippopolis,stimuli/subj_files/student1_cityA.csv,./stimuli/frankfurt.jpg,./stimuli/street_plate1.png,MOTOR UTCA,stimuli/objects/097a.jpg,object,1,stimuli/objects/071a.jpg,stimuli/objects/015b.jpg,stimuli/objects/071b.jpg,stimuli/objects/071a.jpg,stimuli/objects/015a.jpg,dist2,lure,target,dist1,0,0,0,0,0,77,77,36,,,,,,,,,,,353.8663305999944,354.8731706000399,354.8731706000399,354.8731706000399,354.8731706000399,None,354.8731706000399,,,,,,,,,,,,,,,,,,,,,,,,,,,,,,,,,,,,,,,,student1,2022-10-25_11h17.08.736,Hippopolis_Learning,2022.2.4,60.14031939748861,
Hippopolis,stimuli/subj_files/student1_cityA.csv,./stimuli/frankfurt.jpg,./stimuli/street_plate1.png,BÖGRE UTCA,stimuli/objects/050a.jpg,object,1,stimuli/objects/076a.jpg,stimuli/scenes/037a.jpg,stimuli/objects/076a.jpg,stimuli/objects/076b.jpg,stimuli/scenes/037b.jpg,dist1,target,lure,dist2,0,0,0,0,0,78,78,41,,,,,,,,,,,357.8831591999624,358.8875650999835,358.8875650999835,358.8875650999835,358.8875650999835,None,358.8875650999835,,,,,,,,,,,,,,,,,,,,,,,,,,,,,,,,,,,,,,,,student1,2022-10-25_11h17.08.736,Hippopolis_Learning,2022.2.4,60.14031939748861,
Hippopolis,stimuli/subj_files/student1_cityA.csv,./stimuli/frankfurt.jpg,./stimuli/street_plate1.png,KECSKE UTCA,stimuli/scenes/085a.jpg,scene,2,stimuli/objects/022a.jpg,stimuli/objects/022b.jpg,stimuli/objects/022a.jpg,stimuli/scenes/053a.jpg,stimuli/scenes/053b.jpg,lure,target,dist1,dist2,0,0,0,0,0,79,79,6,,,,,,,,,,,361.89949250000063,362.9024516000645,362.9024516000645,362.9024516000645,362.9024516000645,None,362.9024516000645,,,,,,,,,,,,,,,,,,,,,,,,,,,,,,,,,,,,,,,,student1,2022-10-25_11h17.08.736,Hippopolis_Learning,2022.2.4,60.14031939748861,
Hippopolis,stimuli/subj_files/student1_cityA.csv,./stimuli/frankfurt.jpg,./stimuli/street_plate1.png,BAGOLY UTCA,stimuli/scenes/029a.jpg,scene,2,stimuli/objects/028a.jpg,stimuli/objects/028b.jpg,stimuli/objects/028a.jpg,stimuli/scenes/028a.jpg,stimuli/scenes/028b.jpg,lure,target,dist1,dist2,0,0,0,0,,,,,0,0,0,21,,,,,,,377.2050711000338,,,,,,378.2157670999877,,,,,,,,365.9159807000542,365.9159807000542,space,7.243543700082228,373.2054736999562,373.2054736999562,373.2054736999562,373.2054736999562,373.2054736999562,373.2054736999562,None,None,,,,,,,,,,,,,,,,,,,,,student1,2022-10-25_11h17.08.736,Hippopolis_Learning,2022.2.4,60.14031939748861,
Hippopolis,stimuli/subj_files/student1_cityA.csv,./stimuli/frankfurt.jpg,./stimuli/street_plate1.png,HAJÓ UTCA,stimuli/objects/086a.jpg,object,1,stimuli/objects/041a.jpg,stimuli/scenes/014a.jpg,stimuli/scenes/014b.jpg,stimuli/objects/041a.jpg,stimuli/objects/041b.jpg,dist1,dist2,target,lure,0,0,0,0,,,,,0,1,1,71,,,,,,,381.1824071999872,,,,,,382.18273949995637,,,,,,,,,,,,378.2157670999877,378.2157670999877,378.2157670999877,378.2157670999877,378.2157670999877,378.2157670999877,left,None,2.9494701999938115,,,,,,,,,,,,,,,,,,,,student1,2022-10-25_11h17.08.736,Hippopolis_Learning,2022.2.4,60.14031939748861,
Hippopolis,stimuli/subj_files/student1_cityA.csv,./stimuli/frankfurt.jpg,./stimuli/street_plate1.png,TELEP UTCA,stimuli/scenes/048a.jpg,scene,2,stimuli/objects/120a.jpg,stimuli/objects/120a.jpg,stimuli/objects/120b.jpg,stimuli/scenes/119b.jpg,stimuli/scenes/119a.jpg,target,lure,dist2,dist1,0,0,0,0,,,,,0,2,2,75,,,,,,,384.4987593999831,,,,,,385.4992746000644,,,,,,,,,,,,382.18273949995637,382.18273949995637,382.18273949995637,382.18273949995637,382.18273949995637,382.18273949995637,right,None,2.2842809000285342,,,,,,,,,,,,,,,,,,,,student1,2022-10-25_11h17.08.736,Hippopolis_Learning,2022.2.4,60.14031939748861,
Hippopolis,stimuli/subj_files/student1_cityA.csv,./stimuli/frankfurt.jpg,./stimuli/street_plate1.png,FIÓK UTCA,stimuli/scenes/002a.jpg,scene,1,stimuli/scenes/014a.jpg,stimuli/scenes/014a.jpg,stimuli/objects/004a.jpg,stimuli/objects/004b.jpg,stimuli/scenes/014b.jpg,target,dist1,dist2,lure,0,0,0,0,,,,,0,3,3,73,,,,,,,387.898905799957,,,,,,388.89920760004316,,,,,,,,,,,,385.4992746000644,385.4992746000644,385.4992746000644,385.4992746000644,385.4992746000644,385.4992746000644,left,None,2.3708400999894366,,,,,,,,,,,,,,,,,,,,student1,2022-10-25_11h17.08.736,Hippopolis_Learning,2022.2.4,60.14031939748861,
Hippopolis,stimuli/subj_files/student1_cityA.csv,./stimuli/frankfurt.jpg,./stimuli/street_plate1.png,KOKTÉL UTCA,stimuli/scenes/008a.jpg,scene,2,stimuli/objects/012a.jpg,stimuli/objects/036b.jpg,stimuli/objects/012b.jpg,stimuli/objects/036a.jpg,stimuli/objects/012a.jpg,dist2,lure,dist1,target,0,0,0,0,,,,,0,4,4,46,,,,,,,403.0320166000165,,,,,,404.04070350003894,,,,,,,,,,,,388.89920760004316,388.89920760004316,388.89920760004316,388.89920760004316,388.89920760004316,388.89920760004316,right,space,2.626608300022781,391.5537953999592,391.5537953999592,391.5537953999592,391.5537953999592,391.5537953999592,11.446517299977131,,,,,,,,,,,,,,student1,2022-10-25_11h17.08.736,Hippopolis_Learning,2022.2.4,60.14031939748861,
Hippopolis,stimuli/subj_files/student1_cityA.csv,./stimuli/frankfurt.jpg,./stimuli/street_plate1.png,TALICSKA UTCA,stimuli/objects/014a.jpg,object,1,stimuli/objects/108a.jpg,stimuli/objects/109a.jpg,stimuli/objects/109b.jpg,stimuli/objects/108a.jpg,stimuli/objects/108b.jpg,dist1,dist2,target,lure,0,0,0,0,,,,,0,5,5,13,,,,,,,406.29846349998843,,,,,,407.2994496000465,,,,,,,,,,,,404.04070350003894,404.04070350003894,404.04070350003894,404.04070350003894,404.04070350003894,404.04070350003894,left,None,2.231997000053525,,,,,,,,,,,,,,,,,,,,student1,2022-10-25_11h17.08.736,Hippopolis_Learning,2022.2.4,60.14031939748861,
Hippopolis,stimuli/subj_files/student1_cityA.csv,./stimuli/frankfurt.jpg,./stimuli/street_plate1.png,KARTON UTCA,stimuli/objects/101a.jpg,object,2,stimuli/scenes/044a.jpg,stimuli/scenes/074a.jpg,stimuli/scenes/044b.jpg,stimuli/scenes/044a.jpg,stimuli/scenes/074b.jpg,dist1,lure,target,dist2,0,0,0,0,,,,,0,6,6,8,,,,,,,410.9656154999975,,,,,,411.96553000004496,,,,,,,,,,,,407.2994496000465,407.2994496000465,407.2994496000465,407.2994496000465,407.2994496000465,407.2994496000465,left,None,3.6475476999767125,,,,,,,,,,,,,,,,,,,,student1,2022-10-25_11h17.08.736,Hippopolis_Learning,2022.2.4,60.14031939748861,
Hippopolis,stimuli/subj_files/student1_cityA.csv,./stimuli/frankfurt.jpg,./stimuli/street_plate1.png,KÖTÉL UTCA,stimuli/objects/051a.jpg,object,0,stimuli/objects/051a.jpg,stimuli/scenes/024b.jpg,stimuli/objects/051b.jpg,stimuli/scenes/024a.jpg,stimuli/objects/051a.jpg,dist2,lure,dist1,target,0,0,0,0,,,,,0,7,7,7,,,,,,,413.5481114999857,,,,,,414.5497254000511,,,,,,,,,,,,411.96553000004496,411.96553000004496,411.96553000004496,411.96553000004496,411.96553000004496,411.96553000004496,right,None,1.5519215000094846,,,,,,,,,,,,,,,,,,,,student1,2022-10-25_11h17.08.736,Hippopolis_Learning,2022.2.4,60.14031939748861,
Hippopolis,stimuli/subj_files/student1_cityA.csv,./stimuli/frankfurt.jpg,./stimuli/street_plate1.png,ÁRNYÉK UTCA,stimuli/objects/020a.jpg,object,1,stimuli/objects/027a.jpg,stimuli/scenes/004a.jpg,stimuli/objects/027b.jpg,stimuli/objects/027a.jpg,stimuli/scenes/004b.jpg,dist1,lure,target,dist2,0,0,0,0,,,,,0,8,8,52,,,,,,,418.1649630999891,,,,,,419.1658049999969,,,,,,,,,,,,414.5497254000511,414.5497254000511,414.5497254000511,414.5497254000511,414.5497254000511,414.5497254000511,left,None,3.5966133000329137,,,,,,,,,,,,,,,,,,,,student1,2022-10-25_11h17.08.736,Hippopolis_Learning,2022.2.4,60.14031939748861,
Hippopolis,stimuli/subj_files/student1_cityA.csv,./stimuli/frankfurt.jpg,./stimuli/street_plate1.png,AJÁNDÉK UTCA,stimuli/scenes/005a.jpg,scene,1,stimuli/scenes/009a.jpg,stimuli/scenes/078b.jpg,stimuli/scenes/078a.jpg,stimuli/scenes/009a.jpg,stimuli/scenes/009b.jpg,dist2,dist1,target,lure,0,0,0,0,,,,,0,9,9,28,,,,,,,421.0815147999674,,,,,,422.08165569999255,,,,,,,,,,,,419.1658049999969,419.1658049999969,419.1658049999969,419.1658049999969,419.1658049999969,419.1658049999969,right,None,1.884133500047028,,,,,,,,,,,,,,,,,,,,student1,2022-10-25_11h17.08.736,Hippopolis_Learning,2022.2.4,60.14031939748861,
Hippopolis,stimuli/subj_files/student1_cityA.csv,./stimuli/frankfurt.jpg,./stimuli/street_plate1.png,BONBON UTCA,stimuli/objects/095a.jpg,object,2,stimuli/scenes/007a.jpg,stimuli/objects/028b.jpg,stimuli/objects/028a.jpg,stimuli/scenes/007a.jpg,stimuli/scenes/007b.jpg,dist2,dist1,target,lure,0,0,0,0,,,,,0,10,10,72,,,,,,,424.3986686000135,,,,,,425.3984540000092,,,,,,,,,,,,422.08165569999255,422.08165569999255,422.08165569999255,422.08165569999255,422.08165569999255,422.08165569999255,left,None,2.2940139999845996,,,,,,,,,,,,,,,,,,,,student1,2022-10-25_11h17.08.736,Hippopolis_Learning,2022.2.4,60.14031939748861,
Hippopolis,stimuli/subj_files/student1_cityA.csv,./stimuli/frankfurt.jpg,./stimuli/street_plate1.png,OROSZLÁN UTCA,stimuli/scenes/072a.jpg,scene,0,stimuli/scenes/072a.jpg,stimuli/scenes/072a.jpg,stimuli/scenes/072b.jpg,stimuli/scenes/027b.jpg,stimuli/scenes/027a.jpg,target,lure,dist2,dist1,0,0,0,0,,,,,0,11,11,66,,,,,,,433.3482580999844,,,,,,434.3482777000172,,,,,,,,,,,,425.3984540000092,425.3984540000092,425.3984540000092,425.3984540000092,425.3984540000092,425.3984540000092,right,space,1.1395970000885427,426.56502039998304,426.56502039998304,426.56502039998304,426.56502039998304,426.56502039998304,6.762332700076513,,,,,,,,,,,,,,student1,2022-10-25_11h17.08.736,Hippopolis_Learning,2022.2.4,60.14031939748861,
Hippopolis,stimuli/subj_files/student1_cityA.csv,./stimuli/frankfurt.jpg,./stimuli/street_plate1.png,FÓKA UTCA,stimuli/scenes/058a.jpg,scene,0,stimuli/scenes/058a.jpg,stimuli/scenes/058a.jpg,stimuli/scenes/058b.jpg,stimuli/objects/111b.jpg,stimuli/objects/111a.jpg,target,lure,dist2,dist1,0,0,0,0,,,,,0,12,12,51,,,,,,,435.91490059997886,,,,,,436.9150891000172,,,,,,,,,,,,434.3482777000172,434.3482777000172,434.3482777000172,434.3482777000172,434.3482777000172,434.3482777000172,left,None,1.5463731000199914,,,,,,,,,,,,,,,,,,,,student1,2022-10-25_11h17.08.736,Hippopolis_Learning,2022.2.4,60.14031939748861,
Hippopolis,stimuli/subj_files/student1_cityA.csv,./stimuli/frankfurt.jpg,./stimuli/street_plate1.png,HARMONIKA UTCA,stimuli/scenes/024a.jpg,scene,0,stimuli/scenes/024a.jpg,stimuli/scenes/101b.jpg,stimuli/scenes/024b.jpg,stimuli/scenes/101a.jpg,stimuli/scenes/024a.jpg,dist2,lure,dist1,target,0,0,0,0,,,,,0,13,13,25,,,,,,,438.44816769997124,,,,,,439.44897030002903,,,,,,,,,,,,436.9150891000172,436.9150891000172,436.9150891000172,436.9150891000172,436.9150891000172,436.9150891000172,left,None,1.5151879000477493,,,,,,,,,,,,,,,,,,,,student1,2022-10-25_11h17.08.736,Hippopolis_Learning,2022.2.4,60.14031939748861,
Hippopolis,stimuli/subj_files/student1_cityA.csv,./stimuli/frankfurt.jpg,./stimuli/street_plate1.png,MOCSÁR UTCA,stimuli/objects/080a.jpg,object,0,stimuli/objects/080a.jpg,stimuli/objects/080b.jpg,stimuli/objects/080a.jpg,stimuli/scenes/043b.jpg,stimuli/scenes/043a.jpg,lure,target,dist2,dist1,0,0,0,0,,,,,0,14,14,17,,,,,,,440.9310647000093,,,,,,441.931345900055,,,,,,,,,,,,439.44897030002903,439.44897030002903,439.44897030002903,439.44897030002903,439.44897030002903,439.44897030002903,right,None,1.4581254000077024,,,,,,,,,,,,,,,,,,,,student1,2022-10-25_11h17.08.736,Hippopolis_Learning,2022.2.4,60.14031939748861,
Hippopolis,stimuli/subj_files/student1_cityA.csv,./stimuli/frankfurt.jpg,./stimuli/street_plate1.png,KORONG UTCA,stimuli/scenes/065a.jpg,scene,1,stimuli/scenes/004a.jpg,stimuli/scenes/004a.jpg,stimuli/scenes/011b.jpg,stimuli/scenes/011a.jpg,stimuli/scenes/004b.jpg,target,dist2,dist1,lure,0,0,0,0,,,,,0,15,15,53,,,,,,,445.01469580002595,,,,,,446.0148636000231,,,,,,,,,,,,441.931345900055,441.931345900055,441.931345900055,441.931345900055,441.931345900055,441.931345900055,left,None,3.0610120000783354,,,,,,,,,,,,,,,,,,,,student1,2022-10-25_11h17.08.736,Hippopolis_Learning,2022.2.4,60.14031939748861,
Hippopolis,stimuli/subj_files/student1_cityA.csv,./stimuli/frankfurt.jpg,./stimuli/street_plate1.png,VASALÓ UTCA,stimuli/objects/025a.jpg,object,2,stimuli/scenes/056a.jpg,stimuli/scenes/044a.jpg,stimuli/scenes/056b.jpg,stimuli/scenes/056a.jpg,stimuli/scenes/044b.jpg,dist1,lure,target,dist2,0,0,0,0,,,,,0,16,16,70,,,,,,,454.3479998999974,,,,,,455.3481051999843,,,,,,,,,,,,446.0148636000231,446.0148636000231,446.0148636000231,446.0148636000231,446.0148636000231,446.0148636000231,right,space,1.5411693999776617,447.5814748000121,447.5814748000121,447.5814748000121,447.5814748000121,447.5814748000121,6.750260400003754,,,,,,,,,,,,,,student1,2022-10-25_11h17.08.736,Hippopolis_Learning,2022.2.4,60.14031939748861,
Hippopolis,stimuli/subj_files/student1_cityA.csv,./stimuli/frankfurt.jpg,./stimuli/street_plate1.png,NARANCS UTCA,stimuli/objects/017a.jpg,object,1,stimuli/objects/075a.jpg,stimuli/objects/075a.jpg,stimuli/scenes/041b.jpg,stimuli/scenes/041a.jpg,stimuli/objects/075b.jpg,target,dist2,dist1,lure,0,0,0,0,,,,,0,17,17,76,,,,,,,456.88087580003776,,,,,,457.88119270000607,,,,,,,,,,,,455.3481051999843,455.3481051999843,455.3481051999843,455.3481051999843,455.3481051999843,455.3481051999843,left,None,1.502578999963589,,,,,,,,,,,,,,,,,,,,student1,2022-10-25_11h17.08.736,Hippopolis_Learning,2022.2.4,60.14031939748861,
Hippopolis,stimuli/subj_files/student1_cityA.csv,./stimuli/frankfurt.jpg,./stimuli/street_plate1.png,ÜVEG UTCA,stimuli/scenes/061a.jpg,scene,2,stimuli/objects/085a.jpg,stimuli/objects/085b.jpg,stimuli/scenes/084a.jpg,stimuli/objects/085a.jpg,stimuli/scenes/084b.jpg,lure,dist1,target,dist2,0,0,0,0,,,,,0,18,18,19,,,,,,,459.3474529000232,,,,,,460.3484372999519,,,,,,,,,,,,457.88119270000607,457.88119270000607,457.88119270000607,457.88119270000607,457.88119270000607,457.88119270000607,left,None,1.4394540999783203,,,,,,,,,,,,,,,,,,,,student1,2022-10-25_11h17.08.736,Hippopolis_Learning,2022.2.4,60.14031939748861,
Hippopolis,stimuli/subj_files/student1_cityA.csv,./stimuli/frankfurt.jpg,./stimuli/street_plate1.png,MOGYORÓ UTCA,stimuli/objects/106a.jpg,object,1,stimuli/objects/103a.jpg,stimuli/scenes/116a.jpg,stimuli/objects/103b.jpg,stimuli/objects/103a.jpg,stimuli/scenes/116b.jpg,dist1,lure,target,dist2,0,0,0,0,,,,,0,19,19,54,,,,,,,462.7141564000631,,,,,,463.715013399953,,,,,,,,,,,,460.3484372999519,460.3484372999519,460.3484372999519,460.3484372999519,460.3484372999519,460.3484372999519,right,None,2.350131400045939,,,,,,,,,,,,,,,,,,,,student1,2022-10-25_11h17.08.736,Hippopolis_Learning,2022.2.4,60.14031939748861,
Hippopolis,stimuli/subj_files/student1_cityA.csv,./stimuli/frankfurt.jpg,./stimuli/street_plate1.png,RÓZSA UTCA,stimuli/objects/091a.jpg,object,0,stimuli/objects/091a.jpg,stimuli/objects/091b.jpg,stimuli/objects/078b.jpg,stimuli/objects/078a.jpg,stimuli/objects/091a.jpg,lure,dist2,dist1,target,0,0,0,0,,,,,0,20,20,45,,,,,,,466.46402469999157,,,,,,467.4643555000657,,,,,,,,,,,,463.715013399953,463.715013399953,463.715013399953,463.715013399953,463.715013399953,463.715013399953,left,None,2.7175180999329314,,,,,,,,,,,,,,,,,,,,student1,2022-10-25_11h17.08.736,Hippopolis_Learning,2022.2.4,60.14031939748861,
Hippopolis,stimuli/subj_files/student1_cityA.csv,./stimuli/frankfurt.jpg,./stimuli/street_plate1.png,AKÁC UTCA,stimuli/scenes/081a.jpg,scene,2,stimuli/objects/055a.jpg,stimuli/objects/055b.jpg,stimuli/objects/107b.jpg,stimuli/objects/107a.jpg,stimuli/objects/055a.jpg,lure,dist2,dist1,target,0,0,0,0,,,,,0,21,21,74,,,,,,,471.46436860004906,,,,,,472.4643353000283,,,,,,,,,,,,467.4643555000657,467.4643555000657,467.4643555000657,467.4643555000657,467.4643555000657,467.4643555000657,None,None,,,,,,,,471.46436860004906,471.46436860004906,471.46436860004906,471.46436860004906,471.46436860004906,471.46436860004906,,,,,,,,student1,2022-10-25_11h17.08.736,Hippopolis_Learning,2022.2.4,60.14031939748861,
Hippopolis,stimuli/subj_files/student1_cityA.csv,./stimuli/frankfurt.jpg,./stimuli/street_plate1.png,PULÓVER UTCA,stimuli/objects/114a.jpg,object,0,stimuli/objects/114a.jpg,stimuli/scenes/050b.jpg,stimuli/scenes/050a.jpg,stimuli/objects/114b.jpg,stimuli/objects/114a.jpg,dist2,dist1,lure,target,0,0,0,0,,,,,0,22,22,43,,,,,,,474.7809544999618,,,,,,475.7811132000061,,,,,,,,,,,,472.4643353000283,472.4643353000283,472.4643353000283,472.4643353000283,472.4643353000283,472.4643353000283,left,None,2.2873199000023305,,,,,,,,,,,,,,,,,,,,student1,2022-10-25_11h17.08.736,Hippopolis_Learning,2022.2.4,60.14031939748861,
Hippopolis,stimuli/subj_files/student1_cityA.csv,./stimuli/frankfurt.jpg,./stimuli/street_plate1.png,CITROM UTCA,stimuli/scenes/036a.jpg,scene,2,stimuli/objects/043a.jpg,stimuli/objects/043b.jpg,stimuli/objects/067a.jpg,stimuli/objects/043a.jpg,stimuli/objects/067b.jpg,lure,dist1,target,dist2,0,0,0,0,,,,,0,23,23,26,,,,,,,478.48078039998654,,,,,,479.4808573999908,,,,,,,,,,,,475.7811132000061,475.7811132000061,475.7811132000061,475.7811132000061,475.7811132000061,475.7811132000061,left,None,2.677326299948618,,,,,,,,,,,,,,,,,,,,student1,2022-10-25_11h17.08.736,Hippopolis_Learning,2022.2.4,60.14031939748861,
Hippopolis,stimuli/subj_files/student1_cityA.csv,./stimuli/frankfurt.jpg,./stimuli/street_plate1.png,PÉKSÉG UTCA,stimuli/scenes/073a.jpg,scene,2,stimuli/objects/059a.jpg,stimuli/objects/059a.jpg,stimuli/objects/046b.jpg,stimuli/objects/059b.jpg,stimuli/objects/046a.jpg,target,dist2,lure,dist1,0,0,0,0,,,,,0,24,24,61,,,,,,,481.2819395000115,,,,,,,,,,,,,,,,,,479.4808573999908,479.4808573999908,479.4808573999908,479.4808573999908,479.4808573999908,479.4808573999908,right,None,1.7824513000668958,,,,,,,,,,,,,,,,,,,,student1,2022-10-25_11h17.08.736,Hippopolis_Learning,2022.2.4,60.14031939748861,
Hippopolis,stimuli/subj_files/student1_cityA.csv,./stimuli/frankfurt.jpg,./stimuli/street_plate1.png,KOCKA UTCA,stimuli/objects/062a.jpg,object,0,stimuli/objects/062a.jpg,stimuli/scenes/095b.jpg,stimuli/objects/062a.jpg,stimuli/objects/062b.jpg,stimuli/scenes/095a.jpg,dist2,target,lure,dist1,0,0,0,0,,,,,0,25,25,35,,,,,,,485.4144015000202,,,,,,486.41413429996464,,,,,,,,,,,,482.29760940000415,482.29760940000415,482.29760940000415,482.29760940000415,482.29760940000415,482.29760940000415,left,None,3.0896835000021383,,,,,,,,,,,,,,,,,,,,student1,2022-10-25_11h17.08.736,Hippopolis_Learning,2022.2.4,60.14031939748861,
Hippopolis,stimuli/subj_files/student1_cityA.csv,./stimuli/frankfurt.jpg,./stimuli/street_plate1.png,KORONA UTCA,stimuli/scenes/108a.jpg,scene,1,stimuli/scenes/011a.jpg,stimuli/objects/076a.jpg,stimuli/scenes/011b.jpg,stimuli/objects/076b.jpg,stimuli/scenes/011a.jpg,dist1,lure,dist2,target,0,0,0,0,,,,,0,26,26,9,,,,,,,488.61378540005535,,,,,,489.61439979996067,,,,,,,,,,,,486.41413429996464,486.41413429996464,486.41413429996464,486.41413429996464,486.41413429996464,486.41413429996464,left,None,2.172610600013286,,,,,,,,,,,,,,,,,,,,student1,2022-10-25_11h17.08.736,Hippopolis_Learning,2022.2.4,60.14031939748861,
Hippopolis,stimuli/subj_files/student1_cityA.csv,./stimuli/frankfurt.jpg,./stimuli/street_plate1.png,TOLLTARTÓ UTCA,stimuli/objects/032a.jpg,object,2,stimuli/scenes/119a.jpg,stimuli/scenes/119a.jpg,stimuli/scenes/104b.jpg,stimuli/scenes/104a.jpg,stimuli/scenes/119b.jpg,target,dist2,dist1,lure,0,0,0,0,,,,,0,27,27,67,,,,,,,492.21382289996836,,,,,,493.2141169999959,,,,,,,,,,,,489.61439979996067,489.61439979996067,489.61439979996067,489.61439979996067,489.61439979996067,489.61439979996067,left,None,2.5672397000016645,,,,,,,,,,,,,,,,,,,,student1,2022-10-25_11h17.08.736,Hippopolis_Learning,2022.2.4,60.14031939748861,
Hippopolis,stimuli/subj_files/student1_cityA.csv,./stimuli/frankfurt.jpg,./stimuli/street_plate1.png,PIZSAMA UTCA,stimuli/scenes/060a.jpg,scene,2,stimuli/objects/006a.jpg,stimuli/scenes/007b.jpg,stimuli/scenes/007a.jpg,stimuli/objects/006b.jpg,stimuli/objects/006a.jpg,dist2,dist1,lure,target,0,0,0,0,,,,,0,28,28,79,,,,,,,496.4470623000525,,,,,,497.4473321000114,,,,,,,,,,,,493.2141169999959,493.2141169999959,493.2141169999959,493.2141169999959,493.2141169999959,493.2141169999959,left,None,3.2019628999987617,,,,,,,,,,,,,,,,,,,,student1,2022-10-25_11h17.08.736,Hippopolis_Learning,2022.2.4,60.14031939748861,
Hippopolis,stimuli/subj_files/student1_cityA.csv,./stimuli/frankfurt.jpg,./stimuli/street_plate1.png,TRIATLON UTCA,stimuli/objects/024a.jpg,object,0,stimuli/objects/024a.jpg,stimuli/objects/024b.jpg,stimuli/objects/080a.jpg,stimuli/objects/024a.jpg,stimuli/objects/080b.jpg,lure,dist1,target,dist2,0,0,0,0,,,,,0,29,29,2,,,,,,,499.57996160001494,,,,,,500.580647099996,,,,,,,,,,,,497.4473321000114,497.4473321000114,497.4473321000114,497.4473321000114,497.4473321000114,497.4473321000114,right,None,2.1164699000073597,,,,,,,,,,,,,,,,,,,,student1,2022-10-25_11h17.08.736,Hippopolis_Learning,2022.2.4,60.14031939748861,
Hippopolis,stimuli/subj_files/student1_cityA.csv,./stimuli/frankfurt.jpg,./stimuli/street_plate1.png,DOMINÓ UTCA,stimuli/scenes/042a.jpg,scene,0,stimuli/scenes/042a.jpg,stimuli/scenes/042a.jpg,stimuli/scenes/042b.jpg,stimuli/objects/070a.jpg,stimuli/objects/070b.jpg,target,lure,dist1,dist2,0,0,0,0,,,,,0,30,30,63,,,,,,,503.6802188999718,,,,,,504.68066509999335,,,,,,,,,,,,500.580647099996,500.580647099996,500.580647099996,500.580647099996,500.580647099996,500.580647099996,left,None,3.0685104000149295,,,,,,,,,,,,,,,,,,,,student1,2022-10-25_11h17.08.736,Hippopolis_Learning,2022.2.4,60.14031939748861,
Hippopolis,stimuli/subj_files/student1_cityA.csv,./stimuli/frankfurt.jpg,./stimuli/street_plate1.png,HÁRFA UTCA,stimuli/objects/083a.jpg,object,2,stimuli/scenes/028a.jpg,stimuli/scenes/028b.jpg,stimuli/objects/012b.jpg,stimuli/objects/012a.jpg,stimuli/scenes/028a.jpg,lure,dist2,dist1,target,0,0,0,0,,,,,0,31,31,16,,,,,,,507.7635439999867,,,,,,508.76377189997584,,,,,,,,,,,,504.68066509999335,504.68066509999335,504.68066509999335,504.68066509999335,504.68066509999335,504.68066509999335,left,None,3.059035799931735,,,,,,,,,,,,,,,,,,,,student1,2022-10-25_11h17.08.736,Hippopolis_Learning,2022.2.4,60.14031939748861,
Hippopolis,stimuli/subj_files/student1_cityA.csv,./stimuli/frankfurt.jpg,./stimuli/street_plate1.png,PETÁRDA UTCA,stimuli/objects/009a.jpg,object,0,stimuli/objects/009a.jpg,stimuli/objects/009a.jpg,stimuli/scenes/051a.jpg,stimuli/objects/009b.jpg,stimuli/scenes/051b.jpg,target,dist1,lure,dist2,0,0,0,0,,,,,0,32,32,64,,,,,,,510.16316039999947,,,,,,511.1636930999812,,,,,,,,,,,,508.76377189997584,508.76377189997584,508.76377189997584,508.76377189997584,508.76377189997584,508.76377189997584,right,None,1.370043299975805,,,,,,,,,,,,,,,,,,,,student1,2022-10-25_11h17.08.736,Hippopolis_Learning,2022.2.4,60.14031939748861,
Hippopolis,stimuli/subj_files/student1_cityA.csv,./stimuli/frankfurt.jpg,./stimuli/street_plate1.png,ZSEMLE UTCA,stimuli/objects/115a.jpg,object,1,stimuli/objects/053a.jpg,stimuli/objects/007a.jpg,stimuli/objects/053a.jpg,stimuli/objects/007b.jpg,stimuli/objects/053b.jpg,dist1,target,dist2,lure,0,0,0,0,,,,,0,33,33,47,,,,,,,513.9467224000255,,,,,,514.9469096000539,,,,,,,,,,,,511.1636930999812,511.1636930999812,511.1636930999812,511.1636930999812,511.1636930999812,511.1636930999812,left,None,2.7577186999842525,,,,,,,,,,,,,,,,,,,,student1,2022-10-25_11h17.08.736,Hippopolis_Learning,2022.2.4,60.14031939748861,
Hippopolis,stimuli/subj_files/student1_cityA.csv,./stimuli/frankfurt.jpg,./stimuli/street_plate1.png,LÁNDZSA UTCA,stimuli/scenes/090a.jpg,scene,0,stimuli/scenes/090a.jpg,stimuli/scenes/090a.jpg,stimuli/objects/091b.jpg,stimuli/scenes/090b.jpg,stimuli/objects/091a.jpg,target,dist2,lure,dist1,0,0,0,0,,,,,0,34,34,39,,,,,,,516.4299957000185,,,,,,517.4304604000645,,,,,,,,,,,,514.9469096000539,514.9469096000539,514.9469096000539,514.9469096000539,514.9469096000539,514.9469096000539,right,None,1.454515999997966,,,,,,,,,,,,,,,,,,,,student1,2022-10-25_11h17.08.736,Hippopolis_Learning,2022.2.4,60.14031939748861,
Hippopolis,stimuli/subj_files/student1_cityA.csv,./stimuli/frankfurt.jpg,./stimuli/street_plate1.png,HEGESZTŐ UTCA,stimuli/scenes/043a.jpg,scene,0,stimuli/scenes/043a.jpg,stimuli/scenes/043b.jpg,stimuli/scenes/043a.jpg,stimuli/objects/062a.jpg,stimuli/objects/062b.jpg,lure,target,dist1,dist2,0,0,0,0,,,,,0,35,35,77,,,,,,,519.3630194000434,,,,,,520.3641264999751,,,,,,,,,,,,517.4304604000645,517.4304604000645,517.4304604000645,517.4304604000645,517.4304604000645,517.4304604000645,right,None,1.9103035000152886,,,,,,,,,,,,,,,,,,,,student1,2022-10-25_11h17.08.736,Hippopolis_Learning,2022.2.4,60.14031939748861,
Hippopolis,stimuli/subj_files/student1_cityA.csv,./stimuli/frankfurt.jpg,./stimuli/street_plate1.png,LIGET UTCA,stimuli/objects/038a.jpg,object,2,stimuli/scenes/109a.jpg,stimuli/scenes/109a.jpg,stimuli/objects/055a.jpg,stimuli/scenes/109b.jpg,stimuli/objects/055b.jpg,target,dist1,lure,dist2,0,0,0,0,,,,,0,36,36,62,,,,,,,524.0630131000653,,,,,,525.0634046000196,,,,,,,,,,,,520.3641264999751,520.3641264999751,520.3641264999751,520.3641264999751,520.3641264999751,520.3641264999751,left,None,3.675870400038548,,,,,,,,,,,,,,,,,,,,student1,2022-10-25_11h17.08.736,Hippopolis_Learning,2022.2.4,60.14031939748861,
Hippopolis,stimuli/subj_files/student1_cityA.csv,./stimuli/frankfurt.jpg,./stimuli/street_plate1.png,OLDAL UTCA,stimuli/scenes/093a.jpg,scene,2,stimuli/objects/107a.jpg,stimuli/objects/107b.jpg,stimuli/objects/022a.jpg,stimuli/objects/107a.jpg,stimuli/objects/022b.jpg,lure,dist1,target,dist2,0,0,0,0,,,,,0,37,37,11,,,,,,,526.7799375000177,,,,,,527.7802183000604,,,,,,,,,,,,525.0634046000196,525.0634046000196,525.0634046000196,525.0634046000196,525.0634046000196,525.0634046000196,right,None,1.6990489999298006,,,,,,,,,,,,,,,,,,,,student1,2022-10-25_11h17.08.736,Hippopolis_Learning,2022.2.4,60.14031939748861,
Hippopolis,stimuli/subj_files/student1_cityA.csv,./stimuli/frankfurt.jpg,./stimuli/street_plate1.png,LAKAT UTCA,stimuli/objects/066a.jpg,object,2,stimuli/scenes/084a.jpg,stimuli/scenes/084b.jpg,stimuli/scenes/034a.jpg,stimuli/scenes/084a.jpg,stimuli/scenes/034b.jpg,lure,dist1,target,dist2,0,0,0,0,,,,,0,38,38,58,,,,,,,531.080290599959,,,,,,532.0804918999784,,,,,,,,,,,,527.7802183000604,527.7802183000604,527.7802183000604,527.7802183000604,527.7802183000604,527.7802183000604,left,None,3.283895200002007,,,,,,,,,,,,,,,,,,,,student1,2022-10-25_11h17.08.736,Hippopolis_Learning,2022.2.4,60.14031939748861,
Hippopolis,stimuli/subj_files/student1_cityA.csv,./stimuli/frankfurt.jpg,./stimuli/street_plate1.png,KÖTÉNY UTCA,stimuli/scenes/031a.jpg,scene,1,stimuli/scenes/064a.jpg,stimuli/objects/103a.jpg,stimuli/objects/103b.jpg,stimuli/scenes/064b.jpg,stimuli/scenes/064a.jpg,dist1,dist2,lure,target,0,0,0,0,,,,,0,39,39,22,,,,,,,534.9963282999815,,,,,,535.9972105000634,,,,,,,,,,,,532.0804918999784,532.0804918999784,532.0804918999784,532.0804918999784,532.0804918999784,532.0804918999784,left,None,2.891199800069444,,,,,,,,,,,,,,,,,,,,student1,2022-10-25_11h17.08.736,Hippopolis_Learning,2022.2.4,60.14031939748861,
Hippopolis,stimuli/subj_files/student1_cityA.csv,./stimuli/frankfurt.jpg,./stimuli/street_plate1.png,POGÁCSA UTCA,stimuli/scenes/046a.jpg,scene,0,stimuli/scenes/046a.jpg,stimuli/scenes/042a.jpg,stimuli/scenes/046a.jpg,stimuli/scenes/046b.jpg,stimuli/scenes/042b.jpg,dist1,target,lure,dist2,0,0,0,0,,,,,0,40,40,49,,,,,,,539.9963316000067,,,,,,540.9965364000527,,,,,,,,,,,,535.9972105000634,535.9972105000634,535.9972105000634,535.9972105000634,535.9972105000634,535.9972105000634,None,None,,,,,,,,539.9963316000067,539.9963316000067,539.9963316000067,539.9963316000067,539.9963316000067,539.9963316000067,,,,,,,,student1,2022-10-25_11h17.08.736,Hippopolis_Learning,2022.2.4,60.14031939748861,
Hippopolis,stimuli/subj_files/student1_cityA.csv,./stimuli/frankfurt.jpg,./stimuli/street_plate1.png,CSILLAG UTCA,stimuli/scenes/083a.jpg,scene,1,stimuli/scenes/117a.jpg,stimuli/scenes/117a.jpg,stimuli/scenes/117b.jpg,stimuli/objects/041a.jpg,stimuli/objects/041b.jpg,target,lure,dist1,dist2,0,0,0,0,,,,,0,41,41,15,,,,,,,544.2962075000396,,,,,,545.296450600028,,,,,,,,,,,,540.9965364000527,540.9965364000527,540.9965364000527,540.9965364000527,540.9965364000527,540.9965364000527,left,None,3.2786789999809116,,,,,,,,,,,,,,,,,,,,student1,2022-10-25_11h17.08.736,Hippopolis_Learning,2022.2.4,60.14031939748861,
Hippopolis,stimuli/subj_files/student1_cityA.csv,./stimuli/frankfurt.jpg,./stimuli/street_plate1.png,KAKAS UTCA,stimuli/objects/002a.jpg,object,2,stimuli/scenes/074a.jpg,stimuli/scenes/074b.jpg,stimuli/scenes/074a.jpg,stimuli/scenes/070a.jpg,stimuli/scenes/070b.jpg,lure,target,dist1,dist2,0,0,0,0,,,,,0,42,42,24,,,,,,,548.1625737999566,,,,,,549.163047799957,,,,,,,,,,,,545.296450600028,545.296450600028,545.296450600028,545.296450600028,545.296450600028,545.296450600028,left,None,2.8399835999589413,,,,,,,,,,,,,,,,,,,,student1,2022-10-25_11h17.08.736,Hippopolis_Learning,2022.2.4,60.14031939748861,
Hippopolis,stimuli/subj_files/student1_cityA.csv,./stimuli/frankfurt.jpg,./stimuli/street_plate1.png,KERÉK UTCA,stimuli/scenes/096a.jpg,scene,1,stimuli/scenes/041a.jpg,stimuli/scenes/117a.jpg,stimuli/scenes/041b.jpg,stimuli/scenes/041a.jpg,stimuli/scenes/117b.jpg,dist1,lure,target,dist2,0,0,0,0,,,,,0,43,43,20,,,,,,,551.9626175999874,,,,,,552.9633987999987,,,,,,,,,,,,549.163047799957,549.163047799957,549.163047799957,549.163047799957,549.163047799957,549.163047799957,left,None,2.769765100092627,,,,,,,,,,,,,,,,,,,,student1,2022-10-25_11h17.08.736,Hippopolis_Learning,2022.2.4,60.14031939748861,
Hippopolis,stimuli/subj_files/student1_cityA.csv,./stimuli/frankfurt.jpg,./stimuli/street_plate1.png,PAPAGÁJ UTCA,stimuli/objects/093a.jpg,object,2,stimuli/scenes/097a.jpg,stimuli/scenes/097a.jpg,stimuli/scenes/109b.jpg,stimuli/scenes/109a.jpg,stimuli/scenes/097b.jpg,target,dist2,dist1,lure,0,0,0,0,,,,,0,44,44,55,,,,,,,556.6791355999885,,,,,,557.679514599964,,,,,,,,,,,,552.9633987999987,552.9633987999987,552.9633987999987,552.9633987999987,552.9633987999987,552.9633987999987,left,None,3.698549799970351,,,,,,,,,,,,,,,,,,,,student1,2022-10-25_11h17.08.736,Hippopolis_Learning,2022.2.4,60.14031939748861,
Hippopolis,stimuli/subj_files/student1_cityA.csv,./stimuli/frankfurt.jpg,./stimuli/street_plate1.png,KIRAKÓ UTCA,stimuli/objects/079a.jpg,object,2,stimuli/scenes/070a.jpg,stimuli/scenes/070a.jpg,stimuli/scenes/070b.jpg,stimuli/objects/043b.jpg,stimuli/objects/043a.jpg,target,lure,dist2,dist1,0,0,0,0,,,,,0,45,45,57,,,,,,,561.6791007999564,,,,,,562.679983500042,,,,,,,,,,,,557.679514599964,557.679514599964,557.679514599964,557.679514599964,557.679514599964,557.679514599964,None,None,,,,,,,,561.6791007999564,561.6791007999564,561.6791007999564,561.6791007999564,561.6791007999564,561.6791007999564,,,,,,,,student1,2022-10-25_11h17.08.736,Hippopolis_Learning,2022.2.4,60.14031939748861,
Hippopolis,stimuli/subj_files/student1_cityA.csv,./stimuli/frankfurt.jpg,./stimuli/street_plate1.png,LÉTRA UTCA,stimuli/objects/047a.jpg,object,1,stimuli/objects/015a.jpg,stimuli/objects/108b.jpg,stimuli/objects/015b.jpg,stimuli/objects/108a.jpg,stimuli/objects/015a.jpg,dist2,lure,dist1,target,0,0,0,0,,,,,0,46,46,33,,,,,,,564.1956386000384,,,,,,565.1961000000592,,,,,,,,,,,,562.679983500042,562.679983500042,562.679983500042,562.679983500042,562.679983500042,562.679983500042,right,None,1.4843160000164062,,,,,,,,,,,,,,,,,,,,student1,2022-10-25_11h17.08.736,Hippopolis_Learning,2022.2.4,60.14031939748861,
Hippopolis,stimuli/subj_files/student1_cityA.csv,./stimuli/frankfurt.jpg,./stimuli/street_plate1.png,VÖDÖR UTCA,stimuli/scenes/055a.jpg,scene,1,stimuli/scenes/088a.jpg,stimuli/scenes/088b.jpg,stimuli/scenes/088a.jpg,stimuli/scenes/087b.jpg,stimuli/scenes/087a.jpg,lure,target,dist2,dist1,0,0,0,0,,,,,0,47,47,56,,,,,,,568.2957241999684,,,,,,569.2961740000173,,,,,,,,,,,,565.1961000000592,565.1961000000592,565.1961000000592,565.1961000000592,565.1961000000592,565.1961000000592,left,None,3.068332700058818,,,,,,,,,,,,,,,,,,,,student1,2022-10-25_11h17.08.736,Hippopolis_Learning,2022.2.4,60.14031939748861,
Hippopolis,stimuli/subj_files/student1_cityA.csv,./stimuli/frankfurt.jpg,./stimuli/street_plate1.png,HORDÓ UTCA,stimuli/scenes/095a.jpg,scene,0,stimuli/scenes/095a.jpg,stimuli/scenes/095a.jpg,stimuli/scenes/046a.jpg,stimuli/scenes/095b.jpg,stimuli/scenes/046b.jpg,target,dist1,lure,dist2,0,0,0,0,,,,,0,48,48,27,,,,,,,571.9788612000411,,,,,,572.9792028999655,,,,,,,,,,,,569.2961740000173,569.2961740000173,569.2961740000173,569.2961740000173,569.2961740000173,569.2961740000173,left,None,2.653339199954644,,,,,,,,,,,,,,,,,,,,student1,2022-10-25_11h17.08.736,Hippopolis_Learning,2022.2.4,60.14031939748861,
Hippopolis,stimuli/subj_files/student1_cityA.csv,./stimuli/frankfurt.jpg,./stimuli/street_plate1.png,SZIKLA UTCA,stimuli/scenes/111a.jpg,scene,2,stimuli/objects/073a.jpg,stimuli/objects/120b.jpg,stimuli/objects/120a.jpg,stimuli/objects/073a.jpg,stimuli/objects/073b.jpg,dist2,dist1,target,lure,0,0,0,0,,,,,0,49,49,1,,,,,,,576.2623357999837,,,,,,577.2626356000546,,,,,,,,,,,,572.9792028999655,572.9792028999655,572.9792028999655,572.9792028999655,572.9792028999655,572.9792028999655,left,None,3.251540399971418,,,,,,,,,,,,,,,,,,,,student1,2022-10-25_11h17.08.736,Hippopolis_Learning,2022.2.4,60.14031939748861,
Hippopolis,stimuli/subj_files/student1_cityA.csv,./stimuli/frankfurt.jpg,./stimuli/street_plate1.png,RÁDIÓ UTCA,stimuli/scenes/068a.jpg,scene,1,stimuli/scenes/067a.jpg,stimuli/scenes/018b.jpg,stimuli/scenes/067a.jpg,stimuli/scenes/067b.jpg,stimuli/scenes/018a.jpg,dist2,target,lure,dist1,0,0,0,0,,,,,0,50,50,44,,,,,,,581.2624185000313,,,,,,582.262912599952,,,,,,,,,,,,577.2626356000546,577.2626356000546,577.2626356000546,577.2626356000546,577.2626356000546,577.2626356000546,None,None,,,,,,,,581.2624185000313,581.2624185000313,581.2624185000313,581.2624185000313,581.2624185000313,581.2624185000313,,,,,,,,student1,2022-10-25_11h17.08.736,Hippopolis_Learning,2022.2.4,60.14031939748861,
Hippopolis,stimuli/subj_files/student1_cityA.csv,./stimuli/frankfurt.jpg,./stimuli/street_plate1.png,SIVATAG UTCA,stimuli/scenes/016a.jpg,scene,2,stimuli/objects/046a.jpg,stimuli/objects/046b.jpg,stimuli/objects/006a.jpg,stimuli/objects/006b.jpg,stimuli/objects/046a.jpg,lure,dist1,dist2,target,0,0,0,0,,,,,0,51,51,23,,,,,,,585.8619670000626,,,,,,586.8627824999858,,,,,,,,,,,,582.262912599952,582.262912599952,582.262912599952,582.262912599952,582.262912599952,582.262912599952,left,None,3.577905200072564,,,,,,,,,,,,,,,,,,,,student1,2022-10-25_11h17.08.736,Hippopolis_Learning,2022.2.4,60.14031939748861,
Hippopolis,stimuli/subj_files/student1_cityA.csv,./stimuli/frankfurt.jpg,./stimuli/street_plate1.png,PAPUCS UTCA,stimuli/scenes/051a.jpg,scene,0,stimuli/scenes/051a.jpg,stimuli/scenes/051b.jpg,stimuli/scenes/051a.jpg,stimuli/scenes/090a.jpg,stimuli/scenes/090b.jpg,lure,target,dist1,dist2,0,0,0,0,,,,,0,52,52,68,,,,,,,590.8620358000044,,,,,,591.8622501000063,,,,,,,,,,,,586.8627824999858,586.8627824999858,586.8627824999858,586.8627824999858,586.8627824999858,586.8627824999858,None,None,,,,,,,,590.8620358000044,590.8620358000044,590.8620358000044,590.8620358000044,590.8620358000044,590.8620358000044,,,,,,,,student1,2022-10-25_11h17.08.736,Hippopolis_Learning,2022.2.4,60.14031939748861,
Hippopolis,stimuli/subj_files/student1_cityA.csv,./stimuli/frankfurt.jpg,./stimuli/street_plate1.png,BOLYGÓ UTCA,stimuli/scenes/118a.jpg,scene,1,stimuli/scenes/087a.jpg,stimuli/objects/011a.jpg,stimuli/scenes/087b.jpg,stimuli/objects/011b.jpg,stimuli/scenes/087a.jpg,dist1,lure,dist2,target,0,0,0,0,,,,,0,53,53,31,,,,,,,592.7786097000353,,,,,,593.7789475000463,,,,,,,,,,,,591.8622501000063,591.8622501000063,591.8622501000063,591.8622501000063,591.8622501000063,591.8622501000063,right,None,0.8979834000347182,,,,,,,,,,,,,,,,,,,,student1,2022-10-25_11h17.08.736,Hippopolis_Learning,2022.2.4,60.14031939748861,
Hippopolis,stimuli/subj_files/student1_cityA.csv,./stimuli/frankfurt.jpg,./stimuli/street_plate1.png,SZOMSZÉD UTCA,stimuli/objects/026a.jpg,object,1,stimuli/objects/004a.jpg,stimuli/objects/027b.jpg,stimuli/objects/004b.jpg,stimuli/objects/004a.jpg,stimuli/objects/027a.jpg,dist2,lure,target,dist1,0,0,0,0,,,,,0,54,54,65,,,,,,,604.4122408999829,,,,,,605.412129699951,,,,,,,,,,,,593.7789475000463,593.7789475000463,593.7789475000463,593.7789475000463,593.7789475000463,593.7789475000463,right,space,2.9746027999790385,596.7791640000651,596.7791640000651,596.7791640000651,596.7791640000651,596.7791640000651,7.6029332999605685,,,,,,,,,,,,,,student1,2022-10-25_11h17.08.736,Hippopolis_Learning,2022.2.4,60.14031939748861,
Hippopolis,stimuli/subj_files/student1_cityA.csv,./stimuli/frankfurt.jpg,./stimuli/street_plate1.png,MUSTÁR UTCA,stimuli/scenes/050a.jpg,scene,0,stimuli/scenes/050a.jpg,stimuli/objects/009a.jpg,stimuli/objects/009b.jpg,stimuli/scenes/050a.jpg,stimuli/scenes/050b.jpg,dist1,dist2,target,lure,0,0,0,0,,,,,0,55,55,78,,,,,,,606.6784583999543,,,,,,607.6794941000408,,,,,,,,,,,,605.412129699951,605.412129699951,605.412129699951,605.412129699951,605.412129699951,605.412129699951,left,None,1.2489295999985188,,,,,,,,,,,,,,,,,,,,student1,2022-10-25_11h17.08.736,Hippopolis_Learning,2022.2.4,60.14031939748861,
Hippopolis,stimuli/subj_files/student1_cityA.csv,./stimuli/frankfurt.jpg,./stimuli/street_plate1.png,HERNYÓ UTCA,stimuli/scenes/066a.jpg,scene,1,stimuli/scenes/037a.jpg,stimuli/scenes/037a.jpg,stimuli/objects/045b.jpg,stimuli/scenes/037b.jpg,stimuli/objects/045a.jpg,target,dist2,lure,dist1,0,0,0,0,,,,,0,56,56,5,,,,,,,609.661859099986,,,,,,610.6621559000341,,,,,,,,,,,,607.6794941000408,607.6794941000408,607.6794941000408,607.6794941000408,607.6794941000408,607.6794941000408,left,None,1.9611538000172004,,,,,,,,,,,,,,,,,,,,student1,2022-10-25_11h17.08.736,Hippopolis_Learning,2022.2.4,60.14031939748861,
Hippopolis,stimuli/subj_files/student1_cityA.csv,./stimuli/frankfurt.jpg,./stimuli/street_plate1.png,ÁLOM UTCA,stimuli/objects/070a.jpg,object,0,stimuli/objects/070a.jpg,stimuli/objects/070b.jpg,stimuli/objects/114b.jpg,stimuli/objects/114a.jpg,stimuli/objects/070a.jpg,lure,dist2,dist1,target,0,0,0,0,,,,,0,57,57,50,,,,,,,611.9114432999631,,,,,,612.9123993000248,,,,,,,,,,,,610.6621559000341,610.6621559000341,610.6621559000341,610.6621559000341,610.6621559000341,610.6621559000341,right,None,1.228209999972023,,,,,,,,,,,,,,,,,,,,student1,2022-10-25_11h17.08.736,Hippopolis_Learning,2022.2.4,60.14031939748861,
Hippopolis,stimuli/subj_files/student1_cityA.csv,./stimuli/frankfurt.jpg,./stimuli/street_plate1.png,TERASZ UTCA,stimuli/objects/063a.jpg,object,2,stimuli/scenes/104a.jpg,stimuli/scenes/104a.jpg,stimuli/scenes/056a.jpg,stimuli/scenes/104b.jpg,stimuli/scenes/056b.jpg,target,dist1,lure,dist2,0,0,0,0,,,,,0,58,58,48,,,,,,,614.0949877999956,,,,,,615.0952721000649,,,,,,,,,,,,612.9123993000248,612.9123993000248,612.9123993000248,612.9123993000248,612.9123993000248,612.9123993000248,left,None,1.1562791999895126,,,,,,,,,,,,,,,,,,,,student1,2022-10-25_11h17.08.736,Hippopolis_Learning,2022.2.4,60.14031939748861,
Hippopolis,stimuli/subj_files/student1_cityA.csv,./stimuli/frankfurt.jpg,./stimuli/street_plate1.png,PÁLMAFA UTCA,stimuli/objects/090a.jpg,object,1,stimuli/objects/007a.jpg,stimuli/objects/053a.jpg,stimuli/objects/007a.jpg,stimuli/objects/053b.jpg,stimuli/objects/007b.jpg,dist1,target,dist2,lure,0,0,0,0,,,,,0,59,59,12,,,,,,,617.728003700031,,,,,,618.728951600031,,,,,,,,,,,,615.0952721000649,615.0952721000649,615.0952721000649,615.0952721000649,615.0952721000649,615.0952721000649,left,None,2.6137220000382513,,,,,,,,,,,,,,,,,,,,student1,2022-10-25_11h17.08.736,Hippopolis_Learning,2022.2.4,60.14031939748861,
Hippopolis,stimuli/subj_files/student1_cityA.csv,./stimuli/frankfurt.jpg,./stimuli/street_plate1.png,KECSKE UTCA,stimuli/scenes/085a.jpg,scene,2,stimuli/objects/022a.jpg,stimuli/objects/022b.jpg,stimuli/objects/022a.jpg,stimuli/scenes/053a.jpg,stimuli/scenes/053b.jpg,lure,target,dist1,dist2,0,0,0,0,,,,,0,60,60,6,,,,,,,621.578510100022,,,,,,622.5785174999619,,,,,,,,,,,,618.728951600031,618.728951600031,618.728951600031,618.728951600031,618.728951600031,618.728951600031,right,None,2.8331193999620155,,,,,,,,,,,,,,,,,,,,student1,2022-10-25_11h17.08.736,Hippopolis_Learning,2022.2.4,60.14031939748861,
Hippopolis,stimuli/subj_files/student1_cityA.csv,./stimuli/frankfurt.jpg,./stimuli/street_plate1.png,KERET UTCA,stimuli/scenes/027a.jpg,scene,0,stimuli/scenes/027a.jpg,stimuli/objects/100a.jpg,stimuli/objects/100b.jpg,stimuli/scenes/027a.jpg,stimuli/scenes/027b.jpg,dist1,dist2,target,lure,0,0,0,0,,,,,0,61,61,3,,,,,,,630.3113557000179,,,,,,631.3119354000082,,,,,,,,,,,,622.5785174999619,622.5785174999619,622.5785174999619,622.5785174999619,622.5785174999619,622.5785174999619,right,space,1.9323835999239236,624.5283386999508,624.5283386999508,624.5283386999508,624.5283386999508,624.5283386999508,5.750991399982013,,,,,,,,,,,,,,student1,2022-10-25_11h17.08.736,Hippopolis_Learning,2022.2.4,60.14031939748861,
Hippopolis,stimuli/subj_files/student1_cityA.csv,./stimuli/frankfurt.jpg,./stimuli/street_plate1.png,TOJÁS UTCA,stimuli/objects/021a.jpg,object,2,stimuli/scenes/034a.jpg,stimuli/scenes/034a.jpg,stimuli/objects/059a.jpg,stimuli/objects/059b.jpg,stimuli/scenes/034b.jpg,target,dist1,dist2,lure,0,0,0,0,,,,,0,62,62,37,,,,,,,632.394671899965,,,,,,633.394933899981,,,,,,,,,,,,631.3119354000082,631.3119354000082,631.3119354000082,631.3119354000082,631.3119354000082,631.3119354000082,left,None,1.0611531999893486,,,,,,,,,,,,,,,,,,,,student1,2022-10-25_11h17.08.736,Hippopolis_Learning,2022.2.4,60.14031939748861,
Hippopolis,stimuli/subj_files/student1_cityA.csv,./stimuli/frankfurt.jpg,./stimuli/street_plate1.png,KÖMÉNYMAG UTCA,stimuli/objects/068a.jpg,object,1,stimuli/objects/045a.jpg,stimuli/objects/045a.jpg,stimuli/objects/045b.jpg,stimuli/objects/071a.jpg,stimuli/objects/071b.jpg,target,lure,dist1,dist2,0,0,0,0,,,,,0,63,63,18,,,,,,,636.2119691000553,,,,,,637.212023,,,,,,,,,,,,633.394933899981,633.394933899981,633.394933899981,633.394933899981,633.394933899981,633.394933899981,left,None,2.7855664000380784,,,,,,,,,,,,,,,,,,,,student1,2022-10-25_11h17.08.736,Hippopolis_Learning,2022.2.4,60.14031939748861,
Hippopolis,stimuli/subj_files/student1_cityA.csv,./stimuli/frankfurt.jpg,./stimuli/street_plate1.png,MÁLNA UTCA,stimuli/objects/069a.jpg,object,2,stimuli/scenes/053a.jpg,stimuli/objects/073a.jpg,stimuli/objects/073b.jpg,stimuli/scenes/053b.jpg,stimuli/scenes/053a.jpg,dist1,dist2,lure,target,0,0,0,0,,,,,0,64,64,14,,,,,,,641.2111374000087,,,,,,642.2116014000494,,,,,,,,,,,,637.212023,637.212023,637.212023,637.212023,637.212023,637.212023,None,None,,,,,,,,641.2111374000087,641.2111374000087,641.2111374000087,641.2111374000087,641.2111374000087,641.2111374000087,,,,,,,,student1,2022-10-25_11h17.08.736,Hippopolis_Learning,2022.2.4,60.14031939748861,
Hippopolis,stimuli/subj_files/student1_cityA.csv,./stimuli/frankfurt.jpg,./stimuli/street_plate1.png,CSAVAR UTCA,stimuli/objects/078a.jpg,object,0,stimuli/objects/078a.jpg,stimuli/objects/078b.jpg,stimuli/objects/024b.jpg,stimuli/objects/078a.jpg,stimuli/objects/024a.jpg,lure,dist2,target,dist1,0,0,0,0,,,,,0,65,65,10,,,,,,,644.9112512000138,,,,,,645.9115956999594,,,,,,,,,,,,642.2116014000494,642.2116014000494,642.2116014000494,642.2116014000494,642.2116014000494,642.2116014000494,right,None,2.6812693000538275,,,,,,,,,,,,,,,,,,,,student1,2022-10-25_11h17.08.736,Hippopolis_Learning,2022.2.4,60.14031939748861,
Hippopolis,stimuli/subj_files/student1_cityA.csv,./stimuli/frankfurt.jpg,./stimuli/street_plate1.png,BÖGRE UTCA,stimuli/objects/050a.jpg,object,1,stimuli/objects/076a.jpg,stimuli/scenes/037a.jpg,stimuli/objects/076a.jpg,stimuli/objects/076b.jpg,stimuli/scenes/037b.jpg,dist1,target,lure,dist2,0,0,0,0,,,,,0,66,66,41,,,,,,,648.9110739000607,,,,,,649.9119458000641,,,,,,,,,,,,645.9115956999594,645.9115956999594,645.9115956999594,645.9115956999594,645.9115956999594,645.9115956999594,left,None,2.9818823999958113,,,,,,,,,,,,,,,,,,,,student1,2022-10-25_11h17.08.736,Hippopolis_Learning,2022.2.4,60.14031939748861,
Hippopolis,stimuli/subj_files/student1_cityA.csv,./stimuli/frankfurt.jpg,./stimuli/street_plate1.png,TOBOZ UTCA,stimuli/objects/001a.jpg,object,2,stimuli/scenes/059a.jpg,stimuli/scenes/059a.jpg,stimuli/objects/085a.jpg,stimuli/objects/085b.jpg,stimuli/scenes/059b.jpg,target,dist1,dist2,lure,0,0,0,0,,,,,0,67,67,40,,,,,,,652.5944981999928,,,,,,653.5948524000123,,,,,,,,,,,,649.9119458000641,649.9119458000641,649.9119458000641,649.9119458000641,649.9119458000641,649.9119458000641,left,None,2.666126500000246,,,,,,,,,,,,,,,,,,,,student1,2022-10-25_11h17.08.736,Hippopolis_Learning,2022.2.4,60.14031939748861,
Hippopolis,stimuli/subj_files/student1_cityA.csv,./stimuli/frankfurt.jpg,./stimuli/street_plate1.png,KULLANCS UTCA,stimuli/objects/089a.jpg,object,0,stimuli/objects/089a.jpg,stimuli/scenes/072a.jpg,stimuli/objects/089a.jpg,stimuli/scenes/072b.jpg,stimuli/objects/089b.jpg,dist1,target,dist2,lure,0,0,0,0,,,,,0,68,68,34,,,,,,,656.5775218000636,,,,,,657.5779305000324,,,,,,,,,,,,653.5948524000123,653.5948524000123,653.5948524000123,653.5948524000123,653.5948524000123,653.5948524000123,right,None,2.9567347000120208,,,,,,,,,,,,,,,,,,,,student1,2022-10-25_11h17.08.736,Hippopolis_Learning,2022.2.4,60.14031939748861,
Hippopolis,stimuli/subj_files/student1_cityA.csv,./stimuli/frankfurt.jpg,./stimuli/street_plate1.png,CUKOR UTCA,stimuli/objects/111a.jpg,object,0,stimuli/objects/111a.jpg,stimuli/objects/089b.jpg,stimuli/objects/111b.jpg,stimuli/objects/111a.jpg,stimuli/objects/089a.jpg,dist2,lure,target,dist1,0,0,0,0,,,,,0,69,69,30,,,,,,,660.0609855999937,,,,,,661.0612164000049,,,,,,,,,,,,657.5779305000324,657.5779305000324,657.5779305000324,657.5779305000324,657.5779305000324,657.5779305000324,left,None,2.4644637999590486,,,,,,,,,,,,,,,,,,,,student1,2022-10-25_11h17.08.736,Hippopolis_Learning,2022.2.4,60.14031939748861,
Hippopolis,stimuli/subj_files/student1_cityA.csv,./stimuli/frankfurt.jpg,./stimuli/street_plate1.png,MUNKA UTCA,stimuli/scenes/039a.jpg,scene,2,stimuli/objects/067a.jpg,stimuli/scenes/097a.jpg,stimuli/objects/067b.jpg,stimuli/objects/067a.jpg,stimuli/scenes/097b.jpg,dist1,lure,target,dist2,0,0,0,0,,,,,0,70,70,4,,,,,,,663.4107930000173,,,,,,664.4122932000319,,,,,,,,,,,,661.0612164000049,661.0612164000049,661.0612164000049,661.0612164000049,661.0612164000049,661.0612164000049,left,None,2.328590799937956,,,,,,,,,,,,,,,,,,,,student1,2022-10-25_11h17.08.736,Hippopolis_Learning,2022.2.4,60.14031939748861,
Hippopolis,stimuli/subj_files/student1_cityA.csv,./stimuli/frankfurt.jpg,./stimuli/street_plate1.png,HEGEDŰ UTCA,stimuli/scenes/113a.jpg,scene,2,stimuli/objects/036a.jpg,stimuli/objects/036b.jpg,stimuli/scenes/059b.jpg,stimuli/scenes/059a.jpg,stimuli/objects/036a.jpg,lure,dist2,dist1,target,0,0,0,0,,,,,0,71,71,69,,,,,,,665.9108465999598,,,,,,666.9113273000112,,,,,,,,,,,,664.4122932000319,664.4122932000319,664.4122932000319,664.4122932000319,664.4122932000319,664.4122932000319,right,None,1.4729585000313818,,,,,,,,,,,,,,,,,,,,student1,2022-10-25_11h17.08.736,Hippopolis_Learning,2022.2.4,60.14031939748861,
Hippopolis,stimuli/subj_files/student1_cityA.csv,./stimuli/frankfurt.jpg,./stimuli/street_plate1.png,FOGAS UTCA,stimuli/scenes/025a.jpg,scene,1,stimuli/scenes/018a.jpg,stimuli/scenes/018b.jpg,stimuli/scenes/064a.jpg,stimuli/scenes/018a.jpg,stimuli/scenes/064b.jpg,lure,dist1,target,dist2,0,0,0,0,,,,,0,72,72,38,,,,,,,670.9107252999675,,,,,,671.9109608000144,,,,,,,,,,,,666.9113273000112,666.9113273000112,666.9113273000112,666.9113273000112,666.9113273000112,666.9113273000112,None,None,,,,,,,,670.9107252999675,670.9107252999675,670.9107252999675,670.9107252999675,670.9107252999675,670.9107252999675,,,,,,,,student1,2022-10-25_11h17.08.736,Hippopolis_Learning,2022.2.4,60.14031939748861,
Hippopolis,stimuli/subj_files/student1_cityA.csv,./stimuli/frankfurt.jpg,./stimuli/street_plate1.png,PADLÓ UTCA,stimuli/objects/100a.jpg,object,0,stimuli/objects/100a.jpg,stimuli/scenes/058a.jpg,stimuli/scenes/058b.jpg,stimuli/objects/100a.jpg,stimuli/objects/100b.jpg,dist1,dist2,target,lure,0,0,0,0,,,,,0,73,73,59,,,,,,,672.9774513000157,,,,,,673.9779133000411,,,,,,,,,,,,671.9109608000144,671.9109608000144,671.9109608000144,671.9109608000144,671.9109608000144,671.9109608000144,left,None,1.0437669000821188,,,,,,,,,,,,,,,,,,,,student1,2022-10-25_11h17.08.736,Hippopolis_Learning,2022.2.4,60.14031939748861,
Hippopolis,stimuli/subj_files/student1_cityA.csv,./stimuli/frankfurt.jpg,./stimuli/street_plate1.png,MARTINI UTCA,stimuli/objects/060a.jpg,object,1,stimuli/objects/011a.jpg,stimuli/objects/075b.jpg,stimuli/objects/075a.jpg,stimuli/objects/011b.jpg,stimuli/objects/011a.jpg,dist2,dist1,lure,target,0,0,0,0,,,,,0,74,74,60,,,,,,,676.2605592999607,,,,,,677.2614112000447,,,,,,,,,,,,673.9779133000411,673.9779133000411,673.9779133000411,673.9779133000411,673.9779133000411,673.9779133000411,right,None,2.2545078999828547,,,,,,,,,,,,,,,,,,,,student1,2022-10-25_11h17.08.736,Hippopolis_Learning,2022.2.4,60.14031939748861,
Hippopolis,stimuli/subj_files/student1_cityA.csv,./stimuli/frankfurt.jpg,./stimuli/street_plate1.png,KÖNYVTÁR UTCA,stimuli/objects/113a.jpg,object,1,stimuli/objects/109a.jpg,stimuli/objects/109a.jpg,stimuli/objects/109b.jpg,stimuli/scenes/067a.jpg,stimuli/scenes/067b.jpg,target,lure,dist1,dist2,0,0,0,0,,,,,0,75,75,42,,,,,,,679.7436966999667,,,,,,680.7446329999948,,,,,,,,,,,,677.2614112000447,677.2614112000447,677.2614112000447,677.2614112000447,677.2614112000447,677.2614112000447,left,None,2.465712000033818,,,,,,,,,,,,,,,,,,,,student1,2022-10-25_11h17.08.736,Hippopolis_Learning,2022.2.4,60.14031939748861,
Hippopolis,stimuli/subj_files/student1_cityA.csv,./stimuli/frankfurt.jpg,./stimuli/street_plate1.png,PÁFRÁNY UTCA,stimuli/scenes/101a.jpg,scene,0,stimuli/scenes/101a.jpg,stimuli/scenes/101a.jpg,stimuli/scenes/101b.jpg,stimuli/objects/051a.jpg,stimuli/objects/051b.jpg,target,lure,dist1,dist2,0,0,0,0,,,,,0,76,76,0,,,,,,,682.9437044999795,,,,,,683.9442489000503,,,,,,,,,,,,680.7446329999948,680.7446329999948,680.7446329999948,680.7446329999948,680.7446329999948,680.7446329999948,left,None,2.1800576000241563,,,,,,,,,,,,,,,,,,,,student1,2022-10-25_11h17.08.736,Hippopolis_Learning,2022.2.4,60.14031939748861,
Hippopolis,stimuli/subj_files/student1_cityA.csv,./stimuli/frankfurt.jpg,./stimuli/street_plate1.png,EGÉR UTCA,stimuli/scenes/071a.jpg,scene,1,stimuli/scenes/116a.jpg,stimuli/scenes/116b.jpg,stimuli/scenes/116a.jpg,stimuli/scenes/009b.jpg,stimuli/scenes/009a.jpg,lure,target,dist2,dist1,0,0,0,0,,,,,0,77,77,29,,,,,,,686.0774028999731,,,,,,687.077608200023,,,,,,,,,,,,683.9442489000503,683.9442489000503,683.9442489000503,683.9442489000503,683.9442489000503,683.9442489000503,left,None,2.111619200091809,,,,,,,,,,,,,,,,,,,,student1,2022-10-25_11h17.08.736,Hippopolis_Learning,2022.2.4,60.14031939748861,
Hippopolis,stimuli/subj_files/student1_cityA.csv,./stimuli/frankfurt.jpg,./stimuli/street_plate1.png,MOTOR UTCA,stimuli/objects/097a.jpg,object,1,stimuli/objects/071a.jpg,stimuli/objects/015b.jpg,stimuli/objects/071b.jpg,stimuli/objects/071a.jpg,stimuli/objects/015a.jpg,dist2,lure,target,dist1,0,0,0,0,,,,,0,78,78,36,,,,,,,690.6938214000547,,,,,,691.6940860999748,,,,,,,,,,,,687.077608200023,687.077608200023,687.077608200023,687.077608200023,687.077608200023,687.077608200023,left,None,3.5910050999373198,,,,,,,,,,,,,,,,,,,,student1,2022-10-25_11h17.08.736,Hippopolis_Learning,2022.2.4,60.14031939748861,
Hippopolis,stimuli/subj_files/student1_cityA.csv,./stimuli/frankfurt.jpg,./stimuli/street_plate1.png,FÉNYKÉP UTCA,stimuli/scenes/010a.jpg,scene,1,stimuli/scenes/078a.jpg,stimuli/scenes/088a.jpg,stimuli/scenes/078a.jpg,stimuli/scenes/088b.jpg,stimuli/scenes/078b.jpg,dist1,target,dist2,lure,0,0,0,0,,,,,0,79,79,32,,,,,,,694.3269010999938,,,,,,695.327560900012,,,,,,,,,,,,691.6940860999748,691.6940860999748,691.6940860999748,691.6940860999748,691.6940860999748,691.6940860999748,left,None,2.6073338999412954,,,,,,,,,,,,,,,,,,,,student1,2022-10-25_11h17.08.736,Hippopolis_Learning,2022.2.4,60.14031939748861,
Camponello,stimuli/subj_files/student1_cityB.csv,./stimuli/leipzig.jpg,./stimuli/street_plate2.png,REPÜLŐ UTCA,stimuli/scenes/098a.jpg,scene,0,stimuli/scenes/098a.jpg,stimuli/scenes/013a.jpg,stimuli/scenes/013b.jpg,stimuli/scenes/098a.jpg,stimuli/scenes/098b.jpg,dist1,dist2,target,lure,0,1,1,1,0,0,0,66,,,,,,,,,711.8631712000351,711.8631712000351,714.857920999988,715.8622603999684,715.8622603999684,715.8622603999684,715.8622603999684,None,,,,,,,,,,,,,,,,,,,,,,,,,,,,,,,,,,24,695.327560900012,695.327560900012,space,16.475428299978375,,,student1,2022-10-25_11h17.08.736,Hippopolis_Learning,2022.2.4,60.14031939748861,
Camponello,stimuli/subj_files/student1_cityB.csv,./stimuli/leipzig.jpg,./stimuli/street_plate2.png,KOSÁR UTCA,stimuli/objects/057a.jpg,object,2,stimuli/scenes/001a.jpg,stimuli/scenes/001a.jpg,stimuli/scenes/001b.jpg,stimuli/objects/005b.jpg,stimuli/objects/005a.jpg,target,lure,dist2,dist1,0,1,1,1,0,1,1,38,,,,,,,,,,,718.8434637000319,719.8464331000578,719.8464331000578,719.8464331000578,719.8464331000578,None,719.8464331000578,,,,,,,,,,,,,,,,,,,,,,,,,,,,,,,,,,,,,,,,student1,2022-10-25_11h17.08.736,Hippopolis_Learning,2022.2.4,60.14031939748861,
Camponello,stimuli/subj_files/student1_cityB.csv,./stimuli/leipzig.jpg,./stimuli/street_plate2.png,ZEBRA UTCA,stimuli/scenes/106a.jpg,scene,0,stimuli/scenes/106a.jpg,stimuli/scenes/030a.jpg,stimuli/scenes/106a.jpg,stimuli/scenes/106b.jpg,stimuli/scenes/030b.jpg,dist1,target,lure,dist2,0,1,1,1,0,2,2,12,,,,,,,,,,,722.8600624999963,723.8698691000463,723.8698691000463,723.8698691000463,723.8698691000463,None,723.8698691000463,,,,,,,,,,,,,,,,,,,,,,,,,,,,,,,,,,,,,,,,student1,2022-10-25_11h17.08.736,Hippopolis_Learning,2022.2.4,60.14031939748861,
Camponello,stimuli/subj_files/student1_cityB.csv,./stimuli/leipzig.jpg,./stimuli/street_plate2.png,KAKAÓ UTCA,stimuli/objects/099a.jpg,object,1,stimuli/objects/119a.jpg,stimuli/scenes/086a.jpg,stimuli/objects/119a.jpg,stimuli/scenes/086b.jpg,stimuli/objects/119b.jpg,dist1,target,dist2,lure,0,1,1,1,0,3,3,0,,,,,,,,,,,726.8768717000494,727.8910334999673,727.8910334999673,727.8910334999673,727.8910334999673,None,727.8910334999673,,,,,,,,,,,,,,,,,,,,,,,,,,,,,,,,,,,,,,,,student1,2022-10-25_11h17.08.736,Hippopolis_Learning,2022.2.4,60.14031939748861,
Camponello,stimuli/subj_files/student1_cityB.csv,./stimuli/leipzig.jpg,./stimuli/street_plate2.png,ÁLLOMÁS UTCA,stimuli/scenes/069a.jpg,scene,0,stimuli/scenes/069a.jpg,stimuli/scenes/106a.jpg,stimuli/scenes/106b.jpg,stimuli/scenes/069b.jpg,stimuli/scenes/069a.jpg,dist1,dist2,lure,target,0,1,1,1,0,4,4,42,,,,,,,,,,,730.8932828999823,731.8978935000487,731.8978935000487,731.8978935000487,731.8978935000487,None,731.8978935000487,,,,,,,,,,,,,,,,,,,,,,,,,,,,,,,,,,,,,,,,student1,2022-10-25_11h17.08.736,Hippopolis_Learning,2022.2.4,60.14031939748861,
Camponello,stimuli/subj_files/student1_cityB.csv,./stimuli/leipzig.jpg,./stimuli/street_plate2.png,SZŐNYEG UTCA,stimuli/objects/040a.jpg,object,0,stimuli/objects/040a.jpg,stimuli/objects/040a.jpg,stimuli/objects/040b.jpg,stimuli/objects/019b.jpg,stimuli/objects/019a.jpg,target,lure,dist2,dist1,0,1,1,1,0,5,5,29,,,,,,,,,,,734.9100684999721,735.9218818000518,735.9218818000518,735.9218818000518,735.9218818000518,None,735.9218818000518,,,,,,,,,,,,,,,,,,,,,,,,,,,,,,,,,,,,,,,,student1,2022-10-25_11h17.08.736,Hippopolis_Learning,2022.2.4,60.14031939748861,
