CityName,StimuliFile,CityImage,StreetSign,Cue,Image,Category,Novelty,UpdateImage,TestImage1,TestImage2,TestImage3,TestImage4,TestImage1Type,TestImage2Type,TestImage3Type,TestImage4Type,CityBlock.thisRepN,CityBlock.thisTrialN,CityBlock.thisN,CityBlock.thisIndex,LearningTrials.thisRepN,LearningTrials.thisTrialN,LearningTrials.thisN,LearningTrials.thisIndex,trials.thisRepN,trials.thisTrialN,trials.thisN,trials.thisIndex,learning_instructions_text.started,intro_key.started,intro_key.keys,intro_key.rt,cityname_text.started,city_image.started,fx_cross.started,plate.started,city_text.started,street_text.started,learning_image.started,short_break_key.keys,fx_cross.stopped,plate.stopped,city_text.stopped,street_text.stopped,learning_image.stopped,short_break_text.started,short_break_key.started,short_break_key.rt,test_text.started,key_resp.started,key_resp.keys,key_resp.rt,plate_test.started,city_text_test.started,street_text_test.started,test_question.started,test_key_resp.started,button_image.started,test_key_resp.keys,verbal_test_key_resp.keys,test_key_resp.rt,plate_test.stopped,city_text_test.stopped,street_text_test.stopped,test_question.stopped,test_key_resp.stopped,button_image.stopped,plate_verbal.started,street_text_verbal.started,city_text_verbal.started,question_verbal.started,verbal_test_key_resp.started,verbal_test_key_resp.rt,n_remembered,break_text.started,break_key_resp.started,break_key_resp.keys,break_key_resp.rt,end_text.started,end_text.stopped,participant,date,expName,psychopyVersion,frameRate,
,,,,,,,,,,,,,,,,,,,,,,,,,,,,,43.71423090004828,43.71423090004828,space,35.76526510005351,,,,,,,,,,,,,,,,,,,,,,,,,,,,,,,,,,,,,,,,,,,,,,,,,student1,2022-10-25_13h10.18.953,Hippopolis_Learning,2022.2.4,59.97350369980095,
Hippopolis,stimuli/subj_files/student1_cityA.csv,./stimuli/frankfurt.jpg,./stimuli/street_plate1.png,PULÓVER UTCA,stimuli/objects/114a.jpg,object,0,stimuli/objects/114a.jpg,stimuli/scenes/050b.jpg,stimuli/scenes/050a.jpg,stimuli/objects/114b.jpg,stimuli/objects/114a.jpg,dist2,dist1,lure,target,0,0,0,0,0,0,0,43,,,,,,,,,79.57865290006157,79.57865290006157,82.52629629999865,83.55393289995845,83.55393289995845,83.55393289995845,83.55393289995845,None,,,,,,,,,,,,,,,,,,,,,,,,,,,,,,,,,,,,,,,,,student1,2022-10-25_13h10.18.953,Hippopolis_Learning,2022.2.4,59.97350369980095,
Hippopolis,stimuli/subj_files/student1_cityA.csv,./stimuli/frankfurt.jpg,./stimuli/street_plate1.png,HEGEDŰ UTCA,stimuli/scenes/113a.jpg,scene,2,stimuli/objects/036a.jpg,stimuli/objects/036b.jpg,stimuli/scenes/059b.jpg,stimuli/scenes/059a.jpg,stimuli/objects/036a.jpg,lure,dist2,dist1,target,0,0,0,0,0,1,1,69,,,,,,,,,,,86.51773459999822,87.5225542000262,87.5225542000262,87.5225542000262,87.5225542000262,None,87.5225542000262,,,,,,,,,,,,,,,,,,,,,,,,,,,,,,,,,,,,,,,,student1,2022-10-25_13h10.18.953,Hippopolis_Learning,2022.2.4,59.97350369980095,
Hippopolis,stimuli/subj_files/student1_cityA.csv,./stimuli/frankfurt.jpg,./stimuli/street_plate1.png,LIGET UTCA,stimuli/objects/038a.jpg,object,2,stimuli/scenes/109a.jpg,stimuli/scenes/109a.jpg,stimuli/objects/055a.jpg,stimuli/scenes/109b.jpg,stimuli/objects/055b.jpg,target,dist1,lure,dist2,0,0,0,0,0,2,2,62,,,,,,,,,,,90.53374380001333,91.54785510001238,91.54785510001238,91.54785510001238,91.54785510001238,None,91.54785510001238,,,,,,,,,,,,,,,,,,,,,,,,,,,,,,,,,,,,,,,,student1,2022-10-25_13h10.18.953,Hippopolis_Learning,2022.2.4,59.97350369980095,
Hippopolis,stimuli/subj_files/student1_cityA.csv,./stimuli/frankfurt.jpg,./stimuli/street_plate1.png,EGÉR UTCA,stimuli/scenes/071a.jpg,scene,1,stimuli/scenes/116a.jpg,stimuli/scenes/116b.jpg,stimuli/scenes/116a.jpg,stimuli/scenes/009b.jpg,stimuli/scenes/009a.jpg,lure,target,dist2,dist1,0,0,0,0,0,3,3,29,,,,,,,,,,,94.55098880000878,95.55267740006093,95.55267740006093,95.55267740006093,95.55267740006093,None,95.55267740006093,,,,,,,,,,,,,,,,,,,,,,,,,,,,,,,,,,,,,,,,student1,2022-10-25_13h10.18.953,Hippopolis_Learning,2022.2.4,59.97350369980095,
Hippopolis,stimuli/subj_files/student1_cityA.csv,./stimuli/frankfurt.jpg,./stimuli/street_plate1.png,KAKAS UTCA,stimuli/objects/002a.jpg,object,2,stimuli/scenes/074a.jpg,stimuli/scenes/074b.jpg,stimuli/scenes/074a.jpg,stimuli/scenes/070a.jpg,stimuli/scenes/070b.jpg,lure,target,dist1,dist2,0,0,0,0,0,4,4,24,,,,,,,,,,,98.56740780000109,99.57418770005461,99.57418770005461,99.57418770005461,99.57418770005461,None,99.57418770005461,,,,,,,,,,,,,,,,,,,,,,,,,,,,,,,,,,,,,,,,student1,2022-10-25_13h10.18.953,Hippopolis_Learning,2022.2.4,59.97350369980095,
Hippopolis,stimuli/subj_files/student1_cityA.csv,./stimuli/frankfurt.jpg,./stimuli/street_plate1.png,HORDÓ UTCA,stimuli/scenes/095a.jpg,scene,0,stimuli/scenes/095a.jpg,stimuli/scenes/095a.jpg,stimuli/scenes/046a.jpg,stimuli/scenes/095b.jpg,stimuli/scenes/046b.jpg,target,dist1,lure,dist2,0,0,0,0,0,5,5,27,,,,,,,,,,,102.58421500003897,103.58726810000371,103.58726810000371,103.58726810000371,103.58726810000371,None,103.58726810000371,,,,,,,,,,,,,,,,,,,,,,,,,,,,,,,,,,,,,,,,student1,2022-10-25_13h10.18.953,Hippopolis_Learning,2022.2.4,59.97350369980095,
Hippopolis,stimuli/subj_files/student1_cityA.csv,./stimuli/frankfurt.jpg,./stimuli/street_plate1.png,LAKAT UTCA,stimuli/objects/066a.jpg,object,2,stimuli/scenes/084a.jpg,stimuli/scenes/084b.jpg,stimuli/scenes/034a.jpg,stimuli/scenes/084a.jpg,stimuli/scenes/034b.jpg,lure,dist1,target,dist2,0,0,0,0,0,6,6,58,,,,,,,,,,,106.60076159995515,107.60109160002321,107.60109160002321,107.60109160002321,107.60109160002321,None,107.60109160002321,110.60049900005106,110.60049900005106,110.60049900005106,110.60049900005106,,,,,,,,,,,,,,,,,,,,,,,,,,,,,,,,,,,,student1,2022-10-25_13h10.18.953,Hippopolis_Learning,2022.2.4,59.97350369980095,
Hippopolis,stimuli/subj_files/student1_cityA.csv,./stimuli/frankfurt.jpg,./stimuli/street_plate1.png,CSILLAG UTCA,stimuli/scenes/083a.jpg,scene,1,stimuli/scenes/117a.jpg,stimuli/scenes/117a.jpg,stimuli/scenes/117b.jpg,stimuli/objects/041a.jpg,stimuli/objects/041b.jpg,target,lure,dist1,dist2,0,0,0,0,0,7,7,15,,,,,,,,,,,110.60049900005106,111.60117090004496,111.60117090004496,111.60117090004496,111.60117090004496,None,111.60117090004496,114.60039040003903,114.60039040003903,114.60039040003903,114.60039040003903,,,,,,,,,,,,,,,,,,,,,,,,,,,,,,,,,,,,student1,2022-10-25_13h10.18.953,Hippopolis_Learning,2022.2.4,59.97350369980095,
Hippopolis,stimuli/subj_files/student1_cityA.csv,./stimuli/frankfurt.jpg,./stimuli/street_plate1.png,KOCKA UTCA,stimuli/objects/062a.jpg,object,0,stimuli/objects/062a.jpg,stimuli/scenes/095b.jpg,stimuli/objects/062a.jpg,stimuli/objects/062b.jpg,stimuli/scenes/095a.jpg,dist2,target,lure,dist1,0,0,0,0,0,8,8,35,,,,,,,,,,,114.60039040003903,115.61504529998638,115.61504529998638,115.61504529998638,115.61504529998638,None,115.61504529998638,,,,,,,,,,,,,,,,,,,,,,,,,,,,,,,,,,,,,,,,student1,2022-10-25_13h10.18.953,Hippopolis_Learning,2022.2.4,59.97350369980095,
Hippopolis,stimuli/subj_files/student1_cityA.csv,./stimuli/frankfurt.jpg,./stimuli/street_plate1.png,NARANCS UTCA,stimuli/objects/017a.jpg,object,1,stimuli/objects/075a.jpg,stimuli/objects/075a.jpg,stimuli/scenes/041b.jpg,stimuli/scenes/041a.jpg,stimuli/objects/075b.jpg,target,dist2,dist1,lure,0,0,0,0,0,9,9,76,,,,,,,,,,,118.61722839996219,119.6204114999855,119.6204114999855,119.6204114999855,119.6204114999855,None,119.6204114999855,,,,,,,,,,,,,,,,,,,,,,,,,,,,,,,,,,,,,,,,student1,2022-10-25_13h10.18.953,Hippopolis_Learning,2022.2.4,59.97350369980095,
Hippopolis,stimuli/subj_files/student1_cityA.csv,./stimuli/frankfurt.jpg,./stimuli/street_plate1.png,KIRAKÓ UTCA,stimuli/objects/079a.jpg,object,2,stimuli/scenes/070a.jpg,stimuli/scenes/070a.jpg,stimuli/scenes/070b.jpg,stimuli/objects/043b.jpg,stimuli/objects/043a.jpg,target,lure,dist2,dist1,0,0,0,0,0,10,10,57,,,,,,,,,,,122.63354920002166,123.64002839999739,123.64002839999739,123.64002839999739,123.64002839999739,None,123.64002839999739,,,,,,,,,,,,,,,,,,,,,,,,,,,,,,,,,,,,,,,,student1,2022-10-25_13h10.18.953,Hippopolis_Learning,2022.2.4,59.97350369980095,
Hippopolis,stimuli/subj_files/student1_cityA.csv,./stimuli/frankfurt.jpg,./stimuli/street_plate1.png,KARTON UTCA,stimuli/objects/101a.jpg,object,2,stimuli/scenes/044a.jpg,stimuli/scenes/074a.jpg,stimuli/scenes/044b.jpg,stimuli/scenes/044a.jpg,stimuli/scenes/074b.jpg,dist1,lure,target,dist2,0,0,0,0,0,11,11,8,,,,,,,,,,,126.65074569999706,127.6608877000399,127.6608877000399,127.6608877000399,127.6608877000399,None,127.6608877000399,,,,,,,,,,,,,,,,,,,,,,,,,,,,,,,,,,,,,,,,student1,2022-10-25_13h10.18.953,Hippopolis_Learning,2022.2.4,59.97350369980095,
Hippopolis,stimuli/subj_files/student1_cityA.csv,./stimuli/frankfurt.jpg,./stimuli/street_plate1.png,SZOMSZÉD UTCA,stimuli/objects/026a.jpg,object,1,stimuli/objects/004a.jpg,stimuli/objects/027b.jpg,stimuli/objects/004b.jpg,stimuli/objects/004a.jpg,stimuli/objects/027a.jpg,dist2,lure,target,dist1,0,0,0,0,0,12,12,65,,,,,,,,,,,130.66736690001562,131.67005810001865,131.67005810001865,131.67005810001865,131.67005810001865,None,131.67005810001865,,,,,,,,,,,,,,,,,,,,,,,,,,,,,,,,,,,,,,,,student1,2022-10-25_13h10.18.953,Hippopolis_Learning,2022.2.4,59.97350369980095,
Hippopolis,stimuli/subj_files/student1_cityA.csv,./stimuli/frankfurt.jpg,./stimuli/street_plate1.png,MARTINI UTCA,stimuli/objects/060a.jpg,object,1,stimuli/objects/011a.jpg,stimuli/objects/075b.jpg,stimuli/objects/075a.jpg,stimuli/objects/011b.jpg,stimuli/objects/011a.jpg,dist2,dist1,lure,target,0,0,0,0,0,13,13,60,,,,,,,,,,,134.68370219995268,135.69738140003756,135.69738140003756,135.69738140003756,135.69738140003756,None,135.69738140003756,,,,,,,,,,,,,,,,,,,,,,,,,,,,,,,,,,,,,,,,student1,2022-10-25_13h10.18.953,Hippopolis_Learning,2022.2.4,59.97350369980095,
Hippopolis,stimuli/subj_files/student1_cityA.csv,./stimuli/frankfurt.jpg,./stimuli/street_plate1.png,PÁFRÁNY UTCA,stimuli/scenes/101a.jpg,scene,0,stimuli/scenes/101a.jpg,stimuli/scenes/101a.jpg,stimuli/scenes/101b.jpg,stimuli/objects/051a.jpg,stimuli/objects/051b.jpg,target,lure,dist1,dist2,0,0,0,0,0,14,14,0,,,,,,,,,,,138.70041160006076,139.7033928000601,139.7033928000601,139.7033928000601,139.7033928000601,None,139.7033928000601,,,,,,,,,,,,,,,,,,,,,,,,,,,,,,,,,,,,,,,,student1,2022-10-25_13h10.18.953,Hippopolis_Learning,2022.2.4,59.97350369980095,
Hippopolis,stimuli/subj_files/student1_cityA.csv,./stimuli/frankfurt.jpg,./stimuli/street_plate1.png,PIZSAMA UTCA,stimuli/scenes/060a.jpg,scene,2,stimuli/objects/006a.jpg,stimuli/scenes/007b.jpg,stimuli/scenes/007a.jpg,stimuli/objects/006b.jpg,stimuli/objects/006a.jpg,dist2,dist1,lure,target,0,0,0,0,0,15,15,79,,,,,,,,,,,142.7176746999612,143.71711870003492,143.71711870003492,143.71711870003492,143.71711870003492,None,143.71711870003492,146.71678460005205,146.71678460005205,146.71678460005205,146.71678460005205,,,,,,,,,,,,,,,,,,,,,,,,,,,,,,,,,,,,student1,2022-10-25_13h10.18.953,Hippopolis_Learning,2022.2.4,59.97350369980095,
Hippopolis,stimuli/subj_files/student1_cityA.csv,./stimuli/frankfurt.jpg,./stimuli/street_plate1.png,KULLANCS UTCA,stimuli/objects/089a.jpg,object,0,stimuli/objects/089a.jpg,stimuli/scenes/072a.jpg,stimuli/objects/089a.jpg,stimuli/scenes/072b.jpg,stimuli/objects/089b.jpg,dist1,target,dist2,lure,0,0,0,0,0,16,16,34,,,,,,,,,,,146.71678460005205,147.71822020004038,147.71822020004038,147.71822020004038,147.71822020004038,None,147.71822020004038,,,,,,,,,,,,,,,,,,,,,,,,,,,,,,,,,,,,,,,,student1,2022-10-25_13h10.18.953,Hippopolis_Learning,2022.2.4,59.97350369980095,
Hippopolis,stimuli/subj_files/student1_cityA.csv,./stimuli/frankfurt.jpg,./stimuli/street_plate1.png,HAJÓ UTCA,stimuli/objects/086a.jpg,object,1,stimuli/objects/041a.jpg,stimuli/scenes/014a.jpg,stimuli/scenes/014b.jpg,stimuli/objects/041a.jpg,stimuli/objects/041b.jpg,dist1,dist2,target,lure,0,0,0,0,0,17,17,71,,,,,,,,,,,150.73316000006162,151.75358560006134,151.75358560006134,151.75358560006134,151.75358560006134,None,151.75358560006134,,,,,,,,,,,,,,,,,,,,,,,,,,,,,,,,,,,,,,,,student1,2022-10-25_13h10.18.953,Hippopolis_Learning,2022.2.4,59.97350369980095,
Hippopolis,stimuli/subj_files/student1_cityA.csv,./stimuli/frankfurt.jpg,./stimuli/street_plate1.png,KÖMÉNYMAG UTCA,stimuli/objects/068a.jpg,object,1,stimuli/objects/045a.jpg,stimuli/objects/045a.jpg,stimuli/objects/045b.jpg,stimuli/objects/071a.jpg,stimuli/objects/071b.jpg,target,lure,dist1,dist2,0,0,0,0,0,18,18,18,,,,,,,,,,,154.75009059999138,155.75258089997806,155.75258089997806,155.75258089997806,155.75258089997806,None,155.75258089997806,,,,,,,,,,,,,,,,,,,,,,,,,,,,,,,,,,,,,,,,student1,2022-10-25_13h10.18.953,Hippopolis_Learning,2022.2.4,59.97350369980095,
Hippopolis,stimuli/subj_files/student1_cityA.csv,./stimuli/frankfurt.jpg,./stimuli/street_plate1.png,KERET UTCA,stimuli/scenes/027a.jpg,scene,0,stimuli/scenes/027a.jpg,stimuli/objects/100a.jpg,stimuli/objects/100b.jpg,stimuli/scenes/027a.jpg,stimuli/scenes/027b.jpg,dist1,dist2,target,lure,0,0,0,0,0,19,19,3,,,,,,,,,,,158.76654520002194,159.76708360004704,159.76708360004704,159.76708360004704,159.76708360004704,None,159.76708360004704,162.7662118000444,162.7662118000444,162.7662118000444,162.7662118000444,,,,,,,,,,,,,,,,,,,,,,,,,,,,,,,,,,,,student1,2022-10-25_13h10.18.953,Hippopolis_Learning,2022.2.4,59.97350369980095,
Hippopolis,stimuli/subj_files/student1_cityA.csv,./stimuli/frankfurt.jpg,./stimuli/street_plate1.png,LÉTRA UTCA,stimuli/objects/047a.jpg,object,1,stimuli/objects/015a.jpg,stimuli/objects/108b.jpg,stimuli/objects/015b.jpg,stimuli/objects/108a.jpg,stimuli/objects/015a.jpg,dist2,lure,dist1,target,0,0,0,0,0,20,20,33,,,,,,,,,,,162.7662118000444,163.7668674000306,163.7668674000306,163.7668674000306,163.7668674000306,None,163.7668674000306,166.76650380005594,166.76650380005594,166.76650380005594,166.76650380005594,,,,,,,,,,,,,,,,,,,,,,,,,,,,,,,,,,,,student1,2022-10-25_13h10.18.953,Hippopolis_Learning,2022.2.4,59.97350369980095,
Hippopolis,stimuli/subj_files/student1_cityA.csv,./stimuli/frankfurt.jpg,./stimuli/street_plate1.png,TOBOZ UTCA,stimuli/objects/001a.jpg,object,2,stimuli/scenes/059a.jpg,stimuli/scenes/059a.jpg,stimuli/objects/085a.jpg,stimuli/objects/085b.jpg,stimuli/scenes/059b.jpg,target,dist1,dist2,lure,0,0,0,0,0,21,21,40,,,,,,,,,,,166.76650380005594,167.76783540006727,167.76783540006727,167.76783540006727,167.76783540006727,None,167.76783540006727,,,,,,,,,,,,,,,,,,,,,,,,,,,,,,,,,,,,,,,,student1,2022-10-25_13h10.18.953,Hippopolis_Learning,2022.2.4,59.97350369980095,
Hippopolis,stimuli/subj_files/student1_cityA.csv,./stimuli/frankfurt.jpg,./stimuli/street_plate1.png,KÖTÉL UTCA,stimuli/objects/051a.jpg,object,0,stimuli/objects/051a.jpg,stimuli/scenes/024b.jpg,stimuli/objects/051b.jpg,stimuli/scenes/024a.jpg,stimuli/objects/051a.jpg,dist2,lure,dist1,target,0,0,0,0,0,22,22,7,,,,,,,,,,,170.78312919999007,171.790672800038,171.790672800038,171.790672800038,171.790672800038,None,171.790672800038,,,,,,,,,,,,,,,,,,,,,,,,,,,,,,,,,,,,,,,,student1,2022-10-25_13h10.18.953,Hippopolis_Learning,2022.2.4,59.97350369980095,
Hippopolis,stimuli/subj_files/student1_cityA.csv,./stimuli/frankfurt.jpg,./stimuli/street_plate1.png,ZSEMLE UTCA,stimuli/objects/115a.jpg,object,1,stimuli/objects/053a.jpg,stimuli/objects/007a.jpg,stimuli/objects/053a.jpg,stimuli/objects/007b.jpg,stimuli/objects/053b.jpg,dist1,target,dist2,lure,0,0,0,0,0,23,23,47,,,,,,,,,,,174.79948180005886,175.8015351999784,175.8015351999784,175.8015351999784,175.8015351999784,None,175.8015351999784,,,,,,,,,,,,,,,,,,,,,,,,,,,,,,,,,,,,,,,,student1,2022-10-25_13h10.18.953,Hippopolis_Learning,2022.2.4,59.97350369980095,
Hippopolis,stimuli/subj_files/student1_cityA.csv,./stimuli/frankfurt.jpg,./stimuli/street_plate1.png,OROSZLÁN UTCA,stimuli/scenes/072a.jpg,scene,0,stimuli/scenes/072a.jpg,stimuli/scenes/072a.jpg,stimuli/scenes/072b.jpg,stimuli/scenes/027b.jpg,stimuli/scenes/027a.jpg,target,lure,dist2,dist1,0,0,0,0,0,24,24,66,,,,,,,,,,,178.81622649997007,179.81697559996974,179.81697559996974,179.81697559996974,179.81697559996974,None,179.81697559996974,182.81605779996607,182.81605779996607,182.81605779996607,182.81605779996607,,,,,,,,,,,,,,,,,,,,,,,,,,,,,,,,,,,,student1,2022-10-25_13h10.18.953,Hippopolis_Learning,2022.2.4,59.97350369980095,
Hippopolis,stimuli/subj_files/student1_cityA.csv,./stimuli/frankfurt.jpg,./stimuli/street_plate1.png,HERNYÓ UTCA,stimuli/scenes/066a.jpg,scene,1,stimuli/scenes/037a.jpg,stimuli/scenes/037a.jpg,stimuli/objects/045b.jpg,stimuli/scenes/037b.jpg,stimuli/objects/045a.jpg,target,dist2,lure,dist1,0,0,0,0,0,25,25,5,,,,,,,,,,,182.81605779996607,183.81626720004715,183.81626720004715,183.81626720004715,183.81626720004715,None,183.81626720004715,186.81601119996049,186.81601119996049,186.81601119996049,186.81601119996049,,,,,,,,,,,,,,,,,,,,,,,,,,,,,,,,,,,,student1,2022-10-25_13h10.18.953,Hippopolis_Learning,2022.2.4,59.97350369980095,
Hippopolis,stimuli/subj_files/student1_cityA.csv,./stimuli/frankfurt.jpg,./stimuli/street_plate1.png,POGÁCSA UTCA,stimuli/scenes/046a.jpg,scene,0,stimuli/scenes/046a.jpg,stimuli/scenes/042a.jpg,stimuli/scenes/046a.jpg,stimuli/scenes/046b.jpg,stimuli/scenes/042b.jpg,dist1,target,lure,dist2,0,0,0,0,0,26,26,49,,,,,,,,,,,186.81601119996049,187.81641810003202,187.81641810003202,187.81641810003202,187.81641810003202,None,187.81641810003202,190.81608100002632,190.81608100002632,190.81608100002632,190.81608100002632,,,,,,,,,,,,,,,,,,,,,,,,,,,,,,,,,,,,student1,2022-10-25_13h10.18.953,Hippopolis_Learning,2022.2.4,59.97350369980095,
Hippopolis,stimuli/subj_files/student1_cityA.csv,./stimuli/frankfurt.jpg,./stimuli/street_plate1.png,HEGESZTŐ UTCA,stimuli/scenes/043a.jpg,scene,0,stimuli/scenes/043a.jpg,stimuli/scenes/043b.jpg,stimuli/scenes/043a.jpg,stimuli/objects/062a.jpg,stimuli/objects/062b.jpg,lure,target,dist1,dist2,0,0,0,0,0,27,27,77,,,,,,,,,,,190.81608100002632,191.8231919000391,191.8231919000391,191.8231919000391,191.8231919000391,None,191.8231919000391,,,,,,,,,,,,,,,,,,,,,,,,,,,,,,,,,,,,,,,,student1,2022-10-25_13h10.18.953,Hippopolis_Learning,2022.2.4,59.97350369980095,
Hippopolis,stimuli/subj_files/student1_cityA.csv,./stimuli/frankfurt.jpg,./stimuli/street_plate1.png,HARMONIKA UTCA,stimuli/scenes/024a.jpg,scene,0,stimuli/scenes/024a.jpg,stimuli/scenes/101b.jpg,stimuli/scenes/024b.jpg,stimuli/scenes/101a.jpg,stimuli/scenes/024a.jpg,dist2,lure,dist1,target,0,0,0,0,0,28,28,25,,,,,,,,,,,194.83258280006703,195.83388489997014,195.83388489997014,195.83388489997014,195.83388489997014,None,195.83388489997014,,,,,,,,,,,,,,,,,,,,,,,,,,,,,,,,,,,,,,,,student1,2022-10-25_13h10.18.953,Hippopolis_Learning,2022.2.4,59.97350369980095,
Hippopolis,stimuli/subj_files/student1_cityA.csv,./stimuli/frankfurt.jpg,./stimuli/street_plate1.png,CSAVAR UTCA,stimuli/objects/078a.jpg,object,0,stimuli/objects/078a.jpg,stimuli/objects/078b.jpg,stimuli/objects/024b.jpg,stimuli/objects/078a.jpg,stimuli/objects/024a.jpg,lure,dist2,target,dist1,0,0,0,0,0,29,29,10,,,,,,,,,,,198.84931229997892,199.85709790000692,199.85709790000692,199.85709790000692,199.85709790000692,None,199.85709790000692,,,,,,,,,,,,,,,,,,,,,,,,,,,,,,,,,,,,,,,,student1,2022-10-25_13h10.18.953,Hippopolis_Learning,2022.2.4,59.97350369980095,
Hippopolis,stimuli/subj_files/student1_cityA.csv,./stimuli/frankfurt.jpg,./stimuli/street_plate1.png,PETÁRDA UTCA,stimuli/objects/009a.jpg,object,0,stimuli/objects/009a.jpg,stimuli/objects/009a.jpg,stimuli/scenes/051a.jpg,stimuli/objects/009b.jpg,stimuli/scenes/051b.jpg,target,dist1,lure,dist2,0,0,0,0,0,30,30,64,,,,,,,,,,,202.86604870005976,203.87495520000812,203.87495520000812,203.87495520000812,203.87495520000812,None,203.87495520000812,,,,,,,,,,,,,,,,,,,,,,,,,,,,,,,,,,,,,,,,student1,2022-10-25_13h10.18.953,Hippopolis_Learning,2022.2.4,59.97350369980095,
Hippopolis,stimuli/subj_files/student1_cityA.csv,./stimuli/frankfurt.jpg,./stimuli/street_plate1.png,PAPAGÁJ UTCA,stimuli/objects/093a.jpg,object,2,stimuli/scenes/097a.jpg,stimuli/scenes/097a.jpg,stimuli/scenes/109b.jpg,stimuli/scenes/109a.jpg,stimuli/scenes/097b.jpg,target,dist2,dist1,lure,0,0,0,0,0,31,31,55,,,,,,,,,,,206.88245300005656,207.89487710001413,207.89487710001413,207.89487710001413,207.89487710001413,None,207.89487710001413,,,,,,,,,,,,,,,,,,,,,,,,,,,,,,,,,,,,,,,,student1,2022-10-25_13h10.18.953,Hippopolis_Learning,2022.2.4,59.97350369980095,
Hippopolis,stimuli/subj_files/student1_cityA.csv,./stimuli/frankfurt.jpg,./stimuli/street_plate1.png,MOTOR UTCA,stimuli/objects/097a.jpg,object,1,stimuli/objects/071a.jpg,stimuli/objects/015b.jpg,stimuli/objects/071b.jpg,stimuli/objects/071a.jpg,stimuli/objects/015a.jpg,dist2,lure,target,dist1,0,0,0,0,0,32,32,36,,,,,,,,,,,210.89923119999003,211.9110609999625,211.9110609999625,211.9110609999625,211.9110609999625,None,211.9110609999625,,,,,,,,,,,,,,,,,,,,,,,,,,,,,,,,,,,,,,,,student1,2022-10-25_13h10.18.953,Hippopolis_Learning,2022.2.4,59.97350369980095,
Hippopolis,stimuli/subj_files/student1_cityA.csv,./stimuli/frankfurt.jpg,./stimuli/street_plate1.png,OLDAL UTCA,stimuli/scenes/093a.jpg,scene,2,stimuli/objects/107a.jpg,stimuli/objects/107b.jpg,stimuli/objects/022a.jpg,stimuli/objects/107a.jpg,stimuli/objects/022b.jpg,lure,dist1,target,dist2,0,0,0,0,0,33,33,11,,,,,,,,,,,214.91525880002882,215.9163729000138,215.9163729000138,215.9163729000138,215.9163729000138,None,215.9163729000138,218.91579220001586,218.91579220001586,218.91579220001586,218.91579220001586,,,,,,,,,,,,,,,,,,,,,,,,,,,,,,,,,,,,student1,2022-10-25_13h10.18.953,Hippopolis_Learning,2022.2.4,59.97350369980095,
Hippopolis,stimuli/subj_files/student1_cityA.csv,./stimuli/frankfurt.jpg,./stimuli/street_plate1.png,TELEP UTCA,stimuli/scenes/048a.jpg,scene,2,stimuli/objects/120a.jpg,stimuli/objects/120a.jpg,stimuli/objects/120b.jpg,stimuli/scenes/119b.jpg,stimuli/scenes/119a.jpg,target,lure,dist2,dist1,0,0,0,0,0,34,34,75,,,,,,,,,,,218.91579220001586,219.91589629999362,219.91589629999362,219.91589629999362,219.91589629999362,None,219.91589629999362,222.91557209996972,222.91557209996972,222.91557209996972,222.91557209996972,,,,,,,,,,,,,,,,,,,,,,,,,,,,,,,,,,,,student1,2022-10-25_13h10.18.953,Hippopolis_Learning,2022.2.4,59.97350369980095,
Hippopolis,stimuli/subj_files/student1_cityA.csv,./stimuli/frankfurt.jpg,./stimuli/street_plate1.png,PÉKSÉG UTCA,stimuli/scenes/073a.jpg,scene,2,stimuli/objects/059a.jpg,stimuli/objects/059a.jpg,stimuli/objects/046b.jpg,stimuli/objects/059b.jpg,stimuli/objects/046a.jpg,target,dist2,lure,dist1,0,0,0,0,0,35,35,61,,,,,,,,,,,222.91557209996972,223.91575310006738,223.91575310006738,223.91575310006738,223.91575310006738,None,223.91575310006738,226.916076399968,226.916076399968,226.916076399968,226.916076399968,,,,,,,,,,,,,,,,,,,,,,,,,,,,,,,,,,,,student1,2022-10-25_13h10.18.953,Hippopolis_Learning,2022.2.4,59.97350369980095,
Hippopolis,stimuli/subj_files/student1_cityA.csv,./stimuli/frankfurt.jpg,./stimuli/street_plate1.png,BAGOLY UTCA,stimuli/scenes/029a.jpg,scene,2,stimuli/objects/028a.jpg,stimuli/objects/028b.jpg,stimuli/objects/028a.jpg,stimuli/scenes/028a.jpg,stimuli/scenes/028b.jpg,lure,target,dist1,dist2,0,0,0,0,0,36,36,21,,,,,,,,,,,226.916076399968,227.91622020001523,227.91622020001523,227.91622020001523,227.91622020001523,None,227.91622020001523,230.91531129996292,230.91531129996292,230.91531129996292,230.91531129996292,,,,,,,,,,,,,,,,,,,,,,,,,,,,,,,,,,,,student1,2022-10-25_13h10.18.953,Hippopolis_Learning,2022.2.4,59.97350369980095,
Hippopolis,stimuli/subj_files/student1_cityA.csv,./stimuli/frankfurt.jpg,./stimuli/street_plate1.png,TALICSKA UTCA,stimuli/objects/014a.jpg,object,1,stimuli/objects/108a.jpg,stimuli/objects/109a.jpg,stimuli/objects/109b.jpg,stimuli/objects/108a.jpg,stimuli/objects/108b.jpg,dist1,dist2,target,lure,0,0,0,0,0,37,37,13,,,,,,,,,,,230.91531129996292,231.92594430001918,231.92594430001918,231.92594430001918,231.92594430001918,None,231.92594430001918,,,,,,,,,,,,,,,,,,,,,,,,,,,,,,,,,,,,,,,,student1,2022-10-25_13h10.18.953,Hippopolis_Learning,2022.2.4,59.97350369980095,
Hippopolis,stimuli/subj_files/student1_cityA.csv,./stimuli/frankfurt.jpg,./stimuli/street_plate1.png,ÜVEG UTCA,stimuli/scenes/061a.jpg,scene,2,stimuli/objects/085a.jpg,stimuli/objects/085b.jpg,stimuli/scenes/084a.jpg,stimuli/objects/085a.jpg,stimuli/scenes/084b.jpg,lure,dist1,target,dist2,0,0,0,0,0,38,38,19,,,,,,,,,,,234.93209090002347,235.941707400023,235.941707400023,235.941707400023,235.941707400023,None,235.941707400023,,,,,,,,,,,,,,,,,,,,,,,,,,,,,,,,,,,,,,,,student1,2022-10-25_13h10.18.953,Hippopolis_Learning,2022.2.4,59.97350369980095,
Hippopolis,stimuli/subj_files/student1_cityA.csv,./stimuli/frankfurt.jpg,./stimuli/street_plate1.png,ÁLOM UTCA,stimuli/objects/070a.jpg,object,0,stimuli/objects/070a.jpg,stimuli/objects/070b.jpg,stimuli/objects/114b.jpg,stimuli/objects/114a.jpg,stimuli/objects/070a.jpg,lure,dist2,dist1,target,0,0,0,0,0,39,39,50,,,,,,,,,,,238.94809389999136,239.94862020004075,239.94862020004075,239.94862020004075,239.94862020004075,None,239.94862020004075,242.948049300001,242.948049300001,242.948049300001,242.948049300001,,,,,,,,,,,,,,,,,,,,,,,,,,,,,,,,,,,,student1,2022-10-25_13h10.18.953,Hippopolis_Learning,2022.2.4,59.97350369980095,
Hippopolis,stimuli/subj_files/student1_cityA.csv,./stimuli/frankfurt.jpg,./stimuli/street_plate1.png,TERASZ UTCA,stimuli/objects/063a.jpg,object,2,stimuli/scenes/104a.jpg,stimuli/scenes/104a.jpg,stimuli/scenes/056a.jpg,stimuli/scenes/104b.jpg,stimuli/scenes/056b.jpg,target,dist1,lure,dist2,0,0,0,0,0,40,40,48,,,,,,,,,,,242.948049300001,243.9541100000497,243.9541100000497,243.9541100000497,243.9541100000497,None,243.9541100000497,,,,,,,,,,,,,,,,,,,,,,,,,,,,,,,,,,,,,,,,student1,2022-10-25_13h10.18.953,Hippopolis_Learning,2022.2.4,59.97350369980095,
Hippopolis,stimuli/subj_files/student1_cityA.csv,./stimuli/frankfurt.jpg,./stimuli/street_plate1.png,MOCSÁR UTCA,stimuli/objects/080a.jpg,object,0,stimuli/objects/080a.jpg,stimuli/objects/080b.jpg,stimuli/objects/080a.jpg,stimuli/scenes/043b.jpg,stimuli/scenes/043a.jpg,lure,target,dist2,dist1,0,0,0,0,0,41,41,17,,,,,,,,,,,246.96494470001198,247.9694373999955,247.9694373999955,247.9694373999955,247.9694373999955,None,247.9694373999955,,,,,,,,,,,,,,,,,,,,,,,,,,,,,,,,,,,,,,,,student1,2022-10-25_13h10.18.953,Hippopolis_Learning,2022.2.4,59.97350369980095,
Hippopolis,stimuli/subj_files/student1_cityA.csv,./stimuli/frankfurt.jpg,./stimuli/street_plate1.png,KÖTÉNY UTCA,stimuli/scenes/031a.jpg,scene,1,stimuli/scenes/064a.jpg,stimuli/objects/103a.jpg,stimuli/objects/103b.jpg,stimuli/scenes/064b.jpg,stimuli/scenes/064a.jpg,dist1,dist2,lure,target,0,0,0,0,0,42,42,22,,,,,,,,,,,250.98158090002835,251.9823502000654,251.9823502000654,251.9823502000654,251.9823502000654,None,251.9823502000654,254.98142610001378,254.98142610001378,254.98142610001378,254.98142610001378,,,,,,,,,,,,,,,,,,,,,,,,,,,,,,,,,,,,student1,2022-10-25_13h10.18.953,Hippopolis_Learning,2022.2.4,59.97350369980095,
Hippopolis,stimuli/subj_files/student1_cityA.csv,./stimuli/frankfurt.jpg,./stimuli/street_plate1.png,PÁLMAFA UTCA,stimuli/objects/090a.jpg,object,1,stimuli/objects/007a.jpg,stimuli/objects/053a.jpg,stimuli/objects/007a.jpg,stimuli/objects/053b.jpg,stimuli/objects/007b.jpg,dist1,target,dist2,lure,0,0,0,0,0,43,43,12,,,,,,,,,,,254.98142610001378,255.9819729999872,255.9819729999872,255.9819729999872,255.9819729999872,None,255.9819729999872,258.98175499995705,258.98175499995705,258.98175499995705,258.98175499995705,,,,,,,,,,,,,,,,,,,,,,,,,,,,,,,,,,,,student1,2022-10-25_13h10.18.953,Hippopolis_Learning,2022.2.4,59.97350369980095,
Hippopolis,stimuli/subj_files/student1_cityA.csv,./stimuli/frankfurt.jpg,./stimuli/street_plate1.png,VASALÓ UTCA,stimuli/objects/025a.jpg,object,2,stimuli/scenes/056a.jpg,stimuli/scenes/044a.jpg,stimuli/scenes/056b.jpg,stimuli/scenes/056a.jpg,stimuli/scenes/044b.jpg,dist1,lure,target,dist2,0,0,0,0,0,44,44,70,,,,,,,,,,,258.98175499995705,259.99408440000843,259.99408440000843,259.99408440000843,259.99408440000843,space,259.99408440000843,,,,,262.9980741000036,262.9980741000036,20.15398780000396,,,,,,,,,,,,,,,,,,,,,,,,,,,,,,,,,student1,2022-10-25_13h10.18.953,Hippopolis_Learning,2022.2.4,59.97350369980095,
Hippopolis,stimuli/subj_files/student1_cityA.csv,./stimuli/frankfurt.jpg,./stimuli/street_plate1.png,BONBON UTCA,stimuli/objects/095a.jpg,object,2,stimuli/scenes/007a.jpg,stimuli/objects/028b.jpg,stimuli/objects/028a.jpg,stimuli/scenes/007a.jpg,stimuli/scenes/007b.jpg,dist2,dist1,target,lure,0,0,0,0,0,45,45,72,,,,,,,,,,,283.18157759995665,284.2014691999648,284.2014691999648,284.2014691999648,284.2014691999648,None,284.2014691999648,,,,,,,,,,,,,,,,,,,,,,,,,,,,,,,,,,,,,,,,student1,2022-10-25_13h10.18.953,Hippopolis_Learning,2022.2.4,59.97350369980095,
Hippopolis,stimuli/subj_files/student1_cityA.csv,./stimuli/frankfurt.jpg,./stimuli/street_plate1.png,KÖNYVTÁR UTCA,stimuli/objects/113a.jpg,object,1,stimuli/objects/109a.jpg,stimuli/objects/109a.jpg,stimuli/objects/109b.jpg,stimuli/scenes/067a.jpg,stimuli/scenes/067b.jpg,target,lure,dist1,dist2,0,0,0,0,0,46,46,42,,,,,,,,,,,287.197372399969,288.2113398000365,288.2113398000365,288.2113398000365,288.2113398000365,None,288.2113398000365,,,,,,,,,,,,,,,,,,,,,,,,,,,,,,,,,,,,,,,,student1,2022-10-25_13h10.18.953,Hippopolis_Learning,2022.2.4,59.97350369980095,
Hippopolis,stimuli/subj_files/student1_cityA.csv,./stimuli/frankfurt.jpg,./stimuli/street_plate1.png,BÖGRE UTCA,stimuli/objects/050a.jpg,object,1,stimuli/objects/076a.jpg,stimuli/scenes/037a.jpg,stimuli/objects/076a.jpg,stimuli/objects/076b.jpg,stimuli/scenes/037b.jpg,dist1,target,lure,dist2,0,0,0,0,0,47,47,41,,,,,,,,,,,291.2147538999561,292.2207704000175,292.2207704000175,292.2207704000175,292.2207704000175,None,292.2207704000175,,,,,,,,,,,,,,,,,,,,,,,,,,,,,,,,,,,,,,,,student1,2022-10-25_13h10.18.953,Hippopolis_Learning,2022.2.4,59.97350369980095,
Hippopolis,stimuli/subj_files/student1_cityA.csv,./stimuli/frankfurt.jpg,./stimuli/street_plate1.png,CUKOR UTCA,stimuli/objects/111a.jpg,object,0,stimuli/objects/111a.jpg,stimuli/objects/089b.jpg,stimuli/objects/111b.jpg,stimuli/objects/111a.jpg,stimuli/objects/089a.jpg,dist2,lure,target,dist1,0,0,0,0,0,48,48,30,,,,,,,,,,,295.21419920003973,296.2212205999531,296.2212205999531,296.2212205999531,296.2212205999531,None,296.2212205999531,,,,,,,,,,,,,,,,,,,,,,,,,,,,,,,,,,,,,,,,student1,2022-10-25_13h10.18.953,Hippopolis_Learning,2022.2.4,59.97350369980095,
Hippopolis,stimuli/subj_files/student1_cityA.csv,./stimuli/frankfurt.jpg,./stimuli/street_plate1.png,BOLYGÓ UTCA,stimuli/scenes/118a.jpg,scene,1,stimuli/scenes/087a.jpg,stimuli/objects/011a.jpg,stimuli/scenes/087b.jpg,stimuli/objects/011b.jpg,stimuli/scenes/087a.jpg,dist1,lure,dist2,target,0,0,0,0,0,49,49,31,,,,,,,,,,,299.2309913999634,300.24659840005916,300.24659840005916,300.24659840005916,300.24659840005916,None,300.24659840005916,,,,,,,,,,,,,,,,,,,,,,,,,,,,,,,,,,,,,,,,student1,2022-10-25_13h10.18.953,Hippopolis_Learning,2022.2.4,59.97350369980095,
Hippopolis,stimuli/subj_files/student1_cityA.csv,./stimuli/frankfurt.jpg,./stimuli/street_plate1.png,HÁRFA UTCA,stimuli/objects/083a.jpg,object,2,stimuli/scenes/028a.jpg,stimuli/scenes/028b.jpg,stimuli/objects/012b.jpg,stimuli/objects/012a.jpg,stimuli/scenes/028a.jpg,lure,dist2,dist1,target,0,0,0,0,0,50,50,16,,,,,,,,,,,303.2474937000079,304.2646154999966,304.2646154999966,304.2646154999966,304.2646154999966,None,304.2646154999966,,,,,,,,,,,,,,,,,,,,,,,,,,,,,,,,,,,,,,,,student1,2022-10-25_13h10.18.953,Hippopolis_Learning,2022.2.4,59.97350369980095,
Hippopolis,stimuli/subj_files/student1_cityA.csv,./stimuli/frankfurt.jpg,./stimuli/street_plate1.png,AJÁNDÉK UTCA,stimuli/scenes/005a.jpg,scene,1,stimuli/scenes/009a.jpg,stimuli/scenes/078b.jpg,stimuli/scenes/078a.jpg,stimuli/scenes/009a.jpg,stimuli/scenes/009b.jpg,dist2,dist1,target,lure,0,0,0,0,0,51,51,28,,,,,,,,,,,307.2642301999731,308.26967680000234,308.26967680000234,308.26967680000234,308.26967680000234,None,308.26967680000234,,,,,,,,,,,,,,,,,,,,,,,,,,,,,,,,,,,,,,,,student1,2022-10-25_13h10.18.953,Hippopolis_Learning,2022.2.4,59.97350369980095,
Hippopolis,stimuli/subj_files/student1_cityA.csv,./stimuli/frankfurt.jpg,./stimuli/street_plate1.png,KECSKE UTCA,stimuli/scenes/085a.jpg,scene,2,stimuli/objects/022a.jpg,stimuli/objects/022b.jpg,stimuli/objects/022a.jpg,stimuli/scenes/053a.jpg,stimuli/scenes/053b.jpg,lure,target,dist1,dist2,0,0,0,0,0,52,52,6,,,,,,,,,,,311.2808133000508,312.2837323000422,312.2837323000422,312.2837323000422,312.2837323000422,None,312.2837323000422,,,,,,,,,,,,,,,,,,,,,,,,,,,,,,,,,,,,,,,,student1,2022-10-25_13h10.18.953,Hippopolis_Learning,2022.2.4,59.97350369980095,
Hippopolis,stimuli/subj_files/student1_cityA.csv,./stimuli/frankfurt.jpg,./stimuli/street_plate1.png,SZIKLA UTCA,stimuli/scenes/111a.jpg,scene,2,stimuli/objects/073a.jpg,stimuli/objects/120b.jpg,stimuli/objects/120a.jpg,stimuli/objects/073a.jpg,stimuli/objects/073b.jpg,dist2,dist1,target,lure,0,0,0,0,0,53,53,1,,,,,,,,,,,315.29739700001664,316.31369730003644,316.31369730003644,316.31369730003644,316.31369730003644,None,316.31369730003644,,,,,,,,,,,,,,,,,,,,,,,,,,,,,,,,,,,,,,,,student1,2022-10-25_13h10.18.953,Hippopolis_Learning,2022.2.4,59.97350369980095,
Hippopolis,stimuli/subj_files/student1_cityA.csv,./stimuli/frankfurt.jpg,./stimuli/street_plate1.png,PAPUCS UTCA,stimuli/scenes/051a.jpg,scene,0,stimuli/scenes/051a.jpg,stimuli/scenes/051b.jpg,stimuli/scenes/051a.jpg,stimuli/scenes/090a.jpg,stimuli/scenes/090b.jpg,lure,target,dist1,dist2,0,0,0,0,0,54,54,68,,,,,,,,,,,319.296987800044,320.3062103999546,320.3062103999546,320.3062103999546,320.3062103999546,None,320.3062103999546,,,,,,,,,,,,,,,,,,,,,,,,,,,,,,,,,,,,,,,,student1,2022-10-25_13h10.18.953,Hippopolis_Learning,2022.2.4,59.97350369980095,
Hippopolis,stimuli/subj_files/student1_cityA.csv,./stimuli/frankfurt.jpg,./stimuli/street_plate1.png,SIVATAG UTCA,stimuli/scenes/016a.jpg,scene,2,stimuli/objects/046a.jpg,stimuli/objects/046b.jpg,stimuli/objects/006a.jpg,stimuli/objects/006b.jpg,stimuli/objects/046a.jpg,lure,dist1,dist2,target,0,0,0,0,0,55,55,23,,,,,,,,,,,323.3137685999973,324.3140638000332,324.3140638000332,324.3140638000332,324.3140638000332,None,324.3140638000332,,,,,,,,,,,,,,,,,,,,,,,,,,,,,,,,,,,,,,,,student1,2022-10-25_13h10.18.953,Hippopolis_Learning,2022.2.4,59.97350369980095,
Hippopolis,stimuli/subj_files/student1_cityA.csv,./stimuli/frankfurt.jpg,./stimuli/street_plate1.png,MUNKA UTCA,stimuli/scenes/039a.jpg,scene,2,stimuli/objects/067a.jpg,stimuli/scenes/097a.jpg,stimuli/objects/067b.jpg,stimuli/objects/067a.jpg,stimuli/scenes/097b.jpg,dist1,lure,target,dist2,0,0,0,0,0,56,56,4,,,,,,,,,,,327.31341369997244,328.3179120999994,328.3179120999994,328.3179120999994,328.3179120999994,None,328.3179120999994,,,,,,,,,,,,,,,,,,,,,,,,,,,,,,,,,,,,,,,,student1,2022-10-25_13h10.18.953,Hippopolis_Learning,2022.2.4,59.97350369980095,
Hippopolis,stimuli/subj_files/student1_cityA.csv,./stimuli/frankfurt.jpg,./stimuli/street_plate1.png,MÁLNA UTCA,stimuli/objects/069a.jpg,object,2,stimuli/scenes/053a.jpg,stimuli/objects/073a.jpg,stimuli/objects/073b.jpg,stimuli/scenes/053b.jpg,stimuli/scenes/053a.jpg,dist1,dist2,lure,target,0,0,0,0,0,57,57,14,,,,,,,,,,,331.3300890000537,332.34552450000774,332.34552450000774,332.34552450000774,332.34552450000774,None,332.34552450000774,,,,,,,,,,,,,,,,,,,,,,,,,,,,,,,,,,,,,,,,student1,2022-10-25_13h10.18.953,Hippopolis_Learning,2022.2.4,59.97350369980095,
Hippopolis,stimuli/subj_files/student1_cityA.csv,./stimuli/frankfurt.jpg,./stimuli/street_plate1.png,TRIATLON UTCA,stimuli/objects/024a.jpg,object,0,stimuli/objects/024a.jpg,stimuli/objects/024b.jpg,stimuli/objects/080a.jpg,stimuli/objects/024a.jpg,stimuli/objects/080b.jpg,lure,dist1,target,dist2,0,0,0,0,0,58,58,2,,,,,,,,,,,335.33057610003743,336.34253979998175,336.34253979998175,336.34253979998175,336.34253979998175,None,336.34253979998175,,,,,,,,,,,,,,,,,,,,,,,,,,,,,,,,,,,,,,,,student1,2022-10-25_13h10.18.953,Hippopolis_Learning,2022.2.4,59.97350369980095,
Hippopolis,stimuli/subj_files/student1_cityA.csv,./stimuli/frankfurt.jpg,./stimuli/street_plate1.png,RÓZSA UTCA,stimuli/objects/091a.jpg,object,0,stimuli/objects/091a.jpg,stimuli/objects/091b.jpg,stimuli/objects/078b.jpg,stimuli/objects/078a.jpg,stimuli/objects/091a.jpg,lure,dist2,dist1,target,0,0,0,0,0,59,59,45,,,,,,,,,,,339.347019799985,340.3496826000046,340.3496826000046,340.3496826000046,340.3496826000046,None,340.3496826000046,,,,,,,,,,,,,,,,,,,,,,,,,,,,,,,,,,,,,,,,student1,2022-10-25_13h10.18.953,Hippopolis_Learning,2022.2.4,59.97350369980095,
Hippopolis,stimuli/subj_files/student1_cityA.csv,./stimuli/frankfurt.jpg,./stimuli/street_plate1.png,FIÓK UTCA,stimuli/scenes/002a.jpg,scene,1,stimuli/scenes/014a.jpg,stimuli/scenes/014a.jpg,stimuli/objects/004a.jpg,stimuli/objects/004b.jpg,stimuli/scenes/014b.jpg,target,dist1,dist2,lure,0,0,0,0,0,60,60,73,,,,,,,,,,,343.36381100001745,344.36883829999715,344.36883829999715,344.36883829999715,344.36883829999715,None,344.36883829999715,,,,,,,,,,,,,,,,,,,,,,,,,,,,,,,,,,,,,,,,student1,2022-10-25_13h10.18.953,Hippopolis_Learning,2022.2.4,59.97350369980095,
Hippopolis,stimuli/subj_files/student1_cityA.csv,./stimuli/frankfurt.jpg,./stimuli/street_plate1.png,FOGAS UTCA,stimuli/scenes/025a.jpg,scene,1,stimuli/scenes/018a.jpg,stimuli/scenes/018b.jpg,stimuli/scenes/064a.jpg,stimuli/scenes/018a.jpg,stimuli/scenes/064b.jpg,lure,dist1,target,dist2,0,0,0,0,0,61,61,38,,,,,,,,,,,347.38009130000137,348.38318360003177,348.38318360003177,348.38318360003177,348.38318360003177,None,348.38318360003177,,,,,,,,,,,,,,,,,,,,,,,,,,,,,,,,,,,,,,,,student1,2022-10-25_13h10.18.953,Hippopolis_Learning,2022.2.4,59.97350369980095,
Hippopolis,stimuli/subj_files/student1_cityA.csv,./stimuli/frankfurt.jpg,./stimuli/street_plate1.png,KORONA UTCA,stimuli/scenes/108a.jpg,scene,1,stimuli/scenes/011a.jpg,stimuli/objects/076a.jpg,stimuli/scenes/011b.jpg,stimuli/objects/076b.jpg,stimuli/scenes/011a.jpg,dist1,lure,dist2,target,0,0,0,0,0,62,62,9,,,,,,,,,,,351.3967818999663,352.40185570006724,352.40185570006724,352.40185570006724,352.40185570006724,None,352.40185570006724,,,,,,,,,,,,,,,,,,,,,,,,,,,,,,,,,,,,,,,,student1,2022-10-25_13h10.18.953,Hippopolis_Learning,2022.2.4,59.97350369980095,
Hippopolis,stimuli/subj_files/student1_cityA.csv,./stimuli/frankfurt.jpg,./stimuli/street_plate1.png,FÓKA UTCA,stimuli/scenes/058a.jpg,scene,0,stimuli/scenes/058a.jpg,stimuli/scenes/058a.jpg,stimuli/scenes/058b.jpg,stimuli/objects/111b.jpg,stimuli/objects/111a.jpg,target,lure,dist2,dist1,0,0,0,0,0,63,63,51,,,,,,,,,,,355.41326439997647,356.41701259999536,356.41701259999536,356.41701259999536,356.41701259999536,None,356.41701259999536,,,,,,,,,,,,,,,,,,,,,,,,,,,,,,,,,,,,,,,,student1,2022-10-25_13h10.18.953,Hippopolis_Learning,2022.2.4,59.97350369980095,
Hippopolis,stimuli/subj_files/student1_cityA.csv,./stimuli/frankfurt.jpg,./stimuli/street_plate1.png,TOJÁS UTCA,stimuli/objects/021a.jpg,object,2,stimuli/scenes/034a.jpg,stimuli/scenes/034a.jpg,stimuli/objects/059a.jpg,stimuli/objects/059b.jpg,stimuli/scenes/034b.jpg,target,dist1,dist2,lure,0,0,0,0,0,64,64,37,,,,,,,,,,,359.42994709999766,360.44995519996155,360.44995519996155,360.44995519996155,360.44995519996155,None,360.44995519996155,,,,,,,,,,,,,,,,,,,,,,,,,,,,,,,,,,,,,,,,student1,2022-10-25_13h10.18.953,Hippopolis_Learning,2022.2.4,59.97350369980095,
Hippopolis,stimuli/subj_files/student1_cityA.csv,./stimuli/frankfurt.jpg,./stimuli/street_plate1.png,CITROM UTCA,stimuli/scenes/036a.jpg,scene,2,stimuli/objects/043a.jpg,stimuli/objects/043b.jpg,stimuli/objects/067a.jpg,stimuli/objects/043a.jpg,stimuli/objects/067b.jpg,lure,dist1,target,dist2,0,0,0,0,0,65,65,26,,,,,,,,,,,363.4467134999577,364.44973890006077,364.44973890006077,364.44973890006077,364.44973890006077,None,364.44973890006077,,,,,,,,,,,,,,,,,,,,,,,,,,,,,,,,,,,,,,,,student1,2022-10-25_13h10.18.953,Hippopolis_Learning,2022.2.4,59.97350369980095,
Hippopolis,stimuli/subj_files/student1_cityA.csv,./stimuli/frankfurt.jpg,./stimuli/street_plate1.png,LÁNDZSA UTCA,stimuli/scenes/090a.jpg,scene,0,stimuli/scenes/090a.jpg,stimuli/scenes/090a.jpg,stimuli/objects/091b.jpg,stimuli/scenes/090b.jpg,stimuli/objects/091a.jpg,target,dist2,lure,dist1,0,0,0,0,0,66,66,39,,,,,,,,,,,367.46337410004344,368.4675051000668,368.4675051000668,368.4675051000668,368.4675051000668,None,368.4675051000668,,,,,,,,,,,,,,,,,,,,,,,,,,,,,,,,,,,,,,,,student1,2022-10-25_13h10.18.953,Hippopolis_Learning,2022.2.4,59.97350369980095,
Hippopolis,stimuli/subj_files/student1_cityA.csv,./stimuli/frankfurt.jpg,./stimuli/street_plate1.png,KOKTÉL UTCA,stimuli/scenes/008a.jpg,scene,2,stimuli/objects/012a.jpg,stimuli/objects/036b.jpg,stimuli/objects/012b.jpg,stimuli/objects/036a.jpg,stimuli/objects/012a.jpg,dist2,lure,dist1,target,0,0,0,0,0,67,67,46,,,,,,,,,,,371.47965800005477,372.48516939999536,372.48516939999536,372.48516939999536,372.48516939999536,None,372.48516939999536,,,,,,,,,,,,,,,,,,,,,,,,,,,,,,,,,,,,,,,,student1,2022-10-25_13h10.18.953,Hippopolis_Learning,2022.2.4,59.97350369980095,
Hippopolis,stimuli/subj_files/student1_cityA.csv,./stimuli/frankfurt.jpg,./stimuli/street_plate1.png,KERÉK UTCA,stimuli/scenes/096a.jpg,scene,1,stimuli/scenes/041a.jpg,stimuli/scenes/117a.jpg,stimuli/scenes/041b.jpg,stimuli/scenes/041a.jpg,stimuli/scenes/117b.jpg,dist1,lure,target,dist2,0,0,0,0,0,68,68,20,,,,,,,,,,,375.4962397000054,376.5088199999882,376.5088199999882,376.5088199999882,376.5088199999882,None,376.5088199999882,,,,,,,,,,,,,,,,,,,,,,,,,,,,,,,,,,,,,,,,student1,2022-10-25_13h10.18.953,Hippopolis_Learning,2022.2.4,59.97350369980095,
Hippopolis,stimuli/subj_files/student1_cityA.csv,./stimuli/frankfurt.jpg,./stimuli/street_plate1.png,AKÁC UTCA,stimuli/scenes/081a.jpg,scene,2,stimuli/objects/055a.jpg,stimuli/objects/055b.jpg,stimuli/objects/107b.jpg,stimuli/objects/107a.jpg,stimuli/objects/055a.jpg,lure,dist2,dist1,target,0,0,0,0,0,69,69,74,,,,,,,,,,,379.5134717000183,380.52482649998274,380.52482649998274,380.52482649998274,380.52482649998274,None,380.52482649998274,,,,,,,,,,,,,,,,,,,,,,,,,,,,,,,,,,,,,,,,student1,2022-10-25_13h10.18.953,Hippopolis_Learning,2022.2.4,59.97350369980095,
Hippopolis,stimuli/subj_files/student1_cityA.csv,./stimuli/frankfurt.jpg,./stimuli/street_plate1.png,FÉNYKÉP UTCA,stimuli/scenes/010a.jpg,scene,1,stimuli/scenes/078a.jpg,stimuli/scenes/088a.jpg,stimuli/scenes/078a.jpg,stimuli/scenes/088b.jpg,stimuli/scenes/078b.jpg,dist1,target,dist2,lure,0,0,0,0,0,70,70,32,,,,,,,,,,,383.5298981999513,384.5318365000421,384.5318365000421,384.5318365000421,384.5318365000421,None,384.5318365000421,,,,,,,,,,,,,,,,,,,,,,,,,,,,,,,,,,,,,,,,student1,2022-10-25_13h10.18.953,Hippopolis_Learning,2022.2.4,59.97350369980095,
Hippopolis,stimuli/subj_files/student1_cityA.csv,./stimuli/frankfurt.jpg,./stimuli/street_plate1.png,DOMINÓ UTCA,stimuli/scenes/042a.jpg,scene,0,stimuli/scenes/042a.jpg,stimuli/scenes/042a.jpg,stimuli/scenes/042b.jpg,stimuli/objects/070a.jpg,stimuli/objects/070b.jpg,target,lure,dist1,dist2,0,0,0,0,0,71,71,63,,,,,,,,,,,387.54591240000445,388.551365399966,388.551365399966,388.551365399966,388.551365399966,None,388.551365399966,,,,,,,,,,,,,,,,,,,,,,,,,,,,,,,,,,,,,,,,student1,2022-10-25_13h10.18.953,Hippopolis_Learning,2022.2.4,59.97350369980095,
Hippopolis,stimuli/subj_files/student1_cityA.csv,./stimuli/frankfurt.jpg,./stimuli/street_plate1.png,PADLÓ UTCA,stimuli/objects/100a.jpg,object,0,stimuli/objects/100a.jpg,stimuli/scenes/058a.jpg,stimuli/scenes/058b.jpg,stimuli/objects/100a.jpg,stimuli/objects/100b.jpg,dist1,dist2,target,lure,0,0,0,0,0,72,72,59,,,,,,,,,,,391.5628482999746,392.581230700016,392.581230700016,392.581230700016,392.581230700016,None,392.581230700016,,,,,,,,,,,,,,,,,,,,,,,,,,,,,,,,,,,,,,,,student1,2022-10-25_13h10.18.953,Hippopolis_Learning,2022.2.4,59.97350369980095,
Hippopolis,stimuli/subj_files/student1_cityA.csv,./stimuli/frankfurt.jpg,./stimuli/street_plate1.png,MOGYORÓ UTCA,stimuli/objects/106a.jpg,object,1,stimuli/objects/103a.jpg,stimuli/scenes/116a.jpg,stimuli/objects/103b.jpg,stimuli/objects/103a.jpg,stimuli/scenes/116b.jpg,dist1,lure,target,dist2,0,0,0,0,0,73,73,54,,,,,,,,,,,395.5792756000301,396.59287409996614,396.59287409996614,396.59287409996614,396.59287409996614,None,396.59287409996614,,,,,,,,,,,,,,,,,,,,,,,,,,,,,,,,,,,,,,,,student1,2022-10-25_13h10.18.953,Hippopolis_Learning,2022.2.4,59.97350369980095,
Hippopolis,stimuli/subj_files/student1_cityA.csv,./stimuli/frankfurt.jpg,./stimuli/street_plate1.png,MUSTÁR UTCA,stimuli/scenes/050a.jpg,scene,0,stimuli/scenes/050a.jpg,stimuli/objects/009a.jpg,stimuli/objects/009b.jpg,stimuli/scenes/050a.jpg,stimuli/scenes/050b.jpg,dist1,dist2,target,lure,0,0,0,0,0,74,74,78,,,,,,,,,,,399.59597959998064,400.6024086000398,400.6024086000398,400.6024086000398,400.6024086000398,None,400.6024086000398,,,,,,,,,,,,,,,,,,,,,,,,,,,,,,,,,,,,,,,,student1,2022-10-25_13h10.18.953,Hippopolis_Learning,2022.2.4,59.97350369980095,
Hippopolis,stimuli/subj_files/student1_cityA.csv,./stimuli/frankfurt.jpg,./stimuli/street_plate1.png,KORONG UTCA,stimuli/scenes/065a.jpg,scene,1,stimuli/scenes/004a.jpg,stimuli/scenes/004a.jpg,stimuli/scenes/011b.jpg,stimuli/scenes/011a.jpg,stimuli/scenes/004b.jpg,target,dist2,dist1,lure,0,0,0,0,0,75,75,53,,,,,,,,,,,403.61250990000553,404.6184381999774,404.6184381999774,404.6184381999774,404.6184381999774,None,404.6184381999774,,,,,,,,,,,,,,,,,,,,,,,,,,,,,,,,,,,,,,,,student1,2022-10-25_13h10.18.953,Hippopolis_Learning,2022.2.4,59.97350369980095,
Hippopolis,stimuli/subj_files/student1_cityA.csv,./stimuli/frankfurt.jpg,./stimuli/street_plate1.png,VÖDÖR UTCA,stimuli/scenes/055a.jpg,scene,1,stimuli/scenes/088a.jpg,stimuli/scenes/088b.jpg,stimuli/scenes/088a.jpg,stimuli/scenes/087b.jpg,stimuli/scenes/087a.jpg,lure,target,dist2,dist1,0,0,0,0,0,76,76,56,,,,,,,,,,,407.6292908999603,408.6366146999644,408.6366146999644,408.6366146999644,408.6366146999644,None,408.6366146999644,,,,,,,,,,,,,,,,,,,,,,,,,,,,,,,,,,,,,,,,student1,2022-10-25_13h10.18.953,Hippopolis_Learning,2022.2.4,59.97350369980095,
Hippopolis,stimuli/subj_files/student1_cityA.csv,./stimuli/frankfurt.jpg,./stimuli/street_plate1.png,TOLLTARTÓ UTCA,stimuli/objects/032a.jpg,object,2,stimuli/scenes/119a.jpg,stimuli/scenes/119a.jpg,stimuli/scenes/104b.jpg,stimuli/scenes/104a.jpg,stimuli/scenes/119b.jpg,target,dist2,dist1,lure,0,0,0,0,0,77,77,67,,,,,,,,,,,411.64570570003707,412.6623178999871,412.6623178999871,412.6623178999871,412.6623178999871,None,412.6623178999871,,,,,,,,,,,,,,,,,,,,,,,,,,,,,,,,,,,,,,,,student1,2022-10-25_13h10.18.953,Hippopolis_Learning,2022.2.4,59.97350369980095,
Hippopolis,stimuli/subj_files/student1_cityA.csv,./stimuli/frankfurt.jpg,./stimuli/street_plate1.png,RÁDIÓ UTCA,stimuli/scenes/068a.jpg,scene,1,stimuli/scenes/067a.jpg,stimuli/scenes/018b.jpg,stimuli/scenes/067a.jpg,stimuli/scenes/067b.jpg,stimuli/scenes/018a.jpg,dist2,target,lure,dist1,0,0,0,0,0,78,78,44,,,,,,,,,,,415.6623741000658,416.6707917000167,416.6707917000167,416.6707917000167,416.6707917000167,None,416.6707917000167,,,,,,,,,,,,,,,,,,,,,,,,,,,,,,,,,,,,,,,,student1,2022-10-25_13h10.18.953,Hippopolis_Learning,2022.2.4,59.97350369980095,
Hippopolis,stimuli/subj_files/student1_cityA.csv,./stimuli/frankfurt.jpg,./stimuli/street_plate1.png,ÁRNYÉK UTCA,stimuli/objects/020a.jpg,object,1,stimuli/objects/027a.jpg,stimuli/scenes/004a.jpg,stimuli/objects/027b.jpg,stimuli/objects/027a.jpg,stimuli/scenes/004b.jpg,dist1,lure,target,dist2,0,0,0,0,0,79,79,52,,,,,,,,,,,419.67886440001894,420.69035669998266,420.69035669998266,420.69035669998266,420.69035669998266,None,420.69035669998266,,,,,,,,,,,,,,,,,,,,,,,,,,,,,,,,,,,,,,,,student1,2022-10-25_13h10.18.953,Hippopolis_Learning,2022.2.4,59.97350369980095,
Hippopolis,stimuli/subj_files/student1_cityA.csv,./stimuli/frankfurt.jpg,./stimuli/street_plate1.png,PAPAGÁJ UTCA,stimuli/objects/093a.jpg,object,2,stimuli/scenes/097a.jpg,stimuli/scenes/097a.jpg,stimuli/scenes/109b.jpg,stimuli/scenes/109a.jpg,stimuli/scenes/097b.jpg,target,dist2,dist1,lure,0,0,0,0,,,,,0,0,0,55,,,,,,,457.7320787999779,,,,,,,,,,,,,,423.6955986999674,423.6955986999674,space,29.986586599959992,453.7443636000389,453.7443636000389,453.7443636000389,453.7443636000389,453.7443636000389,453.7443636000389,None,None,,,,,,,,,,,,,,,,,,,,,student1,2022-10-25_13h10.18.953,Hippopolis_Learning,2022.2.4,59.97350369980095,
Hippopolis,stimuli/subj_files/student1_cityA.csv,./stimuli/frankfurt.jpg,./stimuli/street_plate1.png,MOGYORÓ UTCA,stimuli/objects/106a.jpg,object,1,stimuli/objects/103a.jpg,stimuli/scenes/116a.jpg,stimuli/objects/103b.jpg,stimuli/objects/103a.jpg,stimuli/scenes/116b.jpg,dist1,lure,target,dist2,0,0,0,0,,,,,0,1,1,54,,,,,,,462.7449611000484,,,,,,463.7448227000423,,,,,,,,,,,,458.7458006000379,458.7458006000379,458.7458006000379,458.7458006000379,458.7458006000379,458.7458006000379,None,None,,,,,,,,,,,,,,,,,,,,,student1,2022-10-25_13h10.18.953,Hippopolis_Learning,2022.2.4,59.97350369980095,
Hippopolis,stimuli/subj_files/student1_cityA.csv,./stimuli/frankfurt.jpg,./stimuli/street_plate1.png,POGÁCSA UTCA,stimuli/scenes/046a.jpg,scene,0,stimuli/scenes/046a.jpg,stimuli/scenes/042a.jpg,stimuli/scenes/046a.jpg,stimuli/scenes/046b.jpg,stimuli/scenes/042b.jpg,dist1,target,lure,dist2,0,0,0,0,,,,,0,2,2,49,,,,,,,466.71166260004975,,,,,,467.7118067999836,,,,,,,,,,,,463.7448227000423,463.7448227000423,463.7448227000423,463.7448227000423,463.7448227000423,463.7448227000423,left,None,2.936725400038995,,,,,,,,,,,,,,,,,,,,student1,2022-10-25_13h10.18.953,Hippopolis_Learning,2022.2.4,59.97350369980095,
Hippopolis,stimuli/subj_files/student1_cityA.csv,./stimuli/frankfurt.jpg,./stimuli/street_plate1.png,RÁDIÓ UTCA,stimuli/scenes/068a.jpg,scene,1,stimuli/scenes/067a.jpg,stimuli/scenes/018b.jpg,stimuli/scenes/067a.jpg,stimuli/scenes/067b.jpg,stimuli/scenes/018a.jpg,dist2,target,lure,dist1,0,0,0,0,,,,,0,3,3,44,,,,,,,470.6780642999802,,,,,,471.67855780001264,,,,,,,,,,,,467.7118067999836,467.7118067999836,467.7118067999836,467.7118067999836,467.7118067999836,467.7118067999836,left,None,2.9415169999701902,,,,,,,,,,,,,,,,,,,,student1,2022-10-25_13h10.18.953,Hippopolis_Learning,2022.2.4,59.97350369980095,
Hippopolis,stimuli/subj_files/student1_cityA.csv,./stimuli/frankfurt.jpg,./stimuli/street_plate1.png,KIRAKÓ UTCA,stimuli/objects/079a.jpg,object,2,stimuli/scenes/070a.jpg,stimuli/scenes/070a.jpg,stimuli/scenes/070b.jpg,stimuli/objects/043b.jpg,stimuli/objects/043a.jpg,target,lure,dist2,dist1,0,0,0,0,,,,,0,4,4,57,,,,,,,474.0277424000669,,,,,,475.02791279996745,,,,,,,,,,,,471.67855780001264,471.67855780001264,471.67855780001264,471.67855780001264,471.67855780001264,471.67855780001264,right,None,2.3226648999843746,,,,,,,,,,,,,,,,,,,,student1,2022-10-25_13h10.18.953,Hippopolis_Learning,2022.2.4,59.97350369980095,
Hippopolis,stimuli/subj_files/student1_cityA.csv,./stimuli/frankfurt.jpg,./stimuli/street_plate1.png,HEGESZTŐ UTCA,stimuli/scenes/043a.jpg,scene,0,stimuli/scenes/043a.jpg,stimuli/scenes/043b.jpg,stimuli/scenes/043a.jpg,stimuli/objects/062a.jpg,stimuli/objects/062b.jpg,lure,target,dist1,dist2,0,0,0,0,,,,,0,5,5,77,,,,,,,479.02910140005406,,,,,,480.0283492000308,,,,,,,,,,,,475.02791279996745,475.02791279996745,475.02791279996745,475.02791279996745,475.02791279996745,475.02791279996745,None,None,,479.02910140005406,479.02910140005406,479.02910140005406,479.02910140005406,479.02910140005406,479.02910140005406,,,,,,,,,,,,,,student1,2022-10-25_13h10.18.953,Hippopolis_Learning,2022.2.4,59.97350369980095,
Hippopolis,stimuli/subj_files/student1_cityA.csv,./stimuli/frankfurt.jpg,./stimuli/street_plate1.png,PÁLMAFA UTCA,stimuli/objects/090a.jpg,object,1,stimuli/objects/007a.jpg,stimuli/objects/053a.jpg,stimuli/objects/007a.jpg,stimuli/objects/053b.jpg,stimuli/objects/007b.jpg,dist1,target,dist2,lure,0,0,0,0,,,,,0,6,6,12,,,,,,,482.4774952000007,,,,,,483.47796339995693,,,,,,,,,,,,480.0283492000308,480.0283492000308,480.0283492000308,480.0283492000308,480.0283492000308,480.0283492000308,right,None,2.4258770999731496,,,,,,,,,,,,,,,,,,,,student1,2022-10-25_13h10.18.953,Hippopolis_Learning,2022.2.4,59.97350369980095,
Hippopolis,stimuli/subj_files/student1_cityA.csv,./stimuli/frankfurt.jpg,./stimuli/street_plate1.png,KÖTÉNY UTCA,stimuli/scenes/031a.jpg,scene,1,stimuli/scenes/064a.jpg,stimuli/objects/103a.jpg,stimuli/objects/103b.jpg,stimuli/scenes/064b.jpg,stimuli/scenes/064a.jpg,dist1,dist2,lure,target,0,0,0,0,,,,,0,7,7,22,,,,,,,485.31128080002964,,,,,,486.3138849999523,,,,,,,,,,,,483.47796339995693,483.47796339995693,483.47796339995693,483.47796339995693,483.47796339995693,483.47796339995693,left,None,1.8172671000938863,,,,,,,,,,,,,,,,,,,,student1,2022-10-25_13h10.18.953,Hippopolis_Learning,2022.2.4,59.97350369980095,
Hippopolis,stimuli/subj_files/student1_cityA.csv,./stimuli/frankfurt.jpg,./stimuli/street_plate1.png,SIVATAG UTCA,stimuli/scenes/016a.jpg,scene,2,stimuli/objects/046a.jpg,stimuli/objects/046b.jpg,stimuli/objects/006a.jpg,stimuli/objects/006b.jpg,stimuli/objects/046a.jpg,lure,dist1,dist2,target,0,0,0,0,,,,,0,8,8,23,,,,,,,488.86122269998305,,,,,,489.8618183999788,,,,,,,,,,,,486.3138849999523,486.3138849999523,486.3138849999523,486.3138849999523,486.3138849999523,486.3138849999523,left,None,2.520096200052649,,,,,,,,,,,,,,,,,,,,student1,2022-10-25_13h10.18.953,Hippopolis_Learning,2022.2.4,59.97350369980095,
Hippopolis,stimuli/subj_files/student1_cityA.csv,./stimuli/frankfurt.jpg,./stimuli/street_plate1.png,KÖTÉL UTCA,stimuli/objects/051a.jpg,object,0,stimuli/objects/051a.jpg,stimuli/scenes/024b.jpg,stimuli/objects/051b.jpg,stimuli/scenes/024a.jpg,stimuli/objects/051a.jpg,dist2,lure,dist1,target,0,0,0,0,,,,,0,9,9,7,,,,,,,492.47759000002407,,,,,,493.4811965000117,,,,,,,,,,,,489.8618183999788,489.8618183999788,489.8618183999788,489.8618183999788,489.8618183999788,489.8618183999788,left,None,2.5919850999489427,,,,,,,,,,,,,,,,,,,,student1,2022-10-25_13h10.18.953,Hippopolis_Learning,2022.2.4,59.97350369980095,
Hippopolis,stimuli/subj_files/student1_cityA.csv,./stimuli/frankfurt.jpg,./stimuli/street_plate1.png,FÓKA UTCA,stimuli/scenes/058a.jpg,scene,0,stimuli/scenes/058a.jpg,stimuli/scenes/058a.jpg,stimuli/scenes/058b.jpg,stimuli/objects/111b.jpg,stimuli/objects/111a.jpg,target,lure,dist2,dist1,0,0,0,0,,,,,0,10,10,51,,,,,,,496.22757430002093,,,,,,497.227558100014,,,,,,,,,,,,493.4811965000117,493.4811965000117,493.4811965000117,493.4811965000117,493.4811965000117,493.4811965000117,left,None,2.722989600035362,,,,,,,,,,,,,,,,,,,,student1,2022-10-25_13h10.18.953,Hippopolis_Learning,2022.2.4,59.97350369980095,
Hippopolis,stimuli/subj_files/student1_cityA.csv,./stimuli/frankfurt.jpg,./stimuli/street_plate1.png,TOBOZ UTCA,stimuli/objects/001a.jpg,object,2,stimuli/scenes/059a.jpg,stimuli/scenes/059a.jpg,stimuli/objects/085a.jpg,stimuli/objects/085b.jpg,stimuli/scenes/059b.jpg,target,dist1,dist2,lure,0,0,0,0,,,,,0,11,11,40,,,,,,,500.01074159995187,,,,,,501.0109569999622,,,,,,,,,,,,497.227558100014,497.227558100014,497.227558100014,497.227558100014,497.227558100014,497.227558100014,left,None,2.757261999999173,,,,,,,,,,,,,,,,,,,,student1,2022-10-25_13h10.18.953,Hippopolis_Learning,2022.2.4,59.97350369980095,
Hippopolis,stimuli/subj_files/student1_cityA.csv,./stimuli/frankfurt.jpg,./stimuli/street_plate1.png,MÁLNA UTCA,stimuli/objects/069a.jpg,object,2,stimuli/scenes/053a.jpg,stimuli/objects/073a.jpg,stimuli/objects/073b.jpg,stimuli/scenes/053b.jpg,stimuli/scenes/053a.jpg,dist1,dist2,lure,target,0,0,0,0,,,,,0,12,12,14,,,,,,,503.6105066000018,,,,,,504.6112427000189,,,,,,,,,,,,501.0109569999622,501.0109569999622,501.0109569999622,501.0109569999622,501.0109569999622,501.0109569999622,left,None,2.570951799978502,,,,,,,,,,,,,,,,,,,,student1,2022-10-25_13h10.18.953,Hippopolis_Learning,2022.2.4,59.97350369980095,
Hippopolis,stimuli/subj_files/student1_cityA.csv,./stimuli/frankfurt.jpg,./stimuli/street_plate1.png,HARMONIKA UTCA,stimuli/scenes/024a.jpg,scene,0,stimuli/scenes/024a.jpg,stimuli/scenes/101b.jpg,stimuli/scenes/024b.jpg,stimuli/scenes/101a.jpg,stimuli/scenes/024a.jpg,dist2,lure,dist1,target,0,0,0,0,,,,,0,13,13,25,,,,,,,508.6108782000374,,,,,,509.6112377999816,,,,,,,,,,,,504.6112427000189,504.6112427000189,504.6112427000189,504.6112427000189,504.6112427000189,504.6112427000189,None,None,,508.6108782000374,508.6108782000374,508.6108782000374,508.6108782000374,508.6108782000374,508.6108782000374,,,,,,,,,,,,,,student1,2022-10-25_13h10.18.953,Hippopolis_Learning,2022.2.4,59.97350369980095,
Hippopolis,stimuli/subj_files/student1_cityA.csv,./stimuli/frankfurt.jpg,./stimuli/street_plate1.png,ÁRNYÉK UTCA,stimuli/objects/020a.jpg,object,1,stimuli/objects/027a.jpg,stimuli/scenes/004a.jpg,stimuli/objects/027b.jpg,stimuli/objects/027a.jpg,stimuli/scenes/004b.jpg,dist1,lure,target,dist2,0,0,0,0,,,,,0,14,14,52,,,,,,,511.47717139997985,,,,,,512.478486899985,,,,,,,,,,,,509.6112377999816,509.6112377999816,509.6112377999816,509.6112377999816,509.6112377999816,509.6112377999816,right,None,1.8447213000617921,,,,,,,,,,,,,,,,,,,,student1,2022-10-25_13h10.18.953,Hippopolis_Learning,2022.2.4,59.97350369980095,
Hippopolis,stimuli/subj_files/student1_cityA.csv,./stimuli/frankfurt.jpg,./stimuli/street_plate1.png,MUSTÁR UTCA,stimuli/scenes/050a.jpg,scene,0,stimuli/scenes/050a.jpg,stimuli/objects/009a.jpg,stimuli/objects/009b.jpg,stimuli/scenes/050a.jpg,stimuli/scenes/050b.jpg,dist1,dist2,target,lure,0,0,0,0,,,,,0,15,15,78,,,,,,,514.1441901000217,,,,,,515.1440336999949,,,,,,,,,,,,512.478486899985,512.478486899985,512.478486899985,512.478486899985,512.478486899985,512.478486899985,left,None,1.6406904000323266,,,,,,,,,,,,,,,,,,,,student1,2022-10-25_13h10.18.953,Hippopolis_Learning,2022.2.4,59.97350369980095,
Hippopolis,stimuli/subj_files/student1_cityA.csv,./stimuli/frankfurt.jpg,./stimuli/street_plate1.png,KÖMÉNYMAG UTCA,stimuli/objects/068a.jpg,object,1,stimuli/objects/045a.jpg,stimuli/objects/045a.jpg,stimuli/objects/045b.jpg,stimuli/objects/071a.jpg,stimuli/objects/071b.jpg,target,lure,dist1,dist2,0,0,0,0,,,,,0,16,16,18,,,,,,,517.0771839000518,,,,,,518.0774359999923,,,,,,,,,,,,515.1440336999949,515.1440336999949,515.1440336999949,515.1440336999949,515.1440336999949,515.1440336999949,left,None,1.9104083999991417,,,,,,,,,,,,,,,,,,,,student1,2022-10-25_13h10.18.953,Hippopolis_Learning,2022.2.4,59.97350369980095,
Hippopolis,stimuli/subj_files/student1_cityA.csv,./stimuli/frankfurt.jpg,./stimuli/street_plate1.png,KARTON UTCA,stimuli/objects/101a.jpg,object,2,stimuli/scenes/044a.jpg,stimuli/scenes/074a.jpg,stimuli/scenes/044b.jpg,stimuli/scenes/044a.jpg,stimuli/scenes/074b.jpg,dist1,lure,target,dist2,0,0,0,0,,,,,0,17,17,8,,,,,,,519.5102816000581,,,,,,520.5111499000341,,,,,,,,,,,,518.0774359999923,518.0774359999923,518.0774359999923,518.0774359999923,518.0774359999923,518.0774359999923,right,None,1.4045317999552935,,,,,,,,,,,,,,,,,,,,student1,2022-10-25_13h10.18.953,Hippopolis_Learning,2022.2.4,59.97350369980095,
Hippopolis,stimuli/subj_files/student1_cityA.csv,./stimuli/frankfurt.jpg,./stimuli/street_plate1.png,HERNYÓ UTCA,stimuli/scenes/066a.jpg,scene,1,stimuli/scenes/037a.jpg,stimuli/scenes/037a.jpg,stimuli/objects/045b.jpg,stimuli/scenes/037b.jpg,stimuli/objects/045a.jpg,target,dist2,lure,dist1,0,0,0,0,,,,,0,18,18,5,,,,,,,522.3938989000162,,,,,,523.3941578000085,,,,,,,,,,,,520.5111499000341,520.5111499000341,520.5111499000341,520.5111499000341,520.5111499000341,520.5111499000341,right,None,1.856438499991782,,,,,,,,,,,,,,,,,,,,student1,2022-10-25_13h10.18.953,Hippopolis_Learning,2022.2.4,59.97350369980095,
Hippopolis,stimuli/subj_files/student1_cityA.csv,./stimuli/frankfurt.jpg,./stimuli/street_plate1.png,LAKAT UTCA,stimuli/objects/066a.jpg,object,2,stimuli/scenes/084a.jpg,stimuli/scenes/084b.jpg,stimuli/scenes/034a.jpg,stimuli/scenes/084a.jpg,stimuli/scenes/034b.jpg,lure,dist1,target,dist2,0,0,0,0,,,,,0,19,19,58,,,,,,,538.460312900017,,,,,,539.4700568000553,,,,,,,,,,,,523.3941578000085,523.3941578000085,523.3941578000085,523.3941578000085,523.3941578000085,523.3941578000085,right,space,0.8176453000633046,,,,,,,524.247859199997,524.247859199997,524.247859199997,524.247859199997,524.247859199997,14.180699099902995,,,,,,,,student1,2022-10-25_13h10.18.953,Hippopolis_Learning,2022.2.4,59.97350369980095,
Hippopolis,stimuli/subj_files/student1_cityA.csv,./stimuli/frankfurt.jpg,./stimuli/street_plate1.png,KERET UTCA,stimuli/scenes/027a.jpg,scene,0,stimuli/scenes/027a.jpg,stimuli/objects/100a.jpg,stimuli/objects/100b.jpg,stimuli/scenes/027a.jpg,stimuli/scenes/027b.jpg,dist1,dist2,target,lure,0,0,0,0,,,,,0,20,20,3,,,,,,,548.5268295999849,,,,,,549.527001600014,,,,,,,,,,,,539.4700568000553,539.4700568000553,539.4700568000553,539.4700568000553,539.4700568000553,539.4700568000553,right,space,1.3776991999475285,,,,,,,540.8767149000196,540.8767149000196,540.8767149000196,540.8767149000196,540.8767149000196,7.629916200065054,,,,,,,,student1,2022-10-25_13h10.18.953,Hippopolis_Learning,2022.2.4,59.97350369980095,
Hippopolis,stimuli/subj_files/student1_cityA.csv,./stimuli/frankfurt.jpg,./stimuli/street_plate1.png,TERASZ UTCA,stimuli/objects/063a.jpg,object,2,stimuli/scenes/104a.jpg,stimuli/scenes/104a.jpg,stimuli/scenes/056a.jpg,stimuli/scenes/104b.jpg,stimuli/scenes/056b.jpg,target,dist1,lure,dist2,0,0,0,0,,,,,0,21,21,48,,,,,,,551.2097859999631,,,,,,552.2103218999691,,,,,,,,,,,,549.527001600014,549.527001600014,549.527001600014,549.527001600014,549.527001600014,549.527001600014,left,None,1.6530636000679806,,,,,,,,,,,,,,,,,,,,student1,2022-10-25_13h10.18.953,Hippopolis_Learning,2022.2.4,59.97350369980095,
Hippopolis,stimuli/subj_files/student1_cityA.csv,./stimuli/frankfurt.jpg,./stimuli/street_plate1.png,TRIATLON UTCA,stimuli/objects/024a.jpg,object,0,stimuli/objects/024a.jpg,stimuli/objects/024b.jpg,stimuli/objects/080a.jpg,stimuli/objects/024a.jpg,stimuli/objects/080b.jpg,lure,dist1,target,dist2,0,0,0,0,,,,,0,22,22,2,,,,,,,553.8263435000554,,,,,,554.8269706000574,,,,,,,,,,,,552.2103218999691,552.2103218999691,552.2103218999691,552.2103218999691,552.2103218999691,552.2103218999691,right,None,1.5950154999736696,,,,,,,,,,,,,,,,,,,,student1,2022-10-25_13h10.18.953,Hippopolis_Learning,2022.2.4,59.97350369980095,
Hippopolis,stimuli/subj_files/student1_cityA.csv,./stimuli/frankfurt.jpg,./stimuli/street_plate1.png,TELEP UTCA,stimuli/scenes/048a.jpg,scene,2,stimuli/objects/120a.jpg,stimuli/objects/120a.jpg,stimuli/objects/120b.jpg,stimuli/scenes/119b.jpg,stimuli/scenes/119a.jpg,target,lure,dist2,dist1,0,0,0,0,,,,,0,23,23,75,,,,,,,556.4596416000277,,,,,,557.4601850999752,,,,,,,,,,,,554.8269706000574,554.8269706000574,554.8269706000574,554.8269706000574,554.8269706000574,554.8269706000574,left,None,1.6103911000536755,,,,,,,,,,,,,,,,,,,,student1,2022-10-25_13h10.18.953,Hippopolis_Learning,2022.2.4,59.97350369980095,
Hippopolis,stimuli/subj_files/student1_cityA.csv,./stimuli/frankfurt.jpg,./stimuli/street_plate1.png,PÁFRÁNY UTCA,stimuli/scenes/101a.jpg,scene,0,stimuli/scenes/101a.jpg,stimuli/scenes/101a.jpg,stimuli/scenes/101b.jpg,stimuli/objects/051a.jpg,stimuli/objects/051b.jpg,target,lure,dist1,dist2,0,0,0,0,,,,,0,24,24,0,,,,,,,559.4761362000136,,,,,,560.4773956000572,,,,,,,,,,,,557.4601850999752,557.4601850999752,557.4601850999752,557.4601850999752,557.4601850999752,557.4601850999752,right,None,1.991812099935487,,,,,,,,,,,,,,,,,,,,student1,2022-10-25_13h10.18.953,Hippopolis_Learning,2022.2.4,59.97350369980095,
Hippopolis,stimuli/subj_files/student1_cityA.csv,./stimuli/frankfurt.jpg,./stimuli/street_plate1.png,ÜVEG UTCA,stimuli/scenes/061a.jpg,scene,2,stimuli/objects/085a.jpg,stimuli/objects/085b.jpg,stimuli/scenes/084a.jpg,stimuli/objects/085a.jpg,stimuli/scenes/084b.jpg,lure,dist1,target,dist2,0,0,0,0,,,,,0,25,25,19,,,,,,,561.9094797000289,,,,,,562.9099647999974,,,,,,,,,,,,560.4773956000572,560.4773956000572,560.4773956000572,560.4773956000572,560.4773956000572,560.4773956000572,left,None,1.4166069000493735,,,,,,,,,,,,,,,,,,,,student1,2022-10-25_13h10.18.953,Hippopolis_Learning,2022.2.4,59.97350369980095,
Hippopolis,stimuli/subj_files/student1_cityA.csv,./stimuli/frankfurt.jpg,./stimuli/street_plate1.png,TALICSKA UTCA,stimuli/objects/014a.jpg,object,1,stimuli/objects/108a.jpg,stimuli/objects/109a.jpg,stimuli/objects/109b.jpg,stimuli/objects/108a.jpg,stimuli/objects/108b.jpg,dist1,dist2,target,lure,0,0,0,0,,,,,0,26,26,13,,,,,,,564.142954000039,,,,,,565.1434299000539,,,,,,,,,,,,562.9099647999974,562.9099647999974,562.9099647999974,562.9099647999974,562.9099647999974,562.9099647999974,right,None,1.2047972999280319,,,,,,,,,,,,,,,,,,,,student1,2022-10-25_13h10.18.953,Hippopolis_Learning,2022.2.4,59.97350369980095,
Hippopolis,stimuli/subj_files/student1_cityA.csv,./stimuli/frankfurt.jpg,./stimuli/street_plate1.png,LÁNDZSA UTCA,stimuli/scenes/090a.jpg,scene,0,stimuli/scenes/090a.jpg,stimuli/scenes/090a.jpg,stimuli/objects/091b.jpg,stimuli/scenes/090b.jpg,stimuli/objects/091a.jpg,target,dist2,lure,dist1,0,0,0,0,,,,,0,27,27,39,,,,,,,567.0258902000496,,,,,,568.0265144000296,,,,,,,,,,,,565.1434299000539,565.1434299000539,565.1434299000539,565.1434299000539,565.1434299000539,565.1434299000539,left,None,1.8509403999196365,,,,,,,,,,,,,,,,,,,,student1,2022-10-25_13h10.18.953,Hippopolis_Learning,2022.2.4,59.97350369980095,
Hippopolis,stimuli/subj_files/student1_cityA.csv,./stimuli/frankfurt.jpg,./stimuli/street_plate1.png,KERÉK UTCA,stimuli/scenes/096a.jpg,scene,1,stimuli/scenes/041a.jpg,stimuli/scenes/117a.jpg,stimuli/scenes/041b.jpg,stimuli/scenes/041a.jpg,stimuli/scenes/117b.jpg,dist1,lure,target,dist2,0,0,0,0,,,,,0,28,28,20,,,,,,,569.8592923999531,,,,,,570.859861999983,,,,,,,,,,,,568.0265144000296,568.0265144000296,568.0265144000296,568.0265144000296,568.0265144000296,568.0265144000296,right,None,1.8037374999839813,,,,,,,,,,,,,,,,,,,,student1,2022-10-25_13h10.18.953,Hippopolis_Learning,2022.2.4,59.97350369980095,
Hippopolis,stimuli/subj_files/student1_cityA.csv,./stimuli/frankfurt.jpg,./stimuli/street_plate1.png,RÓZSA UTCA,stimuli/objects/091a.jpg,object,0,stimuli/objects/091a.jpg,stimuli/objects/091b.jpg,stimuli/objects/078b.jpg,stimuli/objects/078a.jpg,stimuli/objects/091a.jpg,lure,dist2,dist1,target,0,0,0,0,,,,,0,29,29,45,,,,,,,574.8425809000619,,,,,,575.8435070000123,,,,,,,,,,,,570.859861999983,570.859861999983,570.859861999983,570.859861999983,570.859861999983,570.859861999983,right,None,3.951234700041823,,,,,,,,,,,,,,,,,,,,student1,2022-10-25_13h10.18.953,Hippopolis_Learning,2022.2.4,59.97350369980095,
Hippopolis,stimuli/subj_files/student1_cityA.csv,./stimuli/frankfurt.jpg,./stimuli/street_plate1.png,MUNKA UTCA,stimuli/scenes/039a.jpg,scene,2,stimuli/objects/067a.jpg,stimuli/scenes/097a.jpg,stimuli/objects/067b.jpg,stimuli/objects/067a.jpg,stimuli/scenes/097b.jpg,dist1,lure,target,dist2,0,0,0,0,,,,,0,30,30,4,,,,,,,577.8261508999858,,,,,,578.826979400008,,,,,,,,,,,,575.8435070000123,575.8435070000123,575.8435070000123,575.8435070000123,575.8435070000123,575.8435070000123,right,None,1.9643409999553114,,,,,,,,,,,,,,,,,,,,student1,2022-10-25_13h10.18.953,Hippopolis_Learning,2022.2.4,59.97350369980095,
Hippopolis,stimuli/subj_files/student1_cityA.csv,./stimuli/frankfurt.jpg,./stimuli/street_plate1.png,LÉTRA UTCA,stimuli/objects/047a.jpg,object,1,stimuli/objects/015a.jpg,stimuli/objects/108b.jpg,stimuli/objects/015b.jpg,stimuli/objects/108a.jpg,stimuli/objects/015a.jpg,dist2,lure,dist1,target,0,0,0,0,,,,,0,31,31,33,,,,,,,582.0093264000025,,,,,,583.0097494999645,,,,,,,,,,,,578.826979400008,578.826979400008,578.826979400008,578.826979400008,578.826979400008,578.826979400008,left,None,3.1619999000104144,,,,,,,,,,,,,,,,,,,,student1,2022-10-25_13h10.18.953,Hippopolis_Learning,2022.2.4,59.97350369980095,
Hippopolis,stimuli/subj_files/student1_cityA.csv,./stimuli/frankfurt.jpg,./stimuli/street_plate1.png,BÖGRE UTCA,stimuli/objects/050a.jpg,object,1,stimuli/objects/076a.jpg,stimuli/scenes/037a.jpg,stimuli/objects/076a.jpg,stimuli/objects/076b.jpg,stimuli/scenes/037b.jpg,dist1,target,lure,dist2,0,0,0,0,,,,,0,32,32,41,,,,,,,585.4926033000229,,,,,,586.4929592000553,,,,,,,,,,,,583.0097494999645,583.0097494999645,583.0097494999645,583.0097494999645,583.0097494999645,583.0097494999645,left,None,2.455276499968022,,,,,,,,,,,,,,,,,,,,student1,2022-10-25_13h10.18.953,Hippopolis_Learning,2022.2.4,59.97350369980095,
Hippopolis,stimuli/subj_files/student1_cityA.csv,./stimuli/frankfurt.jpg,./stimuli/street_plate1.png,KÖNYVTÁR UTCA,stimuli/objects/113a.jpg,object,1,stimuli/objects/109a.jpg,stimuli/objects/109a.jpg,stimuli/objects/109b.jpg,stimuli/scenes/067a.jpg,stimuli/scenes/067b.jpg,target,lure,dist1,dist2,0,0,0,0,,,,,0,33,33,42,,,,,,,594.8258460999932,,,,,,595.8352519000182,,,,,,,,,,,,586.4929592000553,586.4929592000553,586.4929592000553,586.4929592000553,586.4929592000553,586.4929592000553,right,space,1.293428699951619,,,,,,,587.8095698000398,587.8095698000398,587.8095698000398,587.8095698000398,587.8095698000398,6.991345399990678,,,,,,,,student1,2022-10-25_13h10.18.953,Hippopolis_Learning,2022.2.4,59.97350369980095,
Hippopolis,stimuli/subj_files/student1_cityA.csv,./stimuli/frankfurt.jpg,./stimuli/street_plate1.png,BONBON UTCA,stimuli/objects/095a.jpg,object,2,stimuli/scenes/007a.jpg,stimuli/objects/028b.jpg,stimuli/objects/028a.jpg,stimuli/scenes/007a.jpg,stimuli/scenes/007b.jpg,dist2,dist1,target,lure,0,0,0,0,,,,,0,34,34,72,,,,,,,598.8257330000633,,,,,,599.826161300065,,,,,,,,,,,,595.8352519000182,595.8352519000182,595.8352519000182,595.8352519000182,595.8352519000182,595.8352519000182,left,None,2.9656657999148592,,,,,,,,,,,,,,,,,,,,student1,2022-10-25_13h10.18.953,Hippopolis_Learning,2022.2.4,59.97350369980095,
Hippopolis,stimuli/subj_files/student1_cityA.csv,./stimuli/frankfurt.jpg,./stimuli/street_plate1.png,PADLÓ UTCA,stimuli/objects/100a.jpg,object,0,stimuli/objects/100a.jpg,stimuli/scenes/058a.jpg,stimuli/scenes/058b.jpg,stimuli/objects/100a.jpg,stimuli/objects/100b.jpg,dist1,dist2,target,lure,0,0,0,0,,,,,0,35,35,59,,,,,,,603.3255231999792,,,,,,604.3259371999884,,,,,,,,,,,,599.826161300065,599.826161300065,599.826161300065,599.826161300065,599.826161300065,599.826161300065,left,None,3.47916470002383,,,,,,,,,,,,,,,,,,,,student1,2022-10-25_13h10.18.953,Hippopolis_Learning,2022.2.4,59.97350369980095,
Hippopolis,stimuli/subj_files/student1_cityA.csv,./stimuli/frankfurt.jpg,./stimuli/street_plate1.png,MARTINI UTCA,stimuli/objects/060a.jpg,object,1,stimuli/objects/011a.jpg,stimuli/objects/075b.jpg,stimuli/objects/075a.jpg,stimuli/objects/011b.jpg,stimuli/objects/011a.jpg,dist2,dist1,lure,target,0,0,0,0,,,,,0,36,36,60,,,,,,,606.4255379999522,,,,,,607.4260951000033,,,,,,,,,,,,604.3259371999884,604.3259371999884,604.3259371999884,604.3259371999884,604.3259371999884,604.3259371999884,left,None,2.075002899975516,,,,,,,,,,,,,,,,,,,,student1,2022-10-25_13h10.18.953,Hippopolis_Learning,2022.2.4,59.97350369980095,
Hippopolis,stimuli/subj_files/student1_cityA.csv,./stimuli/frankfurt.jpg,./stimuli/street_plate1.png,PETÁRDA UTCA,stimuli/objects/009a.jpg,object,0,stimuli/objects/009a.jpg,stimuli/objects/009a.jpg,stimuli/scenes/051a.jpg,stimuli/objects/009b.jpg,stimuli/scenes/051b.jpg,target,dist1,lure,dist2,0,0,0,0,,,,,0,37,37,64,,,,,,,608.7753931999905,,,,,,609.7763716999907,,,,,,,,,,,,607.4260951000033,607.4260951000033,607.4260951000033,607.4260951000033,607.4260951000033,607.4260951000033,right,None,1.3324422999285161,,,,,,,,,,,,,,,,,,,,student1,2022-10-25_13h10.18.953,Hippopolis_Learning,2022.2.4,59.97350369980095,
Hippopolis,stimuli/subj_files/student1_cityA.csv,./stimuli/frankfurt.jpg,./stimuli/street_plate1.png,BOLYGÓ UTCA,stimuli/scenes/118a.jpg,scene,1,stimuli/scenes/087a.jpg,stimuli/objects/011a.jpg,stimuli/scenes/087b.jpg,stimuli/objects/011b.jpg,stimuli/scenes/087a.jpg,dist1,lure,dist2,target,0,0,0,0,,,,,0,38,38,31,,,,,,,611.1752809999743,,,,,,612.1758435000665,,,,,,,,,,,,609.7763716999907,609.7763716999907,609.7763716999907,609.7763716999907,609.7763716999907,609.7763716999907,left,None,1.3757239000406116,,,,,,,,,,,,,,,,,,,,student1,2022-10-25_13h10.18.953,Hippopolis_Learning,2022.2.4,59.97350369980095,
Hippopolis,stimuli/subj_files/student1_cityA.csv,./stimuli/frankfurt.jpg,./stimuli/street_plate1.png,VASALÓ UTCA,stimuli/objects/025a.jpg,object,2,stimuli/scenes/056a.jpg,stimuli/scenes/044a.jpg,stimuli/scenes/056b.jpg,stimuli/scenes/056a.jpg,stimuli/scenes/044b.jpg,dist1,lure,target,dist2,0,0,0,0,,,,,0,39,39,70,,,,,,,615.7921338999877,,,,,,616.7922940000426,,,,,,,,,,,,612.1758435000665,612.1758435000665,612.1758435000665,612.1758435000665,612.1758435000665,612.1758435000665,left,None,3.5897407999727875,,,,,,,,,,,,,,,,,,,,student1,2022-10-25_13h10.18.953,Hippopolis_Learning,2022.2.4,59.97350369980095,
Hippopolis,stimuli/subj_files/student1_cityA.csv,./stimuli/frankfurt.jpg,./stimuli/street_plate1.png,KORONA UTCA,stimuli/scenes/108a.jpg,scene,1,stimuli/scenes/011a.jpg,stimuli/objects/076a.jpg,stimuli/scenes/011b.jpg,stimuli/objects/076b.jpg,stimuli/scenes/011a.jpg,dist1,lure,dist2,target,0,0,0,0,,,,,0,40,40,9,,,,,,,617.9418509999523,,,,,,618.9424585000379,,,,,,,,,,,,616.7922940000426,616.7922940000426,616.7922940000426,616.7922940000426,616.7922940000426,616.7922940000426,right,None,1.125594099983573,,,,,,,,,,,,,,,,,,,,student1,2022-10-25_13h10.18.953,Hippopolis_Learning,2022.2.4,59.97350369980095,
Hippopolis,stimuli/subj_files/student1_cityA.csv,./stimuli/frankfurt.jpg,./stimuli/street_plate1.png,OLDAL UTCA,stimuli/scenes/093a.jpg,scene,2,stimuli/objects/107a.jpg,stimuli/objects/107b.jpg,stimuli/objects/022a.jpg,stimuli/objects/107a.jpg,stimuli/objects/022b.jpg,lure,dist1,target,dist2,0,0,0,0,,,,,0,41,41,11,,,,,,,620.1253825000022,,,,,,621.1259362000274,,,,,,,,,,,,618.9424585000379,618.9424585000379,618.9424585000379,618.9424585000379,618.9424585000379,618.9424585000379,left,None,1.164709100034088,,,,,,,,,,,,,,,,,,,,student1,2022-10-25_13h10.18.953,Hippopolis_Learning,2022.2.4,59.97350369980095,
Hippopolis,stimuli/subj_files/student1_cityA.csv,./stimuli/frankfurt.jpg,./stimuli/street_plate1.png,FÉNYKÉP UTCA,stimuli/scenes/010a.jpg,scene,1,stimuli/scenes/078a.jpg,stimuli/scenes/088a.jpg,stimuli/scenes/078a.jpg,stimuli/scenes/088b.jpg,stimuli/scenes/078b.jpg,dist1,target,dist2,lure,0,0,0,0,,,,,0,42,42,32,,,,,,,624.6753215000499,,,,,,625.6756502999924,,,,,,,,,,,,621.1259362000274,621.1259362000274,621.1259362000274,621.1259362000274,621.1259362000274,621.1259362000274,left,None,3.5226443000137806,,,,,,,,,,,,,,,,,,,,student1,2022-10-25_13h10.18.953,Hippopolis_Learning,2022.2.4,59.97350369980095,
Hippopolis,stimuli/subj_files/student1_cityA.csv,./stimuli/frankfurt.jpg,./stimuli/street_plate1.png,PIZSAMA UTCA,stimuli/scenes/060a.jpg,scene,2,stimuli/objects/006a.jpg,stimuli/scenes/007b.jpg,stimuli/scenes/007a.jpg,stimuli/objects/006b.jpg,stimuli/objects/006a.jpg,dist2,dist1,lure,target,0,0,0,0,,,,,0,43,43,79,,,,,,,635.0753003000282,,,,,,636.0825677999528,,,,,,,,,,,,625.6756502999924,625.6756502999924,625.6756502999924,625.6756502999924,625.6756502999924,625.6756502999924,right,space,1.801007300033234,,,,,,,627.5111243999563,627.5111243999563,627.5111243999563,627.5111243999563,627.5111243999563,7.542569200042635,,,,,,,,student1,2022-10-25_13h10.18.953,Hippopolis_Learning,2022.2.4,59.97350369980095,
Hippopolis,stimuli/subj_files/student1_cityA.csv,./stimuli/frankfurt.jpg,./stimuli/street_plate1.png,MOCSÁR UTCA,stimuli/objects/080a.jpg,object,0,stimuli/objects/080a.jpg,stimuli/objects/080b.jpg,stimuli/objects/080a.jpg,stimuli/scenes/043b.jpg,stimuli/scenes/043a.jpg,lure,target,dist2,dist1,0,0,0,0,,,,,0,44,44,17,,,,,,,638.9421996000456,,,,,,639.9422215999803,,,,,,,,,,,,636.0825677999528,636.0825677999528,636.0825677999528,636.0825677999528,636.0825677999528,636.0825677999528,right,None,2.843256999971345,,,,,,,,,,,,,,,,,,,,student1,2022-10-25_13h10.18.953,Hippopolis_Learning,2022.2.4,59.97350369980095,
Hippopolis,stimuli/subj_files/student1_cityA.csv,./stimuli/frankfurt.jpg,./stimuli/street_plate1.png,HORDÓ UTCA,stimuli/scenes/095a.jpg,scene,0,stimuli/scenes/095a.jpg,stimuli/scenes/095a.jpg,stimuli/scenes/046a.jpg,stimuli/scenes/095b.jpg,stimuli/scenes/046b.jpg,target,dist1,lure,dist2,0,0,0,0,,,,,0,45,45,27,,,,,,,641.2583380000433,,,,,,642.2586840000004,,,,,,,,,,,,639.9422215999803,639.9422215999803,639.9422215999803,639.9422215999803,639.9422215999803,639.9422215999803,left,None,1.2890706000616774,,,,,,,,,,,,,,,,,,,,student1,2022-10-25_13h10.18.953,Hippopolis_Learning,2022.2.4,59.97350369980095,
Hippopolis,stimuli/subj_files/student1_cityA.csv,./stimuli/frankfurt.jpg,./stimuli/street_plate1.png,PULÓVER UTCA,stimuli/objects/114a.jpg,object,0,stimuli/objects/114a.jpg,stimuli/scenes/050b.jpg,stimuli/scenes/050a.jpg,stimuli/objects/114b.jpg,stimuli/objects/114a.jpg,dist2,dist1,lure,target,0,0,0,0,,,,,0,46,46,43,,,,,,,643.391647099983,,,,,,644.3918492000084,,,,,,,,,,,,642.2586840000004,642.2586840000004,642.2586840000004,642.2586840000004,642.2586840000004,642.2586840000004,left,None,1.1113363999174908,,,,,,,,,,,,,,,,,,,,student1,2022-10-25_13h10.18.953,Hippopolis_Learning,2022.2.4,59.97350369980095,
Hippopolis,stimuli/subj_files/student1_cityA.csv,./stimuli/frankfurt.jpg,./stimuli/street_plate1.png,AJÁNDÉK UTCA,stimuli/scenes/005a.jpg,scene,1,stimuli/scenes/009a.jpg,stimuli/scenes/078b.jpg,stimuli/scenes/078a.jpg,stimuli/scenes/009a.jpg,stimuli/scenes/009b.jpg,dist2,dist1,target,lure,0,0,0,0,,,,,0,47,47,28,,,,,,,647.7751222000225,,,,,,648.7752920000348,,,,,,,,,,,,644.3918492000084,644.3918492000084,644.3918492000084,644.3918492000084,644.3918492000084,644.3918492000084,left,None,3.3646577999461442,,,,,,,,,,,,,,,,,,,,student1,2022-10-25_13h10.18.953,Hippopolis_Learning,2022.2.4,59.97350369980095,
Hippopolis,stimuli/subj_files/student1_cityA.csv,./stimuli/frankfurt.jpg,./stimuli/street_plate1.png,NARANCS UTCA,stimuli/objects/017a.jpg,object,1,stimuli/objects/075a.jpg,stimuli/objects/075a.jpg,stimuli/scenes/041b.jpg,stimuli/scenes/041a.jpg,stimuli/objects/075b.jpg,target,dist2,dist1,lure,0,0,0,0,,,,,0,48,48,76,,,,,,,651.92480170005,,,,,,652.9253318000119,,,,,,,,,,,,648.7752920000348,648.7752920000348,648.7752920000348,648.7752920000348,648.7752920000348,648.7752920000348,left,None,3.1300113999750465,,,,,,,,,,,,,,,,,,,,student1,2022-10-25_13h10.18.953,Hippopolis_Learning,2022.2.4,59.97350369980095,
Hippopolis,stimuli/subj_files/student1_cityA.csv,./stimuli/frankfurt.jpg,./stimuli/street_plate1.png,HÁRFA UTCA,stimuli/objects/083a.jpg,object,2,stimuli/scenes/028a.jpg,stimuli/scenes/028b.jpg,stimuli/objects/012b.jpg,stimuli/objects/012a.jpg,stimuli/scenes/028a.jpg,lure,dist2,dist1,target,0,0,0,0,,,,,0,49,49,16,,,,,,,654.4914874000242,,,,,,655.4919474000344,,,,,,,,,,,,652.9253318000119,652.9253318000119,652.9253318000119,652.9253318000119,652.9253318000119,652.9253318000119,right,None,1.5462890000781044,,,,,,,,,,,,,,,,,,,,student1,2022-10-25_13h10.18.953,Hippopolis_Learning,2022.2.4,59.97350369980095,
Hippopolis,stimuli/subj_files/student1_cityA.csv,./stimuli/frankfurt.jpg,./stimuli/street_plate1.png,HAJÓ UTCA,stimuli/objects/086a.jpg,object,1,stimuli/objects/041a.jpg,stimuli/scenes/014a.jpg,stimuli/scenes/014b.jpg,stimuli/objects/041a.jpg,stimuli/objects/041b.jpg,dist1,dist2,target,lure,0,0,0,0,,,,,0,50,50,71,,,,,,,657.6747159999795,,,,,,658.6755109999795,,,,,,,,,,,,655.4919474000344,655.4919474000344,655.4919474000344,655.4919474000344,655.4919474000344,655.4919474000344,left,None,2.1655204999260604,,,,,,,,,,,,,,,,,,,,student1,2022-10-25_13h10.18.953,Hippopolis_Learning,2022.2.4,59.97350369980095,
Hippopolis,stimuli/subj_files/student1_cityA.csv,./stimuli/frankfurt.jpg,./stimuli/street_plate1.png,KULLANCS UTCA,stimuli/objects/089a.jpg,object,0,stimuli/objects/089a.jpg,stimuli/scenes/072a.jpg,stimuli/objects/089a.jpg,stimuli/scenes/072b.jpg,stimuli/objects/089b.jpg,dist1,target,dist2,lure,0,0,0,0,,,,,0,51,51,34,,,,,,,660.3246135000372,,,,,,661.3255536999786,,,,,,,,,,,,658.6755109999795,658.6755109999795,658.6755109999795,658.6755109999795,658.6755109999795,658.6755109999795,right,None,1.6223553000018,,,,,,,,,,,,,,,,,,,,student1,2022-10-25_13h10.18.953,Hippopolis_Learning,2022.2.4,59.97350369980095,
Hippopolis,stimuli/subj_files/student1_cityA.csv,./stimuli/frankfurt.jpg,./stimuli/street_plate1.png,ZSEMLE UTCA,stimuli/objects/115a.jpg,object,1,stimuli/objects/053a.jpg,stimuli/objects/007a.jpg,stimuli/objects/053a.jpg,stimuli/objects/007b.jpg,stimuli/objects/053b.jpg,dist1,target,dist2,lure,0,0,0,0,,,,,0,52,52,47,,,,,,,665.3246657999698,,,,,,666.3249418999767,,,,,,,,,,,,661.3255536999786,661.3255536999786,661.3255536999786,661.3255536999786,661.3255536999786,661.3255536999786,None,None,,665.3246657999698,665.3246657999698,665.3246657999698,665.3246657999698,665.3246657999698,665.3246657999698,,,,,,,,,,,,,,student1,2022-10-25_13h10.18.953,Hippopolis_Learning,2022.2.4,59.97350369980095,
Hippopolis,stimuli/subj_files/student1_cityA.csv,./stimuli/frankfurt.jpg,./stimuli/street_plate1.png,CSILLAG UTCA,stimuli/scenes/083a.jpg,scene,1,stimuli/scenes/117a.jpg,stimuli/scenes/117a.jpg,stimuli/scenes/117b.jpg,stimuli/objects/041a.jpg,stimuli/objects/041b.jpg,target,lure,dist1,dist2,0,0,0,0,,,,,0,53,53,15,,,,,,,668.0413007000461,,,,,,669.0415646999609,,,,,,,,,,,,666.3249418999767,666.3249418999767,666.3249418999767,666.3249418999767,666.3249418999767,666.3249418999767,left,None,1.6865079998970032,,,,,,,,,,,,,,,,,,,,student1,2022-10-25_13h10.18.953,Hippopolis_Learning,2022.2.4,59.97350369980095,
Hippopolis,stimuli/subj_files/student1_cityA.csv,./stimuli/frankfurt.jpg,./stimuli/street_plate1.png,CSAVAR UTCA,stimuli/objects/078a.jpg,object,0,stimuli/objects/078a.jpg,stimuli/objects/078b.jpg,stimuli/objects/024b.jpg,stimuli/objects/078a.jpg,stimuli/objects/024a.jpg,lure,dist2,target,dist1,0,0,0,0,,,,,0,54,54,10,,,,,,,673.0410881000571,,,,,,674.0414797000121,,,,,,,,,,,,669.0415646999609,669.0415646999609,669.0415646999609,669.0415646999609,669.0415646999609,669.0415646999609,None,None,,673.0410881000571,673.0410881000571,673.0410881000571,673.0410881000571,673.0410881000571,673.0410881000571,,,,,,,,,,,,,,student1,2022-10-25_13h10.18.953,Hippopolis_Learning,2022.2.4,59.97350369980095,
Hippopolis,stimuli/subj_files/student1_cityA.csv,./stimuli/frankfurt.jpg,./stimuli/street_plate1.png,KORONG UTCA,stimuli/scenes/065a.jpg,scene,1,stimuli/scenes/004a.jpg,stimuli/scenes/004a.jpg,stimuli/scenes/011b.jpg,stimuli/scenes/011a.jpg,stimuli/scenes/004b.jpg,target,dist2,dist1,lure,0,0,0,0,,,,,0,55,55,53,,,,,,,676.0743370000273,,,,,,677.0747183000203,,,,,,,,,,,,674.0414797000121,674.0414797000121,674.0414797000121,674.0414797000121,674.0414797000121,674.0414797000121,left,None,2.01258920005057,,,,,,,,,,,,,,,,,,,,student1,2022-10-25_13h10.18.953,Hippopolis_Learning,2022.2.4,59.97350369980095,
Hippopolis,stimuli/subj_files/student1_cityA.csv,./stimuli/frankfurt.jpg,./stimuli/street_plate1.png,FOGAS UTCA,stimuli/scenes/025a.jpg,scene,1,stimuli/scenes/018a.jpg,stimuli/scenes/018b.jpg,stimuli/scenes/064a.jpg,stimuli/scenes/018a.jpg,stimuli/scenes/064b.jpg,lure,dist1,target,dist2,0,0,0,0,,,,,0,56,56,38,,,,,,,678.3243172999937,,,,,,679.3246172000654,,,,,,,,,,,,677.0747183000203,677.0747183000203,677.0747183000203,677.0747183000203,677.0747183000203,677.0747183000203,left,None,1.2184528999496251,,,,,,,,,,,,,,,,,,,,student1,2022-10-25_13h10.18.953,Hippopolis_Learning,2022.2.4,59.97350369980095,
Hippopolis,stimuli/subj_files/student1_cityA.csv,./stimuli/frankfurt.jpg,./stimuli/street_plate1.png,KOCKA UTCA,stimuli/objects/062a.jpg,object,0,stimuli/objects/062a.jpg,stimuli/scenes/095b.jpg,stimuli/objects/062a.jpg,stimuli/objects/062b.jpg,stimuli/scenes/095a.jpg,dist2,target,lure,dist1,0,0,0,0,,,,,0,57,57,35,,,,,,,687.3412731999997,,,,,,688.3412192000542,,,,,,,,,,,,679.3246172000654,679.3246172000654,679.3246172000654,679.3246172000654,679.3246172000654,679.3246172000654,right,space,2.019558300031349,,,,,,,681.3748384000501,681.3748384000501,681.3748384000501,681.3748384000501,681.3748384000501,5.94054480001796,,,,,,,,student1,2022-10-25_13h10.18.953,Hippopolis_Learning,2022.2.4,59.97350369980095,
Hippopolis,stimuli/subj_files/student1_cityA.csv,./stimuli/frankfurt.jpg,./stimuli/street_plate1.png,PÉKSÉG UTCA,stimuli/scenes/073a.jpg,scene,2,stimuli/objects/059a.jpg,stimuli/objects/059a.jpg,stimuli/objects/046b.jpg,stimuli/objects/059b.jpg,stimuli/objects/046a.jpg,target,dist2,lure,dist1,0,0,0,0,,,,,0,58,58,61,,,,,,,691.7410526999738,,,,,,692.7417361000553,,,,,,,,,,,,688.3412192000542,688.3412192000542,688.3412192000542,688.3412192000542,688.3412192000542,688.3412192000542,left,None,3.3732782000442967,,,,,,,,,,,,,,,,,,,,student1,2022-10-25_13h10.18.953,Hippopolis_Learning,2022.2.4,59.97350369980095,
Hippopolis,stimuli/subj_files/student1_cityA.csv,./stimuli/frankfurt.jpg,./stimuli/street_plate1.png,FIÓK UTCA,stimuli/scenes/002a.jpg,scene,1,stimuli/scenes/014a.jpg,stimuli/scenes/014a.jpg,stimuli/objects/004a.jpg,stimuli/objects/004b.jpg,stimuli/scenes/014b.jpg,target,dist1,dist2,lure,0,0,0,0,,,,,0,59,59,73,,,,,,,694.0404082000023,,,,,,695.0410973000107,,,,,,,,,,,,692.7417361000553,692.7417361000553,692.7417361000553,692.7417361000553,692.7417361000553,692.7417361000553,right,None,1.2688686000183225,,,,,,,,,,,,,,,,,,,,student1,2022-10-25_13h10.18.953,Hippopolis_Learning,2022.2.4,59.97350369980095,
Hippopolis,stimuli/subj_files/student1_cityA.csv,./stimuli/frankfurt.jpg,./stimuli/street_plate1.png,KAKAS UTCA,stimuli/objects/002a.jpg,object,2,stimuli/scenes/074a.jpg,stimuli/scenes/074b.jpg,stimuli/scenes/074a.jpg,stimuli/scenes/070a.jpg,stimuli/scenes/070b.jpg,lure,target,dist1,dist2,0,0,0,0,,,,,0,60,60,24,,,,,,,697.5241043999558,,,,,,698.524638999952,,,,,,,,,,,,695.0410973000107,695.0410973000107,695.0410973000107,695.0410973000107,695.0410973000107,695.0410973000107,left,None,2.4571893999818712,,,,,,,,,,,,,,,,,,,,student1,2022-10-25_13h10.18.953,Hippopolis_Learning,2022.2.4,59.97350369980095,
Hippopolis,stimuli/subj_files/student1_cityA.csv,./stimuli/frankfurt.jpg,./stimuli/street_plate1.png,OROSZLÁN UTCA,stimuli/scenes/072a.jpg,scene,0,stimuli/scenes/072a.jpg,stimuli/scenes/072a.jpg,stimuli/scenes/072b.jpg,stimuli/scenes/027b.jpg,stimuli/scenes/027a.jpg,target,lure,dist2,dist1,0,0,0,0,,,,,0,61,61,66,,,,,,,700.1571334999753,,,,,,701.1577302999794,,,,,,,,,,,,698.524638999952,698.524638999952,698.524638999952,698.524638999952,698.524638999952,698.524638999952,right,None,1.6006798000307754,,,,,,,,,,,,,,,,,,,,student1,2022-10-25_13h10.18.953,Hippopolis_Learning,2022.2.4,59.97350369980095,
Hippopolis,stimuli/subj_files/student1_cityA.csv,./stimuli/frankfurt.jpg,./stimuli/street_plate1.png,MOTOR UTCA,stimuli/objects/097a.jpg,object,1,stimuli/objects/071a.jpg,stimuli/objects/015b.jpg,stimuli/objects/071b.jpg,stimuli/objects/071a.jpg,stimuli/objects/015a.jpg,dist2,lure,target,dist1,0,0,0,0,,,,,0,62,62,36,,,,,,,702.6072790999897,,,,,,703.6078769000014,,,,,,,,,,,,701.1577302999794,701.1577302999794,701.1577302999794,701.1577302999794,701.1577302999794,701.1577302999794,left,None,1.4181822000537068,,,,,,,,,,,,,,,,,,,,student1,2022-10-25_13h10.18.953,Hippopolis_Learning,2022.2.4,59.97350369980095,
Hippopolis,stimuli/subj_files/student1_cityA.csv,./stimuli/frankfurt.jpg,./stimuli/street_plate1.png,TOLLTARTÓ UTCA,stimuli/objects/032a.jpg,object,2,stimuli/scenes/119a.jpg,stimuli/scenes/119a.jpg,stimuli/scenes/104b.jpg,stimuli/scenes/104a.jpg,stimuli/scenes/119b.jpg,target,dist2,dist1,lure,0,0,0,0,,,,,0,63,63,67,,,,,,,705.473984100041,,,,,,706.4754862999544,,,,,,,,,,,,703.6078769000014,703.6078769000014,703.6078769000014,703.6078769000014,703.6078769000014,703.6078769000014,right,None,1.8357611000537872,,,,,,,,,,,,,,,,,,,,student1,2022-10-25_13h10.18.953,Hippopolis_Learning,2022.2.4,59.97350369980095,
Hippopolis,stimuli/subj_files/student1_cityA.csv,./stimuli/frankfurt.jpg,./stimuli/street_plate1.png,CUKOR UTCA,stimuli/objects/111a.jpg,object,0,stimuli/objects/111a.jpg,stimuli/objects/089b.jpg,stimuli/objects/111b.jpg,stimuli/objects/111a.jpg,stimuli/objects/089a.jpg,dist2,lure,target,dist1,0,0,0,0,,,,,0,64,64,30,,,,,,,708.0071417000145,,,,,,709.0075072000036,,,,,,,,,,,,706.4754862999544,706.4754862999544,706.4754862999544,706.4754862999544,706.4754862999544,706.4754862999544,left,None,1.5140319999773055,,,,,,,,,,,,,,,,,,,,student1,2022-10-25_13h10.18.953,Hippopolis_Learning,2022.2.4,59.97350369980095,
Hippopolis,stimuli/subj_files/student1_cityA.csv,./stimuli/frankfurt.jpg,./stimuli/street_plate1.png,SZOMSZÉD UTCA,stimuli/objects/026a.jpg,object,1,stimuli/objects/004a.jpg,stimuli/objects/027b.jpg,stimuli/objects/004b.jpg,stimuli/objects/004a.jpg,stimuli/objects/027a.jpg,dist2,lure,target,dist1,0,0,0,0,,,,,0,65,65,65,,,,,,,712.4258158999728,,,,,,,,,,,,,,,,,,709.0075072000036,709.0075072000036,709.0075072000036,709.0075072000036,709.0075072000036,709.0075072000036,right,None,3.3895082001108676,,,,,,,,,,,,,,,,,,,,student1,2022-10-25_13h10.18.953,Hippopolis_Learning,2022.2.4,59.97350369980095,
Hippopolis,stimuli/subj_files/student1_cityA.csv,./stimuli/frankfurt.jpg,./stimuli/street_plate1.png,DOMINÓ UTCA,stimuli/scenes/042a.jpg,scene,0,stimuli/scenes/042a.jpg,stimuli/scenes/042a.jpg,stimuli/scenes/042b.jpg,stimuli/objects/070a.jpg,stimuli/objects/070b.jpg,target,lure,dist1,dist2,0,0,0,0,,,,,0,66,66,63,,,,,,,715.8571343000513,,,,,,716.8576417999575,,,,,,,,,,,,713.4409718000097,713.4409718000097,713.4409718000097,713.4409718000097,713.4409718000097,713.4409718000097,left,None,2.394626200082712,,,,,,,,,,,,,,,,,,,,student1,2022-10-25_13h10.18.953,Hippopolis_Learning,2022.2.4,59.97350369980095,
Hippopolis,stimuli/subj_files/student1_cityA.csv,./stimuli/frankfurt.jpg,./stimuli/street_plate1.png,TOJÁS UTCA,stimuli/objects/021a.jpg,object,2,stimuli/scenes/034a.jpg,stimuli/scenes/034a.jpg,stimuli/objects/059a.jpg,stimuli/objects/059b.jpg,stimuli/scenes/034b.jpg,target,dist1,dist2,lure,0,0,0,0,,,,,0,67,67,37,,,,,,,719.3738666999852,,,,,,720.3745792000555,,,,,,,,,,,,716.8576417999575,716.8576417999575,716.8576417999575,716.8576417999575,716.8576417999575,716.8576417999575,left,None,2.4977466000709683,,,,,,,,,,,,,,,,,,,,student1,2022-10-25_13h10.18.953,Hippopolis_Learning,2022.2.4,59.97350369980095,
Hippopolis,stimuli/subj_files/student1_cityA.csv,./stimuli/frankfurt.jpg,./stimuli/street_plate1.png,PAPUCS UTCA,stimuli/scenes/051a.jpg,scene,0,stimuli/scenes/051a.jpg,stimuli/scenes/051b.jpg,stimuli/scenes/051a.jpg,stimuli/scenes/090a.jpg,stimuli/scenes/090b.jpg,lure,target,dist1,dist2,0,0,0,0,,,,,0,68,68,68,,,,,,,722.2903530000476,,,,,,723.2907403999707,,,,,,,,,,,,720.3745792000555,720.3745792000555,720.3745792000555,720.3745792000555,720.3745792000555,720.3745792000555,left,None,1.8960046999854967,,,,,,,,,,,,,,,,,,,,student1,2022-10-25_13h10.18.953,Hippopolis_Learning,2022.2.4,59.97350369980095,
Hippopolis,stimuli/subj_files/student1_cityA.csv,./stimuli/frankfurt.jpg,./stimuli/street_plate1.png,ÁLOM UTCA,stimuli/objects/070a.jpg,object,0,stimuli/objects/070a.jpg,stimuli/objects/070b.jpg,stimuli/objects/114b.jpg,stimuli/objects/114a.jpg,stimuli/objects/070a.jpg,lure,dist2,dist1,target,0,0,0,0,,,,,0,69,69,50,,,,,,,724.9068426999729,,,,,,725.9073953999905,,,,,,,,,,,,723.2907403999707,723.2907403999707,723.2907403999707,723.2907403999707,723.2907403999707,723.2907403999707,left,None,1.5910550000844523,,,,,,,,,,,,,,,,,,,,student1,2022-10-25_13h10.18.953,Hippopolis_Learning,2022.2.4,59.97350369980095,
Hippopolis,stimuli/subj_files/student1_cityA.csv,./stimuli/frankfurt.jpg,./stimuli/street_plate1.png,HEGEDŰ UTCA,stimuli/scenes/113a.jpg,scene,2,stimuli/objects/036a.jpg,stimuli/objects/036b.jpg,stimuli/scenes/059b.jpg,stimuli/scenes/059a.jpg,stimuli/objects/036a.jpg,lure,dist2,dist1,target,0,0,0,0,,,,,0,70,70,69,,,,,,,727.557074100012,,,,,,728.5573919999879,,,,,,,,,,,,725.9073953999905,725.9073953999905,725.9073953999905,725.9073953999905,725.9073953999905,725.9073953999905,left,None,1.6212456999346614,,,,,,,,,,,,,,,,,,,,student1,2022-10-25_13h10.18.953,Hippopolis_Learning,2022.2.4,59.97350369980095,
Hippopolis,stimuli/subj_files/student1_cityA.csv,./stimuli/frankfurt.jpg,./stimuli/street_plate1.png,KOKTÉL UTCA,stimuli/scenes/008a.jpg,scene,2,stimuli/objects/012a.jpg,stimuli/objects/036b.jpg,stimuli/objects/012b.jpg,stimuli/objects/036a.jpg,stimuli/objects/012a.jpg,dist2,lure,dist1,target,0,0,0,0,,,,,0,71,71,46,,,,,,,730.0400241999887,,,,,,731.0412489000009,,,,,,,,,,,,728.5573919999879,728.5573919999879,728.5573919999879,728.5573919999879,728.5573919999879,728.5573919999879,left,None,1.4616094999946654,,,,,,,,,,,,,,,,,,,,student1,2022-10-25_13h10.18.953,Hippopolis_Learning,2022.2.4,59.97350369980095,
Hippopolis,stimuli/subj_files/student1_cityA.csv,./stimuli/frankfurt.jpg,./stimuli/street_plate1.png,AKÁC UTCA,stimuli/scenes/081a.jpg,scene,2,stimuli/objects/055a.jpg,stimuli/objects/055b.jpg,stimuli/objects/107b.jpg,stimuli/objects/107a.jpg,stimuli/objects/055a.jpg,lure,dist2,dist1,target,0,0,0,0,,,,,0,72,72,74,,,,,,,731.9735670000082,,,,,,732.9743321000133,,,,,,,,,,,,731.0412489000009,731.0412489000009,731.0412489000009,731.0412489000009,731.0412489000009,731.0412489000009,left,None,0.9096414999803528,,,,,,,,,,,,,,,,,,,,student1,2022-10-25_13h10.18.953,Hippopolis_Learning,2022.2.4,59.97350369980095,
Hippopolis,stimuli/subj_files/student1_cityA.csv,./stimuli/frankfurt.jpg,./stimuli/street_plate1.png,SZIKLA UTCA,stimuli/scenes/111a.jpg,scene,2,stimuli/objects/073a.jpg,stimuli/objects/120b.jpg,stimuli/objects/120a.jpg,stimuli/objects/073a.jpg,stimuli/objects/073b.jpg,dist2,dist1,target,lure,0,0,0,0,,,,,0,73,73,1,,,,,,,735.2567298000213,,,,,,736.2577531000134,,,,,,,,,,,,732.9743321000133,732.9743321000133,732.9743321000133,732.9743321000133,732.9743321000133,732.9743321000133,left,None,2.265274400007911,,,,,,,,,,,,,,,,,,,,student1,2022-10-25_13h10.18.953,Hippopolis_Learning,2022.2.4,59.97350369980095,
Hippopolis,stimuli/subj_files/student1_cityA.csv,./stimuli/frankfurt.jpg,./stimuli/street_plate1.png,CITROM UTCA,stimuli/scenes/036a.jpg,scene,2,stimuli/objects/043a.jpg,stimuli/objects/043b.jpg,stimuli/objects/067a.jpg,stimuli/objects/043a.jpg,stimuli/objects/067b.jpg,lure,dist1,target,dist2,0,0,0,0,,,,,0,74,74,26,,,,,,,738.9400937999599,,,,,,739.940922299982,,,,,,,,,,,,736.2577531000134,736.2577531000134,736.2577531000134,736.2577531000134,736.2577531000134,736.2577531000134,left,None,2.6572286000009626,,,,,,,,,,,,,,,,,,,,student1,2022-10-25_13h10.18.953,Hippopolis_Learning,2022.2.4,59.97350369980095,
Hippopolis,stimuli/subj_files/student1_cityA.csv,./stimuli/frankfurt.jpg,./stimuli/street_plate1.png,EGÉR UTCA,stimuli/scenes/071a.jpg,scene,1,stimuli/scenes/116a.jpg,stimuli/scenes/116b.jpg,stimuli/scenes/116a.jpg,stimuli/scenes/009b.jpg,stimuli/scenes/009a.jpg,lure,target,dist2,dist1,0,0,0,0,,,,,0,75,75,29,,,,,,,743.4566198999528,,,,,,744.4570144000463,,,,,,,,,,,,739.940922299982,739.940922299982,739.940922299982,739.940922299982,739.940922299982,739.940922299982,left,None,3.4933737999526784,,,,,,,,,,,,,,,,,,,,student1,2022-10-25_13h10.18.953,Hippopolis_Learning,2022.2.4,59.97350369980095,
Hippopolis,stimuli/subj_files/student1_cityA.csv,./stimuli/frankfurt.jpg,./stimuli/street_plate1.png,KECSKE UTCA,stimuli/scenes/085a.jpg,scene,2,stimuli/objects/022a.jpg,stimuli/objects/022b.jpg,stimuli/objects/022a.jpg,stimuli/scenes/053a.jpg,stimuli/scenes/053b.jpg,lure,target,dist1,dist2,0,0,0,0,,,,,0,76,76,6,,,,,,,745.9731468999526,,,,,,746.9739767999854,,,,,,,,,,,,744.4570144000463,744.4570144000463,744.4570144000463,744.4570144000463,744.4570144000463,744.4570144000463,left,None,1.4899669999722391,,,,,,,,,,,,,,,,,,,,student1,2022-10-25_13h10.18.953,Hippopolis_Learning,2022.2.4,59.97350369980095,
Hippopolis,stimuli/subj_files/student1_cityA.csv,./stimuli/frankfurt.jpg,./stimuli/street_plate1.png,VÖDÖR UTCA,stimuli/scenes/055a.jpg,scene,1,stimuli/scenes/088a.jpg,stimuli/scenes/088b.jpg,stimuli/scenes/088a.jpg,stimuli/scenes/087b.jpg,stimuli/scenes/087a.jpg,lure,target,dist2,dist1,0,0,0,0,,,,,0,77,77,56,,,,,,,750.9732766000088,,,,,,751.9741933000041,,,,,,,,,,,,746.9739767999854,746.9739767999854,746.9739767999854,746.9739767999854,746.9739767999854,746.9739767999854,None,None,,750.9732766000088,750.9732766000088,750.9732766000088,750.9732766000088,750.9732766000088,750.9732766000088,,,,,,,,,,,,,,student1,2022-10-25_13h10.18.953,Hippopolis_Learning,2022.2.4,59.97350369980095,
Hippopolis,stimuli/subj_files/student1_cityA.csv,./stimuli/frankfurt.jpg,./stimuli/street_plate1.png,BAGOLY UTCA,stimuli/scenes/029a.jpg,scene,2,stimuli/objects/028a.jpg,stimuli/objects/028b.jpg,stimuli/objects/028a.jpg,stimuli/scenes/028a.jpg,stimuli/scenes/028b.jpg,lure,target,dist1,dist2,0,0,0,0,,,,,0,78,78,21,,,,,,,755.323061699979,,,,,,756.324155600043,,,,,,,,,,,,751.9741933000041,751.9741933000041,751.9741933000041,751.9741933000041,751.9741933000041,751.9741933000041,left,None,3.330999300000258,,,,,,,,,,,,,,,,,,,,student1,2022-10-25_13h10.18.953,Hippopolis_Learning,2022.2.4,59.97350369980095,
Hippopolis,stimuli/subj_files/student1_cityA.csv,./stimuli/frankfurt.jpg,./stimuli/street_plate1.png,LIGET UTCA,stimuli/objects/038a.jpg,object,2,stimuli/scenes/109a.jpg,stimuli/scenes/109a.jpg,stimuli/objects/055a.jpg,stimuli/scenes/109b.jpg,stimuli/objects/055b.jpg,target,dist1,lure,dist2,0,0,0,0,,,,,0,79,79,62,,,,,,,757.4403235999634,,,,,,758.4401417999761,,,,,,,,,,,,756.324155600043,756.324155600043,756.324155600043,756.324155600043,756.324155600043,756.324155600043,left,None,1.099888400058262,,,,,,,,,,,,,,,,,,,,student1,2022-10-25_13h10.18.953,Hippopolis_Learning,2022.2.4,59.97350369980095,
Camponello,stimuli/subj_files/student1_cityB.csv,./stimuli/leipzig.jpg,./stimuli/street_plate2.png,TÁNYÉR UTCA,stimuli/objects/118a.jpg,object,0,stimuli/objects/118a.jpg,stimuli/objects/102b.jpg,stimuli/objects/102a.jpg,stimuli/objects/118b.jpg,stimuli/objects/118a.jpg,dist2,dist1,lure,target,0,1,1,1,0,0,0,28,,,,,,,,,772.7846511000535,772.7846511000535,775.7645960999653,776.7805471000029,776.7805471000029,776.7805471000029,776.7805471000029,None,,,,,,,,,,,,,,,,,,,,,,,,,,,,,,,,,,25,758.4401417999761,758.4401417999761,space,14.275210699997842,,,student1,2022-10-25_13h10.18.953,Hippopolis_Learning,2022.2.4,59.97350369980095,
Camponello,stimuli/subj_files/student1_cityB.csv,./stimuli/leipzig.jpg,./stimuli/street_plate2.png,VITORLA UTCA,stimuli/scenes/110a.jpg,scene,1,stimuli/scenes/062a.jpg,stimuli/scenes/107a.jpg,stimuli/scenes/107b.jpg,stimuli/scenes/062b.jpg,stimuli/scenes/062a.jpg,dist1,dist2,lure,target,0,1,1,1,0,1,1,45,,,,,,,,,,,779.7562412000261,780.7600182000315,780.7600182000315,780.7600182000315,780.7600182000315,None,780.7600182000315,,,,,,,,,,,,,,,,,,,,,,,,,,,,,,,,,,,,,,,,student1,2022-10-25_13h10.18.953,Hippopolis_Learning,2022.2.4,59.97350369980095,
Camponello,stimuli/subj_files/student1_cityB.csv,./stimuli/leipzig.jpg,./stimuli/street_plate2.png,FÉSŰ UTCA,stimuli/objects/084a.jpg,object,0,stimuli/objects/084a.jpg,stimuli/objects/118b.jpg,stimuli/objects/118a.jpg,stimuli/objects/084a.jpg,stimuli/objects/084b.jpg,dist2,dist1,target,lure,0,1,1,1,0,2,2,23,,,,,,,,,,,783.7732137000421,784.7765714999987,784.7765714999987,784.7765714999987,784.7765714999987,None,784.7765714999987,,,,,,,,,,,,,,,,,,,,,,,,,,,,,,,,,,,,,,,,student1,2022-10-25_13h10.18.953,Hippopolis_Learning,2022.2.4,59.97350369980095,
Camponello,stimuli/subj_files/student1_cityB.csv,./stimuli/leipzig.jpg,./stimuli/street_plate2.png,FÉSZEK UTCA,stimuli/objects/042a.jpg,object,1,stimuli/objects/044a.jpg,stimuli/scenes/020b.jpg,stimuli/objects/044a.jpg,stimuli/scenes/020a.jpg,stimuli/objects/044b.jpg,dist2,target,dist1,lure,0,1,1,1,0,3,3,10,,,,,,,,,,,787.7893750000512,788.7962035000091,788.7962035000091,788.7962035000091,788.7962035000091,None,788.7962035000091,,,,,,,,,,,,,,,,,,,,,,,,,,,,,,,,,,,,,,,,student1,2022-10-25_13h10.18.953,Hippopolis_Learning,2022.2.4,59.97350369980095,
Camponello,stimuli/subj_files/student1_cityB.csv,./stimuli/leipzig.jpg,./stimuli/street_plate2.png,TULIPÁN UTCA,stimuli/objects/058a.jpg,object,0,stimuli/objects/058a.jpg,stimuli/objects/117a.jpg,stimuli/objects/117b.jpg,stimuli/objects/058b.jpg,stimuli/objects/058a.jpg,dist1,dist2,lure,target,0,1,1,1,0,4,4,1,,,,,,,,,,,791.8062258999562,792.8198211999843,792.8198211999843,792.8198211999843,792.8198211999843,None,792.8198211999843,,,,,,,,,,,,,,,,,,,,,,,,,,,,,,,,,,,,,,,,student1,2022-10-25_13h10.18.953,Hippopolis_Learning,2022.2.4,59.97350369980095,
