CityName,StimuliFile,CityImage,StreetSign,Cue,Image,Category,Novelty,UpdateImage,TestImage1,TestImage2,TestImage3,TestImage4,TestImage1Type,TestImage2Type,TestImage3Type,TestImage4Type,CityBlock.thisRepN,CityBlock.thisTrialN,CityBlock.thisN,CityBlock.thisIndex,LearningTrials.thisRepN,LearningTrials.thisTrialN,LearningTrials.thisN,LearningTrials.thisIndex,learning_instructions_text.started,learning_instructions_text.stopped,intro_key.keys,intro_key.rt,intro_key.started,intro_key.stopped,cityname_text.started,cityname_text.stopped,city_image.started,city_image.stopped,fx_cross.started,fx_cross.stopped,plate_updating.started,plate_updating.stopped,city_text_updating.started,city_text_updating.stopped,street_text_updating.started,street_text_updating.stopped,test_image1.started,test_image1.stopped,test_image2.started,test_image2.stopped,test_image3.started,test_image3.stopped,test_image4.started,test_image4.stopped,button_d.started,button_d.stopped,button_f.started,button_f.stopped,button_j.started,button_j.stopped,button_k.started,button_k.stopped,key_resp.keys,key_resp.rt,key_resp.started,key_resp.stopped,test_resp,short_break_text.started,short_break_text.stopped,short_break_key.keys,short_break_key.started,short_break_key.stopped,short_break_key.rt,n_targets,n_lures,n_dist1s,n_dist2s,break_text.started,break_text.stopped,break_key_resp.keys,break_key_resp.rt,break_key_resp.started,break_key_resp.stopped,end_text.started,end_text.stopped,participant,date,expName,psychopyVersion,frameRate,
,,,,,,,,,,,,,,,,,,,,,,,,,13.11049869999988,None,space,8.475666800019098,13.11049869999988,None,,,,,,,,,,,,,,,,,,,,,,,,,,,,,,,,,,,,,,,,,,,,,,,,,,,,student1,2022-10-20_16h11.08.893,Hippopolis_4AFCT,2021.1.4,59.94229953924141,
Camponello,stimuli/subj_files/student1_cityB.csv,./stimuli/leipzig.jpg,./stimuli/street_plate2.png,RIBIZLI UTCA,stimuli/objects/088a.jpg,object,0,stimuli/objects/088a.jpg,stimuli/objects/088b.jpg,stimuli/objects/065a.jpg,stimuli/objects/088a.jpg,stimuli/objects/065b.jpg,lure,dist1,target,dist2,0,0,0,1,0,0,0,34,,,,,,,21.68920949997846,None,21.68920949997846,None,24.624400999979116,None,25.67720740000368,None,25.67720740000368,None,25.67720740000368,None,25.67720740000368,None,25.67720740000368,None,25.67720740000368,None,25.67720740000368,None,25.67720740000368,None,25.67720740000368,None,25.67720740000368,None,25.67720740000368,None,j,1.8286284000205342,25.67720740000368,None,target,None,None,None,None,None,,,,,,,,,,,,,,student1,2022-10-20_16h11.08.893,Hippopolis_4AFCT,2021.1.4,59.94229953924141,
Camponello,stimuli/subj_files/student1_cityB.csv,./stimuli/leipzig.jpg,./stimuli/street_plate2.png,FÜZET UTCA,stimuli/scenes/047a.jpg,scene,1,stimuli/scenes/012a.jpg,stimuli/scenes/012b.jpg,stimuli/objects/010b.jpg,stimuli/scenes/012a.jpg,stimuli/objects/010a.jpg,lure,dist2,target,dist1,0,0,0,1,0,1,1,56,,,,,,,,,,,27.530899899982614,None,28.57065059998422,None,28.57065059998422,None,28.57065059998422,None,28.57065059998422,None,28.57065059998422,None,28.57065059998422,None,28.57065059998422,None,28.57065059998422,None,28.57065059998422,None,28.57065059998422,None,28.57065059998422,None,None,,28.57065059998422,None,invalid,None,None,None,None,None,,,,,,,,,,,,,,student1,2022-10-20_16h11.08.893,Hippopolis_4AFCT,2021.1.4,59.94229953924141,
Camponello,stimuli/subj_files/student1_cityB.csv,./stimuli/leipzig.jpg,./stimuli/street_plate2.png,VÁSÁR UTCA,stimuli/scenes/089a.jpg,scene,0,stimuli/scenes/089a.jpg,stimuli/scenes/089a.jpg,stimuli/scenes/089b.jpg,stimuli/scenes/082b.jpg,stimuli/scenes/082a.jpg,target,lure,dist2,dist1,0,0,0,1,0,2,2,41,,,,,,,,,,,33.546826599980704,None,34.58079879998695,None,34.58079879998695,None,34.58079879998695,None,34.58079879998695,None,34.58079879998695,None,34.58079879998695,None,34.58079879998695,None,34.58079879998695,None,34.58079879998695,None,34.58079879998695,None,34.58079879998695,None,d,3.217638900008751,34.58079879998695,None,target,None,None,None,None,None,,,,,,,,,,,,,,student1,2022-10-20_16h11.08.893,Hippopolis_4AFCT,2021.1.4,59.94229953924141,
Camponello,stimuli/subj_files/student1_cityB.csv,./stimuli/leipzig.jpg,./stimuli/street_plate2.png,TELEFON UTCA,stimuli/scenes/017a.jpg,scene,0,stimuli/scenes/017a.jpg,stimuli/objects/094b.jpg,stimuli/scenes/017b.jpg,stimuli/scenes/017a.jpg,stimuli/objects/094a.jpg,dist2,lure,target,dist1,0,0,0,1,0,3,3,27,,,,,,,,,,,37.83016939999652,None,38.86721409999882,None,38.86721409999882,None,38.86721409999882,None,38.86721409999882,None,38.86721409999882,None,38.86721409999882,None,38.86721409999882,None,38.86721409999882,None,38.86721409999882,None,38.86721409999882,None,38.86721409999882,None,j,3.266172799980268,38.86721409999882,None,target,None,None,None,None,None,,,,,,,,,,,,,,student1,2022-10-20_16h11.08.893,Hippopolis_4AFCT,2021.1.4,59.94229953924141,
Camponello,stimuli/subj_files/student1_cityB.csv,./stimuli/leipzig.jpg,./stimuli/street_plate2.png,KESZTYŰ UTCA,stimuli/scenes/040a.jpg,scene,1,stimuli/scenes/105a.jpg,stimuli/objects/096b.jpg,stimuli/scenes/105a.jpg,stimuli/scenes/105b.jpg,stimuli/objects/096a.jpg,dist2,target,lure,dist1,0,0,0,1,0,4,4,16,,,,,,,,,,,42.163878999999724,None,43.19707759999437,None,43.19707759999437,None,43.19707759999437,None,43.19707759999437,None,43.19707759999437,None,43.19707759999437,None,43.19707759999437,None,43.19707759999437,None,43.19707759999437,None,43.19707759999437,None,43.19707759999437,None,f,3.9246246999828145,43.19707759999437,None,target,None,None,None,None,None,,,,,,,,,,,,,,student1,2022-10-20_16h11.08.893,Hippopolis_4AFCT,2021.1.4,59.94229953924141,
Camponello,stimuli/subj_files/student1_cityB.csv,./stimuli/leipzig.jpg,./stimuli/street_plate2.png,KÍGYÓ UTCA,stimuli/scenes/032a.jpg,scene,0,stimuli/scenes/032a.jpg,stimuli/scenes/032a.jpg,stimuli/objects/088a.jpg,stimuli/scenes/032b.jpg,stimuli/objects/088b.jpg,target,dist1,lure,dist2,0,0,0,1,0,5,5,76,,,,,,,,,,,47.14731010000105,None,48.17704389998107,None,48.17704389998107,None,48.17704389998107,None,48.17704389998107,None,48.17704389998107,None,48.17704389998107,None,48.17704389998107,None,48.17704389998107,None,48.17704389998107,None,48.17704389998107,None,48.17704389998107,None,d,2.568775199993979,48.17704389998107,None,target,None,None,None,None,None,,,,,,,,,,,,,,student1,2022-10-20_16h11.08.893,Hippopolis_4AFCT,2021.1.4,59.94229953924141,
Camponello,stimuli/subj_files/student1_cityB.csv,./stimuli/leipzig.jpg,./stimuli/street_plate2.png,LABDA UTCA,stimuli/objects/082a.jpg,object,0,stimuli/objects/082a.jpg,stimuli/scenes/049a.jpg,stimuli/scenes/049b.jpg,stimuli/objects/082b.jpg,stimuli/objects/082a.jpg,dist1,dist2,lure,target,0,0,0,1,0,6,6,72,,,,,,,,,,,50.76336739998078,None,51.80469570000423,None,51.80469570000423,None,51.80469570000423,None,51.80469570000423,None,51.80469570000423,None,51.80469570000423,None,51.80469570000423,None,51.80469570000423,None,51.80469570000423,None,51.80469570000423,None,51.80469570000423,None,k,2.2851920000102837,51.80469570000423,None,target,None,None,None,None,None,,,,,,,,,,,,,,student1,2022-10-20_16h11.08.893,Hippopolis_4AFCT,2021.1.4,59.94229953924141,
Camponello,stimuli/subj_files/student1_cityB.csv,./stimuli/leipzig.jpg,./stimuli/street_plate2.png,ZONGORA UTCA,stimuli/objects/034a.jpg,object,0,stimuli/objects/034a.jpg,stimuli/objects/034a.jpg,stimuli/objects/034b.jpg,stimuli/objects/016b.jpg,stimuli/objects/016a.jpg,target,lure,dist2,dist1,0,0,0,1,0,7,7,31,,,,,,,,,,,54.1137678999803,None,55.14499929998419,None,55.14499929998419,None,55.14499929998419,None,55.14499929998419,None,55.14499929998419,None,55.14499929998419,None,55.14499929998419,None,55.14499929998419,None,55.14499929998419,None,55.14499929998419,None,55.14499929998419,None,d,1.7994497999898158,55.14499929998419,None,target,None,None,None,None,None,,,,,,,,,,,,,,student1,2022-10-20_16h11.08.893,Hippopolis_4AFCT,2021.1.4,59.94229953924141,
Camponello,stimuli/subj_files/student1_cityB.csv,./stimuli/leipzig.jpg,./stimuli/street_plate2.png,TÁNYÉR UTCA,stimuli/objects/118a.jpg,object,0,stimuli/objects/118a.jpg,stimuli/objects/102b.jpg,stimuli/objects/102a.jpg,stimuli/objects/118b.jpg,stimuli/objects/118a.jpg,dist2,dist1,lure,target,0,0,0,1,0,8,8,28,,,,,,,,,,,56.96308799998951,None,58.00390869998955,None,58.00390869998955,None,58.00390869998955,None,58.00390869998955,None,58.00390869998955,None,58.00390869998955,None,58.00390869998955,None,58.00390869998955,None,58.00390869998955,None,58.00390869998955,None,58.00390869998955,None,j,4.264030599995749,58.00390869998955,None,lure,None,None,None,None,None,,,,,,,,,,,,,,student1,2022-10-20_16h11.08.893,Hippopolis_4AFCT,2021.1.4,59.94229953924141,
Camponello,stimuli/subj_files/student1_cityB.csv,./stimuli/leipzig.jpg,./stimuli/street_plate2.png,KAKAÓ UTCA,stimuli/objects/099a.jpg,object,1,stimuli/objects/119a.jpg,stimuli/scenes/086a.jpg,stimuli/objects/119a.jpg,stimuli/scenes/086b.jpg,stimuli/objects/119b.jpg,dist1,target,dist2,lure,0,0,0,1,0,9,9,0,,,,,,,,,,,62.296425699983956,None,63.325603899982525,None,63.325603899982525,None,63.325603899982525,None,63.325603899982525,None,63.325603899982525,None,63.325603899982525,None,63.325603899982525,None,63.325603899982525,None,63.325603899982525,None,63.325603899982525,None,63.325603899982525,None,f,3.471022300014738,63.325603899982525,None,target,None,None,None,None,None,,,,,,,,,,,,,,student1,2022-10-20_16h11.08.893,Hippopolis_4AFCT,2021.1.4,59.94229953924141,
Camponello,stimuli/subj_files/student1_cityB.csv,./stimuli/leipzig.jpg,./stimuli/street_plate2.png,PALACK UTCA,stimuli/scenes/033a.jpg,scene,1,stimuli/scenes/107a.jpg,stimuli/objects/119b.jpg,stimuli/scenes/107b.jpg,stimuli/objects/119a.jpg,stimuli/scenes/107a.jpg,dist2,lure,dist1,target,0,0,0,1,0,10,10,44,,,,,,,,,,,66.81317869998747,None,67.84791189999669,None,67.84791189999669,None,67.84791189999669,None,67.84791189999669,None,67.84791189999669,None,67.84791189999669,None,67.84791189999669,None,67.84791189999669,None,67.84791189999669,None,67.84791189999669,None,67.84791189999669,None,None,,67.84791189999669,None,invalid,None,None,None,None,None,,,,,,,,,,,,,,student1,2022-10-20_16h11.08.893,Hippopolis_4AFCT,2021.1.4,59.94229953924141,
Camponello,stimuli/subj_files/student1_cityB.csv,./stimuli/leipzig.jpg,./stimuli/street_plate2.png,BETON UTCA,stimuli/objects/104a.jpg,object,2,stimuli/scenes/063a.jpg,stimuli/scenes/063b.jpg,stimuli/scenes/063a.jpg,stimuli/objects/054a.jpg,stimuli/objects/054b.jpg,lure,target,dist1,dist2,0,0,0,1,0,11,11,52,,,,,,,,,,,72.83020100000431,None,73.86355879998882,None,73.86355879998882,None,73.86355879998882,None,73.86355879998882,None,73.86355879998882,None,73.86355879998882,None,73.86355879998882,None,73.86355879998882,None,73.86355879998882,None,73.86355879998882,None,73.86355879998882,None,k,3.579131000005873,73.86355879998882,None,dist2,None,None,None,None,None,,,,,,,,,,,,,,student1,2022-10-20_16h11.08.893,Hippopolis_4AFCT,2021.1.4,59.94229953924141,
Camponello,stimuli/subj_files/student1_cityB.csv,./stimuli/leipzig.jpg,./stimuli/street_plate2.png,TENISZ UTCA,stimuli/objects/102a.jpg,object,0,stimuli/objects/102a.jpg,stimuli/objects/102b.jpg,stimuli/objects/102a.jpg,stimuli/scenes/038a.jpg,stimuli/scenes/038b.jpg,lure,target,dist1,dist2,0,0,0,1,0,12,12,75,,,,,,,,,,,77.46304040000541,None,78.48505709998426,None,78.48505709998426,None,78.48505709998426,None,78.48505709998426,None,78.48505709998426,None,78.48505709998426,None,78.48505709998426,None,78.48505709998426,None,78.48505709998426,None,78.48505709998426,None,78.48505709998426,None,f,2.7860379999910947,78.48505709998426,None,target,None,None,None,None,None,,,,,,,,,,,,,,student1,2022-10-20_16h11.08.893,Hippopolis_4AFCT,2021.1.4,59.94229953924141,
Camponello,stimuli/subj_files/student1_cityB.csv,./stimuli/leipzig.jpg,./stimuli/street_plate2.png,BANÁN UTCA,stimuli/scenes/045a.jpg,scene,0,stimuli/scenes/045a.jpg,stimuli/scenes/045b.jpg,stimuli/scenes/045a.jpg,stimuli/scenes/112b.jpg,stimuli/scenes/112a.jpg,lure,target,dist2,dist1,0,0,0,1,0,13,13,57,,,,,,,,,,,81.29625699997996,None,82.34119370000553,None,82.34119370000553,None,82.34119370000553,None,82.34119370000553,None,82.34119370000553,None,82.34119370000553,None,82.34119370000553,None,82.34119370000553,None,82.34119370000553,None,82.34119370000553,None,82.34119370000553,None,f,2.3879279000102542,82.34119370000553,None,target,None,None,None,None,None,,,,,,,,,,,,,,student1,2022-10-20_16h11.08.893,Hippopolis_4AFCT,2021.1.4,59.94229953924141,
Camponello,stimuli/subj_files/student1_cityB.csv,./stimuli/leipzig.jpg,./stimuli/street_plate2.png,ORVOS UTCA,stimuli/objects/016a.jpg,object,0,stimuli/objects/016a.jpg,stimuli/scenes/089a.jpg,stimuli/scenes/089b.jpg,stimuli/objects/016a.jpg,stimuli/objects/016b.jpg,dist1,dist2,target,lure,0,0,0,1,0,14,14,4,,,,,,,,,,,84.74602140000206,None,85.75824130000547,None,85.75824130000547,None,85.75824130000547,None,85.75824130000547,None,85.75824130000547,None,85.75824130000547,None,85.75824130000547,None,85.75824130000547,None,85.75824130000547,None,85.75824130000547,None,85.75824130000547,None,j,3.2026914000161923,85.75824130000547,None,target,None,None,None,None,None,,,,,,,,,,,,,,student1,2022-10-20_16h11.08.893,Hippopolis_4AFCT,2021.1.4,59.94229953924141,
Camponello,stimuli/subj_files/student1_cityB.csv,./stimuli/leipzig.jpg,./stimuli/street_plate2.png,BOHÓC UTCA,stimuli/objects/064a.jpg,object,0,stimuli/objects/064a.jpg,stimuli/objects/040b.jpg,stimuli/objects/040a.jpg,stimuli/objects/064a.jpg,stimuli/objects/064b.jpg,dist2,dist1,target,lure,0,0,0,1,0,15,15,17,,,,,,,,,,,88.979110699991,None,90.01961200000369,None,90.01961200000369,None,90.01961200000369,None,90.01961200000369,None,90.01961200000369,None,90.01961200000369,None,90.01961200000369,None,90.01961200000369,None,90.01961200000369,None,90.01961200000369,None,90.01961200000369,None,j,2.6108182999887504,90.01961200000369,None,target,None,None,None,None,None,,,,,,,,,,,,,,student1,2022-10-20_16h11.08.893,Hippopolis_4AFCT,2021.1.4,59.94229953924141,
Camponello,stimuli/subj_files/student1_cityB.csv,./stimuli/leipzig.jpg,./stimuli/street_plate2.png,KOSÁR UTCA,stimuli/objects/057a.jpg,object,2,stimuli/scenes/001a.jpg,stimuli/scenes/001a.jpg,stimuli/scenes/001b.jpg,stimuli/objects/005b.jpg,stimuli/objects/005a.jpg,target,lure,dist2,dist1,0,0,0,1,0,16,16,38,,,,,,,,,,,92.66248489997815,None,93.69549879999249,None,93.69549879999249,None,93.69549879999249,None,93.69549879999249,None,93.69549879999249,None,93.69549879999249,None,93.69549879999249,None,93.69549879999249,None,93.69549879999249,None,93.69549879999249,None,93.69549879999249,None,d,3.836472099996172,93.69549879999249,None,target,None,None,None,None,None,,,,,,,,,,,,,,student1,2022-10-20_16h11.08.893,Hippopolis_4AFCT,2021.1.4,59.94229953924141,
Camponello,stimuli/subj_files/student1_cityB.csv,./stimuli/leipzig.jpg,./stimuli/street_plate2.png,LÉPCSŐ UTCA,stimuli/objects/049a.jpg,object,0,stimuli/objects/049a.jpg,stimuli/scenes/076b.jpg,stimuli/scenes/076a.jpg,stimuli/objects/049b.jpg,stimuli/objects/049a.jpg,dist2,dist1,lure,target,0,0,0,1,0,17,17,43,,,,,,,,,,,97.56296819998533,None,98.59574359998805,None,98.59574359998805,None,98.59574359998805,None,98.59574359998805,None,98.59574359998805,None,98.59574359998805,None,98.59574359998805,None,98.59574359998805,None,98.59574359998805,None,98.59574359998805,None,98.59574359998805,None,k,3.186277800006792,98.59574359998805,None,target,None,None,None,None,None,,,,,,,,,,,,,,student1,2022-10-20_16h11.08.893,Hippopolis_4AFCT,2021.1.4,59.94229953924141,
Camponello,stimuli/subj_files/student1_cityB.csv,./stimuli/leipzig.jpg,./stimuli/street_plate2.png,SZAXOFON UTCA,stimuli/objects/117a.jpg,object,0,stimuli/objects/117a.jpg,stimuli/scenes/021a.jpg,stimuli/objects/117a.jpg,stimuli/objects/117b.jpg,stimuli/scenes/021b.jpg,dist1,target,lure,dist2,0,0,0,1,0,18,18,20,,,,,,,,,,,101.81227369999397,None,102.84852269999101,None,102.84852269999101,None,102.84852269999101,None,102.84852269999101,None,102.84852269999101,None,102.84852269999101,None,102.84852269999101,None,102.84852269999101,None,102.84852269999101,None,102.84852269999101,None,102.84852269999101,None,f,2.434179200005019,102.84852269999101,None,target,None,None,None,None,None,,,,,,,,,,,,,,student1,2022-10-20_16h11.08.893,Hippopolis_4AFCT,2021.1.4,59.94229953924141,
Camponello,stimuli/subj_files/student1_cityB.csv,./stimuli/leipzig.jpg,./stimuli/street_plate2.png,LEGELŐ UTCA,stimuli/objects/030a.jpg,object,0,stimuli/objects/030a.jpg,stimuli/objects/039a.jpg,stimuli/objects/030a.jpg,stimuli/objects/030b.jpg,stimuli/objects/039b.jpg,dist1,target,lure,dist2,0,0,0,1,0,19,19,70,,,,,,,,,,,105.31291249999776,None,106.3538925999892,None,106.3538925999892,None,106.3538925999892,None,106.3538925999892,None,106.3538925999892,None,106.3538925999892,None,106.3538925999892,None,106.3538925999892,None,106.3538925999892,None,106.3538925999892,None,106.3538925999892,None,f,3.2335463000054006,106.3538925999892,None,target,None,None,None,None,None,,,,,,,,,,,,,,student1,2022-10-20_16h11.08.893,Hippopolis_4AFCT,2021.1.4,59.94229953924141,
Camponello,stimuli/subj_files/student1_cityB.csv,./stimuli/leipzig.jpg,./stimuli/street_plate2.png,MAJOM UTCA,stimuli/objects/018a.jpg,object,0,stimuli/objects/018a.jpg,stimuli/objects/018a.jpg,stimuli/scenes/092b.jpg,stimuli/objects/018b.jpg,stimuli/scenes/092a.jpg,target,dist2,lure,dist1,0,0,0,1,0,20,20,78,,,,,,,,,,,109.6121914999967,None,110.65828079998028,None,110.65828079998028,None,110.65828079998028,None,110.65828079998028,None,110.65828079998028,None,110.65828079998028,None,110.65828079998028,None,110.65828079998028,None,110.65828079998028,None,110.65828079998028,None,110.65828079998028,None,d,2.8741685999848414,110.65828079998028,None,target,None,None,None,None,None,,,,,,,,,,,,,,student1,2022-10-20_16h11.08.893,Hippopolis_4AFCT,2021.1.4,59.94229953924141,
Camponello,stimuli/subj_files/student1_cityB.csv,./stimuli/leipzig.jpg,./stimuli/street_plate2.png,TISZTÁS UTCA,stimuli/objects/116a.jpg,object,0,stimuli/objects/116a.jpg,stimuli/objects/058a.jpg,stimuli/objects/116a.jpg,stimuli/objects/116b.jpg,stimuli/objects/058b.jpg,dist1,target,lure,dist2,0,0,0,1,0,21,21,18,,,,,,,,,,,113.562296899996,None,114.59579249998205,None,114.59579249998205,None,114.59579249998205,None,114.59579249998205,None,114.59579249998205,None,114.59579249998205,None,114.59579249998205,None,114.59579249998205,None,114.59579249998205,None,114.59579249998205,None,114.59579249998205,None,f,3.571435099991504,114.59579249998205,None,target,None,None,None,None,None,,,,,,,,,,,,,,student1,2022-10-20_16h11.08.893,Hippopolis_4AFCT,2021.1.4,59.94229953924141,
Camponello,stimuli/subj_files/student1_cityB.csv,./stimuli/leipzig.jpg,./stimuli/street_plate2.png,TOLMÁCS UTCA,stimuli/scenes/082a.jpg,scene,0,stimuli/scenes/082a.jpg,stimuli/scenes/082b.jpg,stimuli/objects/081b.jpg,stimuli/objects/081a.jpg,stimuli/scenes/082a.jpg,lure,dist2,dist1,target,0,0,0,1,0,22,22,2,,,,,,,,,,,118.1953869999852,None,119.21671829998377,None,119.21671829998377,None,119.21671829998377,None,119.21671829998377,None,119.21671829998377,None,119.21671829998377,None,119.21671829998377,None,119.21671829998377,None,119.21671829998377,None,119.21671829998377,None,119.21671829998377,None,k,3.0998741000075825,119.21671829998377,None,target,None,None,None,None,None,,,,,,,,,,,,,,student1,2022-10-20_16h11.08.893,Hippopolis_4AFCT,2021.1.4,59.94229953924141,
Camponello,stimuli/subj_files/student1_cityB.csv,./stimuli/leipzig.jpg,./stimuli/street_plate2.png,SZOBOR UTCA,stimuli/objects/031a.jpg,object,1,stimuli/objects/010a.jpg,stimuli/objects/010a.jpg,stimuli/objects/044b.jpg,stimuli/objects/044a.jpg,stimuli/objects/010b.jpg,target,dist2,dist1,lure,0,0,0,1,0,23,23,79,,,,,,,,,,,122.3453165999963,None,123.37123359998805,None,123.37123359998805,None,123.37123359998805,None,123.37123359998805,None,123.37123359998805,None,123.37123359998805,None,123.37123359998805,None,123.37123359998805,None,123.37123359998805,None,123.37123359998805,None,123.37123359998805,None,d,2.6871025000000373,123.37123359998805,None,target,None,None,None,None,None,,,,,,,,,,,,,,student1,2022-10-20_16h11.08.893,Hippopolis_4AFCT,2021.1.4,59.94229953924141,
Camponello,stimuli/subj_files/student1_cityB.csv,./stimuli/leipzig.jpg,./stimuli/street_plate2.png,ASZTAL UTCA,stimuli/scenes/120a.jpg,scene,2,stimuli/objects/035a.jpg,stimuli/scenes/079b.jpg,stimuli/scenes/079a.jpg,stimuli/objects/035b.jpg,stimuli/objects/035a.jpg,dist2,dist1,lure,target,0,0,0,1,0,24,24,24,,,,,,,,,,,126.07923319999827,None,127.1164076999994,None,127.1164076999994,None,127.1164076999994,None,127.1164076999994,None,127.1164076999994,None,127.1164076999994,None,127.1164076999994,None,127.1164076999994,None,127.1164076999994,None,127.1164076999994,None,127.1164076999994,None,k,2.128809599991655,127.1164076999994,None,target,None,None,None,None,None,,,,,,,,,,,,,,student1,2022-10-20_16h11.08.893,Hippopolis_4AFCT,2021.1.4,59.94229953924141,
Camponello,stimuli/subj_files/student1_cityB.csv,./stimuli/leipzig.jpg,./stimuli/street_plate2.png,LOVAGLÁS UTCA,stimuli/objects/019a.jpg,object,0,stimuli/objects/019a.jpg,stimuli/objects/019b.jpg,stimuli/objects/019a.jpg,stimuli/scenes/017b.jpg,stimuli/scenes/017a.jpg,lure,target,dist2,dist1,0,0,0,1,0,25,25,53,,,,,,,,,,,129.26172769998084,None,130.28627609999967,None,130.28627609999967,None,130.28627609999967,None,130.28627609999967,None,130.28627609999967,None,130.28627609999967,None,130.28627609999967,None,130.28627609999967,None,130.28627609999967,None,130.28627609999967,None,130.28627609999967,None,f,4.503528000001097,130.28627609999967,None,target,None,None,None,None,None,,,,,,,,,,,,,,student1,2022-10-20_16h11.08.893,Hippopolis_4AFCT,2021.1.4,59.94229953924141,
Camponello,stimuli/subj_files/student1_cityB.csv,./stimuli/leipzig.jpg,./stimuli/street_plate2.png,SZÖCSKE UTCA,stimuli/scenes/026a.jpg,scene,2,stimuli/objects/061a.jpg,stimuli/scenes/063a.jpg,stimuli/objects/061a.jpg,stimuli/scenes/063b.jpg,stimuli/objects/061b.jpg,dist1,target,dist2,lure,0,0,0,1,0,26,26,71,,,,,,,,,,,134.8124547000043,None,135.83524139999645,None,135.83524139999645,None,135.83524139999645,None,135.83524139999645,None,135.83524139999645,None,135.83524139999645,None,135.83524139999645,None,135.83524139999645,None,135.83524139999645,None,135.83524139999645,None,135.83524139999645,None,f,3.960267299989937,135.83524139999645,None,target,None,None,None,None,None,,,,,,,,,,,,,,student1,2022-10-20_16h11.08.893,Hippopolis_4AFCT,2021.1.4,59.94229953924141,
Camponello,stimuli/subj_files/student1_cityB.csv,./stimuli/leipzig.jpg,./stimuli/street_plate2.png,SAJTÓ UTCA,stimuli/scenes/112a.jpg,scene,0,stimuli/scenes/112a.jpg,stimuli/objects/018a.jpg,stimuli/scenes/112b.jpg,stimuli/scenes/112a.jpg,stimuli/objects/018b.jpg,dist1,lure,target,dist2,0,0,0,1,0,27,27,15,,,,,,,,,,,139.8122829000058,None,140.82548689999385,None,140.82548689999385,None,140.82548689999385,None,140.82548689999385,None,140.82548689999385,None,140.82548689999385,None,140.82548689999385,None,140.82548689999385,None,140.82548689999385,None,140.82548689999385,None,140.82548689999385,None,j,2.8031594999774825,140.82548689999385,None,target,None,None,None,None,None,,,,,,,,,,,,,,student1,2022-10-20_16h11.08.893,Hippopolis_4AFCT,2021.1.4,59.94229953924141,
Camponello,stimuli/subj_files/student1_cityB.csv,./stimuli/leipzig.jpg,./stimuli/street_plate2.png,TORONY UTCA,stimuli/scenes/094a.jpg,scene,2,stimuli/objects/054a.jpg,stimuli/scenes/001a.jpg,stimuli/scenes/001b.jpg,stimuli/objects/054b.jpg,stimuli/objects/054a.jpg,dist1,dist2,lure,target,0,0,0,1,0,28,28,62,,,,,,,,,,,143.66216789997998,None,144.6771017999854,None,144.6771017999854,None,144.6771017999854,None,144.6771017999854,None,144.6771017999854,None,144.6771017999854,None,144.6771017999854,None,144.6771017999854,None,144.6771017999854,None,144.6771017999854,None,144.6771017999854,None,j,3.9682928000111133,144.6771017999854,None,lure,None,None,None,None,None,,,,,,,,,,,,,,student1,2022-10-20_16h11.08.893,Hippopolis_4AFCT,2021.1.4,59.94229953924141,
Camponello,stimuli/subj_files/student1_cityB.csv,./stimuli/leipzig.jpg,./stimuli/street_plate2.png,MANDARIN UTCA,stimuli/scenes/075a.jpg,scene,0,stimuli/scenes/075a.jpg,stimuli/objects/072a.jpg,stimuli/objects/072b.jpg,stimuli/scenes/075b.jpg,stimuli/scenes/075a.jpg,dist1,dist2,lure,target,0,0,0,1,0,29,29,37,,,,,,,,,,,148.66208379997988,None,149.69688999999198,None,149.69688999999198,None,149.69688999999198,None,149.69688999999198,None,149.69688999999198,None,149.69688999999198,None,149.69688999999198,None,149.69688999999198,None,149.69688999999198,None,149.69688999999198,None,149.69688999999198,None,k,2.1478201000136323,149.69688999999198,None,target,None,None,None,None,None,,,,,,,,,,,,,,student1,2022-10-20_16h11.08.893,Hippopolis_4AFCT,2021.1.4,59.94229953924141,
Camponello,stimuli/subj_files/student1_cityB.csv,./stimuli/leipzig.jpg,./stimuli/street_plate2.png,KATONA UTCA,stimuli/objects/077a.jpg,object,0,stimuli/objects/077a.jpg,stimuli/objects/077a.jpg,stimuli/scenes/115a.jpg,stimuli/scenes/115b.jpg,stimuli/objects/077b.jpg,target,dist1,dist2,lure,0,0,0,1,0,30,30,74,,,,,,,,,,,151.8619298999838,None,152.88792019998073,None,152.88792019998073,None,152.88792019998073,None,152.88792019998073,None,152.88792019998073,None,152.88792019998073,None,152.88792019998073,None,152.88792019998073,None,152.88792019998073,None,152.88792019998073,None,152.88792019998073,None,d,3.4243792000052053,152.88792019998073,None,target,None,None,None,None,None,,,,,,,,,,,,,,student1,2022-10-20_16h11.08.893,Hippopolis_4AFCT,2021.1.4,59.94229953924141,
Camponello,stimuli/subj_files/student1_cityB.csv,./stimuli/leipzig.jpg,./stimuli/street_plate2.png,MÁRVÁNY UTCA,stimuli/scenes/023a.jpg,scene,0,stimuli/scenes/023a.jpg,stimuli/objects/030a.jpg,stimuli/scenes/023b.jpg,stimuli/objects/030b.jpg,stimuli/scenes/023a.jpg,dist1,lure,dist2,target,0,0,0,1,0,31,31,58,,,,,,,,,,,156.34530409998843,None,157.3663564999879,None,157.3663564999879,None,157.3663564999879,None,157.3663564999879,None,157.3663564999879,None,157.3663564999879,None,157.3663564999879,None,157.3663564999879,None,157.3663564999879,None,157.3663564999879,None,157.3663564999879,None,k,3.6707813999964856,157.3663564999879,None,target,None,None,None,None,None,,,,,,,,,,,,,,student1,2022-10-20_16h11.08.893,Hippopolis_4AFCT,2021.1.4,59.94229953924141,
Camponello,stimuli/subj_files/student1_cityB.csv,./stimuli/leipzig.jpg,./stimuli/street_plate2.png,TÁSKA UTCA,stimuli/objects/110a.jpg,object,2,stimuli/scenes/079a.jpg,stimuli/scenes/079a.jpg,stimuli/objects/037b.jpg,stimuli/objects/037a.jpg,stimuli/scenes/079b.jpg,target,dist2,dist1,lure,0,0,0,1,0,32,32,33,,,,,,,,,,,161.06185169998207,None,162.085159499984,None,162.085159499984,None,162.085159499984,None,162.085159499984,None,162.085159499984,None,162.085159499984,None,162.085159499984,None,162.085159499984,None,162.085159499984,None,162.085159499984,None,162.085159499984,None,d,3.4961430999974255,162.085159499984,None,target,None,None,None,None,None,,,,,,,,,,,,,,student1,2022-10-20_16h11.08.893,Hippopolis_4AFCT,2021.1.4,59.94229953924141,
Camponello,stimuli/subj_files/student1_cityB.csv,./stimuli/leipzig.jpg,./stimuli/street_plate2.png,SUGÁR UTCA,stimuli/objects/094a.jpg,object,0,stimuli/objects/094a.jpg,stimuli/objects/094b.jpg,stimuli/objects/064b.jpg,stimuli/objects/064a.jpg,stimuli/objects/094a.jpg,lure,dist2,dist1,target,0,0,0,1,0,33,33,40,,,,,,,,,,,165.61179179997998,None,166.61889660000452,None,166.61889660000452,None,166.61889660000452,None,166.61889660000452,None,166.61889660000452,None,166.61889660000452,None,166.61889660000452,None,166.61889660000452,None,166.61889660000452,None,166.61889660000452,None,166.61889660000452,None,k,2.2166680000082124,166.61889660000452,None,target,None,None,None,None,None,,,,,,,,,,,,,,student1,2022-10-20_16h11.08.893,Hippopolis_4AFCT,2021.1.4,59.94229953924141,
Camponello,stimuli/subj_files/student1_cityB.csv,./stimuli/leipzig.jpg,./stimuli/street_plate2.png,TULIPÁN UTCA,stimuli/objects/058a.jpg,object,0,stimuli/objects/058a.jpg,stimuli/objects/117a.jpg,stimuli/objects/117b.jpg,stimuli/objects/058b.jpg,stimuli/objects/058a.jpg,dist1,dist2,lure,target,0,0,0,1,0,34,34,1,,,,,,,,,,,168.86168040000484,None,169.87964499997906,None,169.87964499997906,None,169.87964499997906,None,169.87964499997906,None,169.87964499997906,None,169.87964499997906,None,169.87964499997906,None,169.87964499997906,None,169.87964499997906,None,169.87964499997906,None,169.87964499997906,None,k,2.7068014000251424,169.87964499997906,None,target,None,None,None,None,None,,,,,,,,,,,,,,student1,2022-10-20_16h11.08.893,Hippopolis_4AFCT,2021.1.4,59.94229953924141,
Camponello,stimuli/subj_files/student1_cityB.csv,./stimuli/leipzig.jpg,./stimuli/street_plate2.png,KANÁL UTCA,stimuli/scenes/057a.jpg,scene,1,stimuli/scenes/020a.jpg,stimuli/scenes/020b.jpg,stimuli/scenes/020a.jpg,stimuli/scenes/062a.jpg,stimuli/scenes/062b.jpg,lure,target,dist1,dist2,0,0,0,1,0,35,35,14,,,,,,,,,,,172.611628499988,None,173.64095349999843,None,173.64095349999843,None,173.64095349999843,None,173.64095349999843,None,173.64095349999843,None,173.64095349999843,None,173.64095349999843,None,173.64095349999843,None,173.64095349999843,None,173.64095349999843,None,173.64095349999843,None,None,,173.64095349999843,None,invalid,None,None,None,None,None,,,,,,,,,,,,,,student1,2022-10-20_16h11.08.893,Hippopolis_4AFCT,2021.1.4,59.94229953924141,
Camponello,stimuli/subj_files/student1_cityB.csv,./stimuli/leipzig.jpg,./stimuli/street_plate2.png,POLIP UTCA,stimuli/scenes/077a.jpg,scene,0,stimuli/scenes/077a.jpg,stimuli/scenes/077b.jpg,stimuli/scenes/077a.jpg,stimuli/scenes/091b.jpg,stimuli/scenes/091a.jpg,lure,target,dist2,dist1,0,0,0,1,0,36,36,49,,,,,,,,,,,178.62822519999463,None,179.6572473999986,None,179.6572473999986,None,179.6572473999986,None,179.6572473999986,None,179.6572473999986,None,179.6572473999986,None,179.6572473999986,None,179.6572473999986,None,179.6572473999986,None,179.6572473999986,None,179.6572473999986,None,f,2.175419300008798,179.6572473999986,None,target,None,None,None,None,None,,,,,,,,,,,,,,student1,2022-10-20_16h11.08.893,Hippopolis_4AFCT,2021.1.4,59.94229953924141,
Camponello,stimuli/subj_files/student1_cityB.csv,./stimuli/leipzig.jpg,./stimuli/street_plate2.png,SZŐLŐ UTCA,stimuli/scenes/099a.jpg,scene,0,stimuli/scenes/099a.jpg,stimuli/objects/105a.jpg,stimuli/scenes/099a.jpg,stimuli/scenes/099b.jpg,stimuli/objects/105b.jpg,dist1,target,lure,dist2,0,0,0,1,0,37,37,55,,,,,,,,,,,181.8615865999891,None,182.89315699998406,None,182.89315699998406,None,182.89315699998406,None,182.89315699998406,None,182.89315699998406,None,182.89315699998406,None,182.89315699998406,None,182.89315699998406,None,182.89315699998406,None,182.89315699998406,None,182.89315699998406,None,f,2.200881099997787,182.89315699998406,None,target,None,None,None,None,None,,,,,,,,,,,,,,student1,2022-10-20_16h11.08.893,Hippopolis_4AFCT,2021.1.4,59.94229953924141,
Camponello,stimuli/subj_files/student1_cityB.csv,./stimuli/leipzig.jpg,./stimuli/street_plate2.png,SZAPPAN UTCA,stimuli/objects/023a.jpg,object,1,stimuli/objects/087a.jpg,stimuli/scenes/012b.jpg,stimuli/objects/087b.jpg,stimuli/objects/087a.jpg,stimuli/scenes/012a.jpg,dist2,lure,target,dist1,0,0,0,1,0,38,38,7,,,,,,,,,,,185.11098409999977,None,186.13541329998407,None,186.13541329998407,None,186.13541329998407,None,186.13541329998407,None,186.13541329998407,None,186.13541329998407,None,186.13541329998407,None,186.13541329998407,None,186.13541329998407,None,186.13541329998407,None,186.13541329998407,None,j,2.3108593999932054,186.13541329998407,None,target,None,None,None,None,None,,,,,,,,,,,,,,student1,2022-10-20_16h11.08.893,Hippopolis_4AFCT,2021.1.4,59.94229953924141,
Camponello,stimuli/subj_files/student1_cityB.csv,./stimuli/leipzig.jpg,./stimuli/street_plate2.png,SÜTEMÉNY UTCA,stimuli/objects/074a.jpg,object,2,stimuli/scenes/102a.jpg,stimuli/objects/061b.jpg,stimuli/objects/061a.jpg,stimuli/scenes/102a.jpg,stimuli/scenes/102b.jpg,dist2,dist1,target,lure,0,0,0,1,0,39,39,32,,,,,,,,,,,188.47750489998725,None,189.49470189999556,None,189.49470189999556,None,189.49470189999556,None,189.49470189999556,None,189.49470189999556,None,189.49470189999556,None,189.49470189999556,None,189.49470189999556,None,189.49470189999556,None,189.49470189999556,None,189.49470189999556,None,j,2.7703490999992937,189.49470189999556,None,target,None,None,None,None,None,,,,,,,,,,,,,,student1,2022-10-20_16h11.08.893,Hippopolis_4AFCT,2021.1.4,59.94229953924141,
Camponello,stimuli/subj_files/student1_cityB.csv,./stimuli/leipzig.jpg,./stimuli/street_plate2.png,SZŐNYEG UTCA,stimuli/objects/040a.jpg,object,0,stimuli/objects/040a.jpg,stimuli/objects/040a.jpg,stimuli/objects/040b.jpg,stimuli/objects/019b.jpg,stimuli/objects/019a.jpg,target,lure,dist2,dist1,0,0,0,1,0,40,40,29,,,,,,,,,,,192.2946435000049,None,193.30759059998672,None,193.30759059998672,None,193.30759059998672,None,193.30759059998672,None,193.30759059998672,None,193.30759059998672,None,193.30759059998672,None,193.30759059998672,None,193.30759059998672,None,193.30759059998672,None,193.30759059998672,None,None,,193.30759059998672,None,invalid,None,None,None,None,None,,,,,,,,,,,,,,student1,2022-10-20_16h11.08.893,Hippopolis_4AFCT,2021.1.4,59.94229953924141,
Camponello,stimuli/subj_files/student1_cityB.csv,./stimuli/leipzig.jpg,./stimuli/street_plate2.png,FOLYÓ UTCA,stimuli/scenes/035a.jpg,scene,0,stimuli/scenes/035a.jpg,stimuli/objects/034a.jpg,stimuli/scenes/035a.jpg,stimuli/objects/034b.jpg,stimuli/scenes/035b.jpg,dist1,target,dist2,lure,0,0,0,1,0,41,41,61,,,,,,,,,,,198.3112394999771,None,199.3319044999953,None,199.3319044999953,None,199.3319044999953,None,199.3319044999953,None,199.3319044999953,None,199.3319044999953,None,199.3319044999953,None,199.3319044999953,None,199.3319044999953,None,199.3319044999953,None,199.3319044999953,None,f,2.26249039999675,199.3319044999953,None,target,None,None,None,None,None,,,,,,,,,,,,,,student1,2022-10-20_16h11.08.893,Hippopolis_4AFCT,2021.1.4,59.94229953924141,
Camponello,stimuli/subj_files/student1_cityB.csv,./stimuli/leipzig.jpg,./stimuli/street_plate2.png,SÜTŐ UTCA,stimuli/scenes/038a.jpg,scene,0,stimuli/scenes/038a.jpg,stimuli/scenes/038b.jpg,stimuli/objects/033b.jpg,stimuli/objects/033a.jpg,stimuli/scenes/038a.jpg,lure,dist2,dist1,target,0,0,0,1,0,42,42,5,,,,,,,,,,,201.61058359997696,None,202.63118399999803,None,202.63118399999803,None,202.63118399999803,None,202.63118399999803,None,202.63118399999803,None,202.63118399999803,None,202.63118399999803,None,202.63118399999803,None,202.63118399999803,None,202.63118399999803,None,202.63118399999803,None,k,2.308430400007637,202.63118399999803,None,target,None,None,None,None,None,,,,,,,,,,,,,,student1,2022-10-20_16h11.08.893,Hippopolis_4AFCT,2021.1.4,59.94229953924141,
Camponello,stimuli/subj_files/student1_cityB.csv,./stimuli/leipzig.jpg,./stimuli/street_plate2.png,BÚJÓCSKA UTCA,stimuli/scenes/015a.jpg,scene,1,stimuli/scenes/086a.jpg,stimuli/scenes/105b.jpg,stimuli/scenes/086a.jpg,stimuli/scenes/105a.jpg,stimuli/scenes/086b.jpg,dist2,target,dist1,lure,0,0,0,1,0,43,43,48,,,,,,,,,,,204.96085020000464,None,205.97273449998465,None,205.97273449998465,None,205.97273449998465,None,205.97273449998465,None,205.97273449998465,None,205.97273449998465,None,205.97273449998465,None,205.97273449998465,None,205.97273449998465,None,205.97273449998465,None,205.97273449998465,None,f,4.327458700019633,205.97273449998465,None,target,None,None,None,None,None,,,,,,,,,,,,,,student1,2022-10-20_16h11.08.893,Hippopolis_4AFCT,2021.1.4,59.94229953924141,
Camponello,stimuli/subj_files/student1_cityB.csv,./stimuli/leipzig.jpg,./stimuli/street_plate2.png,ÁLLOMÁS UTCA,stimuli/scenes/069a.jpg,scene,0,stimuli/scenes/069a.jpg,stimuli/scenes/106a.jpg,stimuli/scenes/106b.jpg,stimuli/scenes/069b.jpg,stimuli/scenes/069a.jpg,dist1,dist2,lure,target,0,0,0,1,0,44,44,42,,,,,,,,,,,210.3277720999904,None,211.3562244999921,None,211.3562244999921,None,211.3562244999921,None,211.3562244999921,None,211.3562244999921,None,211.3562244999921,None,211.3562244999921,None,211.3562244999921,None,211.3562244999921,None,211.3562244999921,None,211.3562244999921,None,k,2.1155082000186667,211.3562244999921,None,target,213.49442639999324,None,space,213.49442639999324,None,1.681717999977991,,,,,,,,,,,,,student1,2022-10-20_16h11.08.893,Hippopolis_4AFCT,2021.1.4,59.94229953924141,
Camponello,stimuli/subj_files/student1_cityB.csv,./stimuli/leipzig.jpg,./stimuli/street_plate2.png,HORGONY UTCA,stimuli/objects/039a.jpg,object,0,stimuli/objects/039a.jpg,stimuli/objects/039b.jpg,stimuli/objects/039a.jpg,stimuli/objects/092b.jpg,stimuli/objects/092a.jpg,lure,target,dist2,dist1,0,0,0,1,0,45,45,26,,,,,,,,,,,215.1938656999846,None,216.21366169999237,None,216.21366169999237,None,216.21366169999237,None,216.21366169999237,None,216.21366169999237,None,216.21366169999237,None,216.21366169999237,None,216.21366169999237,None,216.21366169999237,None,216.21366169999237,None,216.21366169999237,None,None,,216.21366169999237,None,invalid,None,None,None,None,None,,,,,,,,,,,,,,student1,2022-10-20_16h11.08.893,Hippopolis_4AFCT,2021.1.4,59.94229953924141,
Camponello,stimuli/subj_files/student1_cityB.csv,./stimuli/leipzig.jpg,./stimuli/street_plate2.png,FÜGE UTCA,stimuli/scenes/115a.jpg,scene,0,stimuli/scenes/115a.jpg,stimuli/scenes/115b.jpg,stimuli/scenes/115a.jpg,stimuli/objects/084b.jpg,stimuli/objects/084a.jpg,lure,target,dist2,dist1,0,0,0,1,0,46,46,47,,,,,,,,,,,221.21068950000335,None,222.2247306999925,None,222.2247306999925,None,222.2247306999925,None,222.2247306999925,None,222.2247306999925,None,222.2247306999925,None,222.2247306999925,None,222.2247306999925,None,222.2247306999925,None,222.2247306999925,None,222.2247306999925,None,d,4.667685499996878,222.2247306999925,None,lure,None,None,None,None,None,,,,,,,,,,,,,,student1,2022-10-20_16h11.08.893,Hippopolis_4AFCT,2021.1.4,59.94229953924141,
Camponello,stimuli/subj_files/student1_cityB.csv,./stimuli/leipzig.jpg,./stimuli/street_plate2.png,ZÁSZLÓ UTCA,stimuli/scenes/103a.jpg,scene,2,stimuli/objects/037a.jpg,stimuli/scenes/102b.jpg,stimuli/objects/037b.jpg,stimuli/scenes/102a.jpg,stimuli/objects/037a.jpg,dist2,lure,dist1,target,0,0,0,1,0,47,47,60,,,,,,,,,,,226.91013279999606,None,227.91535419999855,None,227.91535419999855,None,227.91535419999855,None,227.91535419999855,None,227.91535419999855,None,227.91535419999855,None,227.91535419999855,None,227.91535419999855,None,227.91535419999855,None,227.91535419999855,None,227.91535419999855,None,k,1.652974800002994,227.91535419999855,None,target,None,None,None,None,None,,,,,,,,,,,,,,student1,2022-10-20_16h11.08.893,Hippopolis_4AFCT,2021.1.4,59.94229953924141,
Camponello,stimuli/subj_files/student1_cityB.csv,./stimuli/leipzig.jpg,./stimuli/street_plate2.png,KALAPÁCS UTCA,stimuli/scenes/049a.jpg,scene,0,stimuli/scenes/049a.jpg,stimuli/objects/112b.jpg,stimuli/scenes/049a.jpg,stimuli/objects/112a.jpg,stimuli/scenes/049b.jpg,dist2,target,dist1,lure,0,0,0,1,0,48,48,3,,,,,,,,,,,229.5939526000002,None,230.6166508999886,None,230.6166508999886,None,230.6166508999886,None,230.6166508999886,None,230.6166508999886,None,230.6166508999886,None,230.6166508999886,None,230.6166508999886,None,230.6166508999886,None,230.6166508999886,None,230.6166508999886,None,f,1.962671200017212,230.6166508999886,None,target,None,None,None,None,None,,,,,,,,,,,,,,student1,2022-10-20_16h11.08.893,Hippopolis_4AFCT,2021.1.4,59.94229953924141,
Camponello,stimuli/subj_files/student1_cityB.csv,./stimuli/leipzig.jpg,./stimuli/street_plate2.png,MOSODA UTCA,stimuli/objects/052a.jpg,object,0,stimuli/objects/052a.jpg,stimuli/objects/052b.jpg,stimuli/scenes/035a.jpg,stimuli/objects/052a.jpg,stimuli/scenes/035b.jpg,lure,dist1,target,dist2,0,0,0,1,0,49,49,51,,,,,,,,,,,232.61069750000024,None,233.6348558999889,None,233.6348558999889,None,233.6348558999889,None,233.6348558999889,None,233.6348558999889,None,233.6348558999889,None,233.6348558999889,None,233.6348558999889,None,233.6348558999889,None,233.6348558999889,None,233.6348558999889,None,j,2.1218664000043646,233.6348558999889,None,target,None,None,None,None,None,,,,,,,,,,,,,,student1,2022-10-20_16h11.08.893,Hippopolis_4AFCT,2021.1.4,59.94229953924141,
Camponello,stimuli/subj_files/student1_cityB.csv,./stimuli/leipzig.jpg,./stimuli/street_plate2.png,HENTES UTCA,stimuli/scenes/092a.jpg,scene,0,stimuli/scenes/092a.jpg,stimuli/scenes/114b.jpg,stimuli/scenes/114a.jpg,stimuli/scenes/092a.jpg,stimuli/scenes/092b.jpg,dist2,dist1,target,lure,0,0,0,1,0,50,50,46,,,,,,,,,,,235.7772100000002,None,236.79569139998057,None,236.79569139998057,None,236.79569139998057,None,236.79569139998057,None,236.79569139998057,None,236.79569139998057,None,236.79569139998057,None,236.79569139998057,None,236.79569139998057,None,236.79569139998057,None,236.79569139998057,None,j,2.5467566000006627,236.79569139998057,None,target,None,None,None,None,None,,,,,,,,,,,,,,student1,2022-10-20_16h11.08.893,Hippopolis_4AFCT,2021.1.4,59.94229953924141,
Camponello,stimuli/subj_files/student1_cityB.csv,./stimuli/leipzig.jpg,./stimuli/street_plate2.png,KÁRTYA UTCA,stimuli/scenes/076a.jpg,scene,0,stimuli/scenes/076a.jpg,stimuli/objects/008a.jpg,stimuli/scenes/076b.jpg,stimuli/scenes/076a.jpg,stimuli/objects/008b.jpg,dist1,lure,target,dist2,0,0,0,1,0,51,51,64,,,,,,,,,,,239.3601348999946,None,240.37377320000087,None,240.37377320000087,None,240.37377320000087,None,240.37377320000087,None,240.37377320000087,None,240.37377320000087,None,240.37377320000087,None,240.37377320000087,None,240.37377320000087,None,240.37377320000087,None,240.37377320000087,None,j,4.341749400016852,240.37377320000087,None,target,None,None,None,None,None,,,,,,,,,,,,,,student1,2022-10-20_16h11.08.893,Hippopolis_4AFCT,2021.1.4,59.94229953924141,
Camponello,stimuli/subj_files/student1_cityB.csv,./stimuli/leipzig.jpg,./stimuli/street_plate2.png,FEJSZE UTCA,stimuli/objects/065a.jpg,object,0,stimuli/objects/065a.jpg,stimuli/scenes/075b.jpg,stimuli/objects/065b.jpg,stimuli/objects/065a.jpg,stimuli/scenes/075a.jpg,dist2,lure,target,dist1,0,0,0,1,0,52,52,9,,,,,,,,,,,244.74365779999061,None,245.7518894999812,None,245.7518894999812,None,245.7518894999812,None,245.7518894999812,None,245.7518894999812,None,245.7518894999812,None,245.7518894999812,None,245.7518894999812,None,245.7518894999812,None,245.7518894999812,None,245.7518894999812,None,j,1.6662265000049956,245.7518894999812,None,target,None,None,None,None,None,,,,,,,,,,,,,,student1,2022-10-20_16h11.08.893,Hippopolis_4AFCT,2021.1.4,59.94229953924141,
Camponello,stimuli/subj_files/student1_cityB.csv,./stimuli/leipzig.jpg,./stimuli/street_plate2.png,TÉRKÉP UTCA,stimuli/scenes/013a.jpg,scene,0,stimuli/scenes/013a.jpg,stimuli/scenes/006b.jpg,stimuli/scenes/006a.jpg,stimuli/scenes/013a.jpg,stimuli/scenes/013b.jpg,dist2,dist1,target,lure,0,0,0,1,0,53,53,63,,,,,,,,,,,247.44323849998182,None,248.47111159999622,None,248.47111159999622,None,248.47111159999622,None,248.47111159999622,None,248.47111159999622,None,248.47111159999622,None,248.47111159999622,None,248.47111159999622,None,248.47111159999622,None,248.47111159999622,None,248.47111159999622,None,j,3.4202495999925304,248.47111159999622,None,target,None,None,None,None,None,,,,,,,,,,,,,,student1,2022-10-20_16h11.08.893,Hippopolis_4AFCT,2021.1.4,59.94229953924141,
Camponello,stimuli/subj_files/student1_cityB.csv,./stimuli/leipzig.jpg,./stimuli/street_plate2.png,SIRÁLY UTCA,stimuli/objects/081a.jpg,object,0,stimuli/objects/081a.jpg,stimuli/objects/081a.jpg,stimuli/objects/081b.jpg,stimuli/scenes/019a.jpg,stimuli/scenes/019b.jpg,target,lure,dist1,dist2,0,0,0,1,0,54,54,50,,,,,,,,,,,251.90984119998757,None,252.93068729998777,None,252.93068729998777,None,252.93068729998777,None,252.93068729998777,None,252.93068729998777,None,252.93068729998777,None,252.93068729998777,None,252.93068729998777,None,252.93068729998777,None,252.93068729998777,None,252.93068729998777,None,d,2.797624099999666,252.93068729998777,None,target,None,None,None,None,None,,,,,,,,,,,,,,student1,2022-10-20_16h11.08.893,Hippopolis_4AFCT,2021.1.4,59.94229953924141,
Camponello,stimuli/subj_files/student1_cityB.csv,./stimuli/leipzig.jpg,./stimuli/street_plate2.png,ECSET UTCA,stimuli/scenes/003a.jpg,scene,2,stimuli/objects/005a.jpg,stimuli/objects/035b.jpg,stimuli/objects/005b.jpg,stimuli/objects/035a.jpg,stimuli/objects/005a.jpg,dist2,lure,dist1,target,0,0,0,1,0,55,55,11,,,,,,,,,,,255.76003380000475,None,256.7771357999882,None,256.7771357999882,None,256.7771357999882,None,256.7771357999882,None,256.7771357999882,None,256.7771357999882,None,256.7771357999882,None,256.7771357999882,None,256.7771357999882,None,256.7771357999882,None,256.7771357999882,None,k,3.682232399994973,256.7771357999882,None,target,None,None,None,None,None,,,,,,,,,,,,,,student1,2022-10-20_16h11.08.893,Hippopolis_4AFCT,2021.1.4,59.94229953924141,
Camponello,stimuli/subj_files/student1_cityB.csv,./stimuli/leipzig.jpg,./stimuli/street_plate2.png,HARCSA UTCA,stimuli/scenes/080a.jpg,scene,2,stimuli/objects/029a.jpg,stimuli/scenes/054b.jpg,stimuli/scenes/054a.jpg,stimuli/objects/029b.jpg,stimuli/objects/029a.jpg,dist2,dist1,lure,target,0,0,0,1,0,56,56,59,,,,,,,,,,,260.4767834999948,None,261.5077523999789,None,261.5077523999789,None,261.5077523999789,None,261.5077523999789,None,261.5077523999789,None,261.5077523999789,None,261.5077523999789,None,261.5077523999789,None,261.5077523999789,None,261.5077523999789,None,261.5077523999789,None,k,1.7048394000157714,261.5077523999789,None,target,None,None,None,None,None,,,,,,,,,,,,,,student1,2022-10-20_16h11.08.893,Hippopolis_4AFCT,2021.1.4,59.94229953924141,
Camponello,stimuli/subj_files/student1_cityB.csv,./stimuli/leipzig.jpg,./stimuli/street_plate2.png,KÓKUSZ UTCA,stimuli/scenes/052a.jpg,scene,0,stimuli/scenes/052a.jpg,stimuli/scenes/052a.jpg,stimuli/objects/077b.jpg,stimuli/objects/077a.jpg,stimuli/scenes/052b.jpg,target,dist2,dist1,lure,0,0,0,1,0,57,57,19,,,,,,,,,,,263.24296509998385,None,264.2579226999951,None,264.2579226999951,None,264.2579226999951,None,264.2579226999951,None,264.2579226999951,None,264.2579226999951,None,264.2579226999951,None,264.2579226999951,None,264.2579226999951,None,264.2579226999951,None,264.2579226999951,None,d,3.1514322999864817,264.2579226999951,None,target,None,None,None,None,None,,,,,,,,,,,,,,student1,2022-10-20_16h11.08.893,Hippopolis_4AFCT,2021.1.4,59.94229953924141,
Camponello,stimuli/subj_files/student1_cityB.csv,./stimuli/leipzig.jpg,./stimuli/street_plate2.png,TÜKÖR UTCA,stimuli/scenes/006a.jpg,scene,0,stimuli/scenes/006a.jpg,stimuli/objects/116b.jpg,stimuli/objects/116a.jpg,stimuli/scenes/006a.jpg,stimuli/scenes/006b.jpg,dist2,dist1,target,lure,0,0,0,1,0,58,58,25,,,,,,,,,,,267.44344329999876,None,268.44711359997746,None,268.44711359997746,None,268.44711359997746,None,268.44711359997746,None,268.44711359997746,None,268.44711359997746,None,268.44711359997746,None,268.44711359997746,None,268.44711359997746,None,268.44711359997746,None,268.44711359997746,None,j,2.0392757000226993,268.44711359997746,None,target,None,None,None,None,None,,,,,,,,,,,,,,student1,2022-10-20_16h11.08.893,Hippopolis_4AFCT,2021.1.4,59.94229953924141,
Camponello,stimuli/subj_files/student1_cityB.csv,./stimuli/leipzig.jpg,./stimuli/street_plate2.png,FÉSŰ UTCA,stimuli/objects/084a.jpg,object,0,stimuli/objects/084a.jpg,stimuli/objects/118b.jpg,stimuli/objects/118a.jpg,stimuli/objects/084a.jpg,stimuli/objects/084b.jpg,dist2,dist1,target,lure,0,0,0,1,0,59,59,23,,,,,,,,,,,270.50998699999764,None,271.51753709997865,None,271.51753709997865,None,271.51753709997865,None,271.51753709997865,None,271.51753709997865,None,271.51753709997865,None,271.51753709997865,None,271.51753709997865,None,271.51753709997865,None,271.51753709997865,None,271.51753709997865,None,None,,271.51753709997865,None,invalid,None,None,None,None,None,,,,,,,,,,,,,,student1,2022-10-20_16h11.08.893,Hippopolis_4AFCT,2021.1.4,59.94229953924141,
Camponello,stimuli/subj_files/student1_cityB.csv,./stimuli/leipzig.jpg,./stimuli/street_plate2.png,SALÁTA UTCA,stimuli/objects/008a.jpg,object,0,stimuli/objects/008a.jpg,stimuli/scenes/099b.jpg,stimuli/objects/008b.jpg,stimuli/objects/008a.jpg,stimuli/scenes/099a.jpg,dist2,lure,target,dist1,0,0,0,1,0,60,60,73,,,,,,,,,,,276.52638679998927,None,277.53311449999455,None,277.53311449999455,None,277.53311449999455,None,277.53311449999455,None,277.53311449999455,None,277.53311449999455,None,277.53311449999455,None,277.53311449999455,None,277.53311449999455,None,277.53311449999455,None,277.53311449999455,None,j,2.4029470000241417,277.53311449999455,None,target,None,None,None,None,None,,,,,,,,,,,,,,student1,2022-10-20_16h11.08.893,Hippopolis_4AFCT,2021.1.4,59.94229953924141,
Camponello,stimuli/subj_files/student1_cityB.csv,./stimuli/leipzig.jpg,./stimuli/street_plate2.png,VITORLA UTCA,stimuli/scenes/110a.jpg,scene,1,stimuli/scenes/062a.jpg,stimuli/scenes/107a.jpg,stimuli/scenes/107b.jpg,stimuli/scenes/062b.jpg,stimuli/scenes/062a.jpg,dist1,dist2,lure,target,0,0,0,1,0,61,61,45,,,,,,,,,,,279.9597675999976,None,280.96978429998853,None,280.96978429998853,None,280.96978429998853,None,280.96978429998853,None,280.96978429998853,None,280.96978429998853,None,280.96978429998853,None,280.96978429998853,None,280.96978429998853,None,280.96978429998853,None,280.96978429998853,None,k,3.121001299994532,280.96978429998853,None,target,None,None,None,None,None,,,,,,,,,,,,,,student1,2022-10-20_16h11.08.893,Hippopolis_4AFCT,2021.1.4,59.94229953924141,
Camponello,stimuli/subj_files/student1_cityB.csv,./stimuli/leipzig.jpg,./stimuli/street_plate2.png,TERÍTŐ UTCA,stimuli/objects/098a.jpg,object,1,stimuli/objects/096a.jpg,stimuli/objects/096b.jpg,stimuli/objects/096a.jpg,stimuli/objects/013b.jpg,stimuli/objects/013a.jpg,lure,target,dist2,dist1,0,0,0,1,0,62,62,39,,,,,,,,,,,284.1091868999938,None,285.129036600003,None,285.129036600003,None,285.129036600003,None,285.129036600003,None,285.129036600003,None,285.129036600003,None,285.129036600003,None,285.129036600003,None,285.129036600003,None,285.129036600003,None,285.129036600003,None,f,4.388203000009526,285.129036600003,None,target,None,None,None,None,None,,,,,,,,,,,,,,student1,2022-10-20_16h11.08.893,Hippopolis_4AFCT,2021.1.4,59.94229953924141,
Camponello,stimuli/subj_files/student1_cityB.csv,./stimuli/leipzig.jpg,./stimuli/street_plate2.png,PÁRNA UTCA,stimuli/objects/112a.jpg,object,0,stimuli/objects/112a.jpg,stimuli/objects/112b.jpg,stimuli/scenes/032b.jpg,stimuli/scenes/032a.jpg,stimuli/objects/112a.jpg,lure,dist2,dist1,target,0,0,0,1,0,63,63,77,,,,,,,,,,,289.54295589998947,None,290.5473476999905,None,290.5473476999905,None,290.5473476999905,None,290.5473476999905,None,290.5473476999905,None,290.5473476999905,None,290.5473476999905,None,290.5473476999905,None,290.5473476999905,None,290.5473476999905,None,290.5473476999905,None,k,2.1034889000002295,290.5473476999905,None,target,None,None,None,None,None,,,,,,,,,,,,,,student1,2022-10-20_16h11.08.893,Hippopolis_4AFCT,2021.1.4,59.94229953924141,
Camponello,stimuli/subj_files/student1_cityB.csv,./stimuli/leipzig.jpg,./stimuli/street_plate2.png,VIHAR UTCA,stimuli/objects/048a.jpg,object,2,stimuli/scenes/054a.jpg,stimuli/scenes/054b.jpg,stimuli/scenes/100b.jpg,stimuli/scenes/054a.jpg,stimuli/scenes/100a.jpg,lure,dist2,target,dist1,0,0,0,1,0,64,64,65,,,,,,,,,,,292.67623729998013,None,293.6932403999963,None,293.6932403999963,None,293.6932403999963,None,293.6932403999963,None,293.6932403999963,None,293.6932403999963,None,293.6932403999963,None,293.6932403999963,None,293.6932403999963,None,293.6932403999963,None,293.6932403999963,None,j,4.663503599993419,293.6932403999963,None,target,None,None,None,None,None,,,,,,,,,,,,,,student1,2022-10-20_16h11.08.893,Hippopolis_4AFCT,2021.1.4,59.94229953924141,
Camponello,stimuli/subj_files/student1_cityB.csv,./stimuli/leipzig.jpg,./stimuli/street_plate2.png,ZEBRA UTCA,stimuli/scenes/106a.jpg,scene,0,stimuli/scenes/106a.jpg,stimuli/scenes/030a.jpg,stimuli/scenes/106a.jpg,stimuli/scenes/106b.jpg,stimuli/scenes/030b.jpg,dist1,target,lure,dist2,0,0,0,1,0,65,65,12,,,,,,,,,,,298.3759293000039,None,299.3954762999783,None,299.3954762999783,None,299.3954762999783,None,299.3954762999783,None,299.3954762999783,None,299.3954762999783,None,299.3954762999783,None,299.3954762999783,None,299.3954762999783,None,299.3954762999783,None,299.3954762999783,None,f,3.621950000000652,299.3954762999783,None,target,None,None,None,None,None,,,,,,,,,,,,,,student1,2022-10-20_16h11.08.893,Hippopolis_4AFCT,2021.1.4,59.94229953924141,
Camponello,stimuli/subj_files/student1_cityB.csv,./stimuli/leipzig.jpg,./stimuli/street_plate2.png,LEVÉL UTCA,stimuli/scenes/019a.jpg,scene,0,stimuli/scenes/019a.jpg,stimuli/objects/052a.jpg,stimuli/scenes/019a.jpg,stimuli/scenes/019b.jpg,stimuli/objects/052b.jpg,dist1,target,lure,dist2,0,0,0,1,0,66,66,8,,,,,,,,,,,303.0428047000023,None,304.056943100004,None,304.056943100004,None,304.056943100004,None,304.056943100004,None,304.056943100004,None,304.056943100004,None,304.056943100004,None,304.056943100004,None,304.056943100004,None,304.056943100004,None,304.056943100004,None,f,2.297164999996312,304.056943100004,None,target,None,None,None,None,None,,,,,,,,,,,,,,student1,2022-10-20_16h11.08.893,Hippopolis_4AFCT,2021.1.4,59.94229953924141,
Camponello,stimuli/subj_files/student1_cityB.csv,./stimuli/leipzig.jpg,./stimuli/street_plate2.png,KESELYŰ UTCA,stimuli/objects/003a.jpg,object,2,stimuli/scenes/100a.jpg,stimuli/objects/029a.jpg,stimuli/scenes/100b.jpg,stimuli/objects/029b.jpg,stimuli/scenes/100a.jpg,dist1,lure,dist2,target,0,0,0,1,0,67,67,6,,,,,,,,,,,306.3760578999936,None,307.3913811999955,None,307.3913811999955,None,307.3913811999955,None,307.3913811999955,None,307.3913811999955,None,307.3913811999955,None,307.3913811999955,None,307.3913811999955,None,307.3913811999955,None,307.3913811999955,None,307.3913811999955,None,k,2.6436966999899596,307.3913811999955,None,target,None,None,None,None,None,,,,,,,,,,,,,,student1,2022-10-20_16h11.08.893,Hippopolis_4AFCT,2021.1.4,59.94229953924141,
Camponello,stimuli/subj_files/student1_cityB.csv,./stimuli/leipzig.jpg,./stimuli/street_plate2.png,KUTYA UTCA,stimuli/scenes/030a.jpg,scene,0,stimuli/scenes/030a.jpg,stimuli/scenes/030b.jpg,stimuli/scenes/052b.jpg,stimuli/scenes/052a.jpg,stimuli/scenes/030a.jpg,lure,dist2,dist1,target,0,0,0,1,0,68,68,35,,,,,,,,,,,310.05874369997764,None,311.0675896999892,None,311.0675896999892,None,311.0675896999892,None,311.0675896999892,None,311.0675896999892,None,311.0675896999892,None,311.0675896999892,None,311.0675896999892,None,311.0675896999892,None,311.0675896999892,None,311.0675896999892,None,k,1.992941400007112,311.0675896999892,None,target,None,None,None,None,None,,,,,,,,,,,,,,student1,2022-10-20_16h11.08.893,Hippopolis_4AFCT,2021.1.4,59.94229953924141,
Camponello,stimuli/subj_files/student1_cityB.csv,./stimuli/leipzig.jpg,./stimuli/street_plate2.png,REPÜLŐ UTCA,stimuli/scenes/098a.jpg,scene,0,stimuli/scenes/098a.jpg,stimuli/scenes/013a.jpg,stimuli/scenes/013b.jpg,stimuli/scenes/098a.jpg,stimuli/scenes/098b.jpg,dist1,dist2,target,lure,0,0,0,1,0,69,69,66,,,,,,,,,,,313.0921798000054,None,314.1115211999859,None,314.1115211999859,None,314.1115211999859,None,314.1115211999859,None,314.1115211999859,None,314.1115211999859,None,314.1115211999859,None,314.1115211999859,None,314.1115211999859,None,314.1115211999859,None,314.1115211999859,None,j,2.04122240000288,314.1115211999859,None,target,None,None,None,None,None,,,,,,,,,,,,,,student1,2022-10-20_16h11.08.893,Hippopolis_4AFCT,2021.1.4,59.94229953924141,
Camponello,stimuli/subj_files/student1_cityB.csv,./stimuli/leipzig.jpg,./stimuli/street_plate2.png,LEMEZ UTCA,stimuli/scenes/022a.jpg,scene,0,stimuli/scenes/022a.jpg,stimuli/scenes/077b.jpg,stimuli/scenes/022a.jpg,stimuli/scenes/022b.jpg,stimuli/scenes/077a.jpg,dist2,target,lure,dist1,0,0,0,1,0,70,70,13,,,,,,,,,,,316.1758733000024,None,317.1921678999788,None,317.1921678999788,None,317.1921678999788,None,317.1921678999788,None,317.1921678999788,None,317.1921678999788,None,317.1921678999788,None,317.1921678999788,None,317.1921678999788,None,317.1921678999788,None,317.1921678999788,None,f,2.8991864999989048,317.1921678999788,None,target,None,None,None,None,None,,,,,,,,,,,,,,student1,2022-10-20_16h11.08.893,Hippopolis_4AFCT,2021.1.4,59.94229953924141,
Camponello,stimuli/subj_files/student1_cityB.csv,./stimuli/leipzig.jpg,./stimuli/street_plate2.png,FÉSZEK UTCA,stimuli/objects/042a.jpg,object,1,stimuli/objects/044a.jpg,stimuli/scenes/020b.jpg,stimuli/objects/044a.jpg,stimuli/scenes/020a.jpg,stimuli/objects/044b.jpg,dist2,target,dist1,lure,0,0,0,1,0,71,71,10,,,,,,,,,,,320.1085390999797,None,321.1225995999994,None,321.1225995999994,None,321.1225995999994,None,321.1225995999994,None,321.1225995999994,None,321.1225995999994,None,321.1225995999994,None,321.1225995999994,None,321.1225995999994,None,321.1225995999994,None,321.1225995999994,None,None,,321.1225995999994,None,invalid,None,None,None,None,None,,,,,,,,,,,,,,student1,2022-10-20_16h11.08.893,Hippopolis_4AFCT,2021.1.4,59.94229953924141,
Camponello,stimuli/subj_files/student1_cityB.csv,./stimuli/leipzig.jpg,./stimuli/street_plate2.png,PAPRIKA UTCA,stimuli/objects/033a.jpg,object,0,stimuli/objects/033a.jpg,stimuli/scenes/023a.jpg,stimuli/objects/033b.jpg,stimuli/scenes/023b.jpg,stimuli/objects/033a.jpg,dist1,lure,dist2,target,0,0,0,1,0,72,72,30,,,,,,,,,,,326.1251207999885,None,327.13529199999175,None,327.13529199999175,None,327.13529199999175,None,327.13529199999175,None,327.13529199999175,None,327.13529199999175,None,327.13529199999175,None,327.13529199999175,None,327.13529199999175,None,327.13529199999175,None,327.13529199999175,None,k,2.050573299988173,327.13529199999175,None,target,None,None,None,None,None,,,,,,,,,,,,,,student1,2022-10-20_16h11.08.893,Hippopolis_4AFCT,2021.1.4,59.94229953924141,
Camponello,stimuli/subj_files/student1_cityB.csv,./stimuli/leipzig.jpg,./stimuli/street_plate2.png,SZILVA UTCA,stimuli/objects/105a.jpg,object,0,stimuli/objects/105a.jpg,stimuli/objects/049b.jpg,stimuli/objects/105b.jpg,stimuli/objects/049a.jpg,stimuli/objects/105a.jpg,dist2,lure,dist1,target,0,0,0,1,0,73,73,36,,,,,,,,,,,329.2089560999884,None,330.22446490000584,None,330.22446490000584,None,330.22446490000584,None,330.22446490000584,None,330.22446490000584,None,330.22446490000584,None,330.22446490000584,None,330.22446490000584,None,330.22446490000584,None,330.22446490000584,None,330.22446490000584,None,k,4.8260744999861345,330.22446490000584,None,target,None,None,None,None,None,,,,,,,,,,,,,,student1,2022-10-20_16h11.08.893,Hippopolis_4AFCT,2021.1.4,59.94229953924141,
Camponello,stimuli/subj_files/student1_cityB.csv,./stimuli/leipzig.jpg,./stimuli/street_plate2.png,MENTA UTCA,stimuli/objects/092a.jpg,object,0,stimuli/objects/092a.jpg,stimuli/scenes/069a.jpg,stimuli/scenes/069b.jpg,stimuli/objects/092a.jpg,stimuli/objects/092b.jpg,dist1,dist2,target,lure,0,0,0,1,0,74,74,67,,,,,,,,,,,335.07523950000177,None,336.0862275999971,None,336.0862275999971,None,336.0862275999971,None,336.0862275999971,None,336.0862275999971,None,336.0862275999971,None,336.0862275999971,None,336.0862275999971,None,336.0862275999971,None,336.0862275999971,None,336.0862275999971,None,j,1.9988655999768525,336.0862275999971,None,target,None,None,None,None,None,,,,,,,,,,,,,,student1,2022-10-20_16h11.08.893,Hippopolis_4AFCT,2021.1.4,59.94229953924141,
Camponello,stimuli/subj_files/student1_cityB.csv,./stimuli/leipzig.jpg,./stimuli/street_plate2.png,KRÉTA UTCA,stimuli/scenes/091a.jpg,scene,0,stimuli/scenes/091a.jpg,stimuli/scenes/098b.jpg,stimuli/scenes/091b.jpg,stimuli/scenes/098a.jpg,stimuli/scenes/091a.jpg,dist2,lure,dist1,target,0,0,0,1,0,75,75,21,,,,,,,,,,,338.1081756000058,None,339.12400199999684,None,339.12400199999684,None,339.12400199999684,None,339.12400199999684,None,339.12400199999684,None,339.12400199999684,None,339.12400199999684,None,339.12400199999684,None,339.12400199999684,None,339.12400199999684,None,339.12400199999684,None,k,3.171897500025807,339.12400199999684,None,target,None,None,None,None,None,,,,,,,,,,,,,,student1,2022-10-20_16h11.08.893,Hippopolis_4AFCT,2021.1.4,59.94229953924141,
Camponello,stimuli/subj_files/student1_cityB.csv,./stimuli/leipzig.jpg,./stimuli/street_plate2.png,GYŰRŰ UTCA,stimuli/objects/056a.jpg,object,1,stimuli/objects/013a.jpg,stimuli/objects/013b.jpg,stimuli/objects/087b.jpg,stimuli/objects/013a.jpg,stimuli/objects/087a.jpg,lure,dist2,target,dist1,0,0,0,1,0,76,76,22,,,,,,,,,,,342.3248238999804,None,343.3324666999979,None,343.3324666999979,None,343.3324666999979,None,343.3324666999979,None,343.3324666999979,None,343.3324666999979,None,343.3324666999979,None,343.3324666999979,None,343.3324666999979,None,343.3324666999979,None,343.3324666999979,None,j,2.201480599993374,343.3324666999979,None,target,None,None,None,None,None,,,,,,,,,,,,,,student1,2022-10-20_16h11.08.893,Hippopolis_4AFCT,2021.1.4,59.94229953924141,
Camponello,stimuli/subj_files/student1_cityB.csv,./stimuli/leipzig.jpg,./stimuli/street_plate2.png,KOCSI UTCA,stimuli/scenes/114a.jpg,scene,0,stimuli/scenes/114a.jpg,stimuli/objects/082b.jpg,stimuli/scenes/114b.jpg,stimuli/scenes/114a.jpg,stimuli/objects/082a.jpg,dist2,lure,target,dist1,0,0,0,1,0,77,77,69,,,,,,,,,,,345.55863059998956,None,346.5743467999855,None,346.5743467999855,None,346.5743467999855,None,346.5743467999855,None,346.5743467999855,None,346.5743467999855,None,346.5743467999855,None,346.5743467999855,None,346.5743467999855,None,346.5743467999855,None,346.5743467999855,None,j,1.6112665999971796,346.5743467999855,None,target,None,None,None,None,None,,,,,,,,,,,,,,student1,2022-10-20_16h11.08.893,Hippopolis_4AFCT,2021.1.4,59.94229953924141,
Camponello,stimuli/subj_files/student1_cityB.csv,./stimuli/leipzig.jpg,./stimuli/street_plate2.png,TIGRIS UTCA,stimuli/scenes/021a.jpg,scene,0,stimuli/scenes/021a.jpg,stimuli/scenes/022b.jpg,stimuli/scenes/021a.jpg,stimuli/scenes/021b.jpg,stimuli/scenes/022a.jpg,dist2,target,lure,dist1,0,0,0,1,0,78,78,68,,,,,,,,,,,348.2085876999772,None,349.21332799998345,None,349.21332799998345,None,349.21332799998345,None,349.21332799998345,None,349.21332799998345,None,349.21332799998345,None,349.21332799998345,None,349.21332799998345,None,349.21332799998345,None,349.21332799998345,None,349.21332799998345,None,f,2.500097400014056,349.21332799998345,None,target,None,None,None,None,None,,,,,,,,,,,,,,student1,2022-10-20_16h11.08.893,Hippopolis_4AFCT,2021.1.4,59.94229953924141,
Camponello,stimuli/subj_files/student1_cityB.csv,./stimuli/leipzig.jpg,./stimuli/street_plate2.png,SZALVÉTA UTCA,stimuli/objects/072a.jpg,object,0,stimuli/objects/072a.jpg,stimuli/scenes/045b.jpg,stimuli/scenes/045a.jpg,stimuli/objects/072b.jpg,stimuli/objects/072a.jpg,dist2,dist1,lure,target,0,0,0,1,0,79,79,54,,,,,,,,,,,351.7418672000058,None,352.7505443999835,None,352.7505443999835,None,352.7505443999835,None,352.7505443999835,None,352.7505443999835,None,352.7505443999835,None,352.7505443999835,None,352.7505443999835,None,352.7505443999835,None,352.7505443999835,None,352.7505443999835,None,k,1.7459656999853905,352.7505443999835,None,target,None,None,None,None,None,,,,,,,,,,,,,,student1,2022-10-20_16h11.08.893,Hippopolis_4AFCT,2021.1.4,59.94229953924141,
Hippopolis,stimuli/subj_files/student1_cityA.csv,./stimuli/frankfurt.jpg,./stimuli/street_plate1.png,TOJÁS UTCA,stimuli/objects/021a.jpg,object,2,stimuli/scenes/034a.jpg,stimuli/scenes/034a.jpg,stimuli/objects/059a.jpg,stimuli/objects/059b.jpg,stimuli/scenes/034b.jpg,target,dist1,dist2,lure,0,1,1,0,0,0,0,37,,,,,,,358.5453698000056,None,358.5453698000056,None,361.55056400000467,None,362.57662169999094,None,362.57662169999094,None,362.57662169999094,None,362.57662169999094,None,362.57662169999094,None,362.57662169999094,None,362.57662169999094,None,362.57662169999094,None,362.57662169999094,None,362.57662169999094,None,362.57662169999094,None,None,,362.57662169999094,None,invalid,None,None,None,None,None,,69,3,0,1,354.5253572999791,None,space,3.9735215000109747,354.5253572999791,None,,,student1,2022-10-20_16h11.08.893,Hippopolis_4AFCT,2021.1.4,59.94229953924141,
Hippopolis,stimuli/subj_files/student1_cityA.csv,./stimuli/frankfurt.jpg,./stimuli/street_plate1.png,ZSEMLE UTCA,stimuli/objects/115a.jpg,object,1,stimuli/objects/053a.jpg,stimuli/objects/007a.jpg,stimuli/objects/053a.jpg,stimuli/objects/007b.jpg,stimuli/objects/053b.jpg,dist1,target,dist2,lure,0,1,1,0,0,1,1,47,,,,,,,,,,,367.54102269999566,None,368.56874089999474,None,368.56874089999474,None,368.56874089999474,None,368.56874089999474,None,368.56874089999474,None,368.56874089999474,None,368.56874089999474,None,368.56874089999474,None,368.56874089999474,None,368.56874089999474,None,368.56874089999474,None,k,4.3100487000192516,368.56874089999474,None,lure,None,None,None,None,None,,,,,,,,,,,,,,student1,2022-10-20_16h11.08.893,Hippopolis_4AFCT,2021.1.4,59.94229953924141,
Hippopolis,stimuli/subj_files/student1_cityA.csv,./stimuli/frankfurt.jpg,./stimuli/street_plate1.png,PÁFRÁNY UTCA,stimuli/scenes/101a.jpg,scene,0,stimuli/scenes/101a.jpg,stimuli/scenes/101a.jpg,stimuli/scenes/101b.jpg,stimuli/objects/051a.jpg,stimuli/objects/051b.jpg,target,lure,dist1,dist2,0,1,1,0,0,2,2,0,,,,,,,,,,,372.907904599997,None,373.9265902999905,None,373.9265902999905,None,373.9265902999905,None,373.9265902999905,None,373.9265902999905,None,373.9265902999905,None,373.9265902999905,None,373.9265902999905,None,373.9265902999905,None,373.9265902999905,None,373.9265902999905,None,d,3.0214668000116944,373.9265902999905,None,target,None,None,None,None,None,,,,,,,,,,,,,,student1,2022-10-20_16h11.08.893,Hippopolis_4AFCT,2021.1.4,59.94229953924141,
Hippopolis,stimuli/subj_files/student1_cityA.csv,./stimuli/frankfurt.jpg,./stimuli/street_plate1.png,VÖDÖR UTCA,stimuli/scenes/055a.jpg,scene,1,stimuli/scenes/088a.jpg,stimuli/scenes/088b.jpg,stimuli/scenes/088a.jpg,stimuli/scenes/087b.jpg,stimuli/scenes/087a.jpg,lure,target,dist2,dist1,0,1,1,0,0,3,3,56,,,,,,,,,,,376.97405269998126,None,378.0073924000026,None,378.0073924000026,None,378.0073924000026,None,378.0073924000026,None,378.0073924000026,None,378.0073924000026,None,378.0073924000026,None,378.0073924000026,None,378.0073924000026,None,378.0073924000026,None,378.0073924000026,None,f,2.0670487000024877,378.0073924000026,None,target,None,None,None,None,None,,,,,,,,,,,,,,student1,2022-10-20_16h11.08.893,Hippopolis_4AFCT,2021.1.4,59.94229953924141,
Hippopolis,stimuli/subj_files/student1_cityA.csv,./stimuli/frankfurt.jpg,./stimuli/street_plate1.png,KÖTÉNY UTCA,stimuli/scenes/031a.jpg,scene,1,stimuli/scenes/064a.jpg,stimuli/objects/103a.jpg,stimuli/objects/103b.jpg,stimuli/scenes/064b.jpg,stimuli/scenes/064a.jpg,dist1,dist2,lure,target,0,1,1,0,0,4,4,22,,,,,,,,,,,380.09101899998495,None,381.1187093000044,None,381.1187093000044,None,381.1187093000044,None,381.1187093000044,None,381.1187093000044,None,381.1187093000044,None,381.1187093000044,None,381.1187093000044,None,381.1187093000044,None,381.1187093000044,None,381.1187093000044,None,k,2.442031999991741,381.1187093000044,None,target,None,None,None,None,None,,,,,,,,,,,,,,student1,2022-10-20_16h11.08.893,Hippopolis_4AFCT,2021.1.4,59.94229953924141,
Hippopolis,stimuli/subj_files/student1_cityA.csv,./stimuli/frankfurt.jpg,./stimuli/street_plate1.png,BONBON UTCA,stimuli/objects/095a.jpg,object,2,stimuli/scenes/007a.jpg,stimuli/objects/028b.jpg,stimuli/objects/028a.jpg,stimuli/scenes/007a.jpg,stimuli/scenes/007b.jpg,dist2,dist1,target,lure,0,1,1,0,0,5,5,72,,,,,,,,,,,383.5912918999966,None,384.62093010000535,None,384.62093010000535,None,384.62093010000535,None,384.62093010000535,None,384.62093010000535,None,384.62093010000535,None,384.62093010000535,None,384.62093010000535,None,384.62093010000535,None,384.62093010000535,None,384.62093010000535,None,j,2.8869663000223227,384.62093010000535,None,target,None,None,None,None,None,,,,,,,,,,,,,,student1,2022-10-20_16h11.08.893,Hippopolis_4AFCT,2021.1.4,59.94229953924141,
Hippopolis,stimuli/subj_files/student1_cityA.csv,./stimuli/frankfurt.jpg,./stimuli/street_plate1.png,PETÁRDA UTCA,stimuli/objects/009a.jpg,object,0,stimuli/objects/009a.jpg,stimuli/objects/009a.jpg,stimuli/scenes/051a.jpg,stimuli/objects/009b.jpg,stimuli/scenes/051b.jpg,target,dist1,lure,dist2,0,1,1,0,0,6,6,64,,,,,,,,,,,387.54070189999766,None,388.56572049998795,None,388.56572049998795,None,388.56572049998795,None,388.56572049998795,None,388.56572049998795,None,388.56572049998795,None,388.56572049998795,None,388.56572049998795,None,388.56572049998795,None,388.56572049998795,None,388.56572049998795,None,j,2.5086603999952786,388.56572049998795,None,lure,None,None,None,None,None,,,,,,,,,,,,,,student1,2022-10-20_16h11.08.893,Hippopolis_4AFCT,2021.1.4,59.94229953924141,
Hippopolis,stimuli/subj_files/student1_cityA.csv,./stimuli/frankfurt.jpg,./stimuli/street_plate1.png,FOGAS UTCA,stimuli/scenes/025a.jpg,scene,1,stimuli/scenes/018a.jpg,stimuli/scenes/018b.jpg,stimuli/scenes/064a.jpg,stimuli/scenes/018a.jpg,stimuli/scenes/064b.jpg,lure,dist1,target,dist2,0,1,1,0,0,7,7,38,,,,,,,,,,,391.10737389998394,None,392.1228318999929,None,392.1228318999929,None,392.1228318999929,None,392.1228318999929,None,392.1228318999929,None,392.1228318999929,None,392.1228318999929,None,392.1228318999929,None,392.1228318999929,None,392.1228318999929,None,392.1228318999929,None,j,3.6328826999815647,392.1228318999929,None,target,None,None,None,None,None,,,,,,,,,,,,,,student1,2022-10-20_16h11.08.893,Hippopolis_4AFCT,2021.1.4,59.94229953924141,
Hippopolis,stimuli/subj_files/student1_cityA.csv,./stimuli/frankfurt.jpg,./stimuli/street_plate1.png,BOLYGÓ UTCA,stimuli/scenes/118a.jpg,scene,1,stimuli/scenes/087a.jpg,stimuli/objects/011a.jpg,stimuli/scenes/087b.jpg,stimuli/objects/011b.jpg,stimuli/scenes/087a.jpg,dist1,lure,dist2,target,0,1,1,0,0,8,8,31,,,,,,,,,,,395.7739307000011,None,396.79245089998585,None,396.79245089998585,None,396.79245089998585,None,396.79245089998585,None,396.79245089998585,None,396.79245089998585,None,396.79245089998585,None,396.79245089998585,None,396.79245089998585,None,396.79245089998585,None,396.79245089998585,None,d,3.2888121000141837,396.79245089998585,None,dist1,None,None,None,None,None,,,,,,,,,,,,,,student1,2022-10-20_16h11.08.893,Hippopolis_4AFCT,2021.1.4,59.94229953924141,
Hippopolis,stimuli/subj_files/student1_cityA.csv,./stimuli/frankfurt.jpg,./stimuli/street_plate1.png,LIGET UTCA,stimuli/objects/038a.jpg,object,2,stimuli/scenes/109a.jpg,stimuli/scenes/109a.jpg,stimuli/objects/055a.jpg,stimuli/scenes/109b.jpg,stimuli/objects/055b.jpg,target,dist1,lure,dist2,0,1,1,0,0,9,9,62,,,,,,,,,,,400.10769109998364,None,401.13618359999964,None,401.13618359999964,None,401.13618359999964,None,401.13618359999964,None,401.13618359999964,None,401.13618359999964,None,401.13618359999964,None,401.13618359999964,None,401.13618359999964,None,401.13618359999964,None,401.13618359999964,None,d,3.159499200002756,401.13618359999964,None,target,None,None,None,None,None,,,,,,,,,,,,,,student1,2022-10-20_16h11.08.893,Hippopolis_4AFCT,2021.1.4,59.94229953924141,
Hippopolis,stimuli/subj_files/student1_cityA.csv,./stimuli/frankfurt.jpg,./stimuli/street_plate1.png,FÉNYKÉP UTCA,stimuli/scenes/010a.jpg,scene,1,stimuli/scenes/078a.jpg,stimuli/scenes/088a.jpg,stimuli/scenes/078a.jpg,stimuli/scenes/088b.jpg,stimuli/scenes/078b.jpg,dist1,target,dist2,lure,0,1,1,0,0,10,10,32,,,,,,,,,,,404.32401859998936,None,405.34168290000525,None,405.34168290000525,None,405.34168290000525,None,405.34168290000525,None,405.34168290000525,None,405.34168290000525,None,405.34168290000525,None,405.34168290000525,None,405.34168290000525,None,405.34168290000525,None,405.34168290000525,None,f,2.493456399999559,405.34168290000525,None,target,None,None,None,None,None,,,,,,,,,,,,,,student1,2022-10-20_16h11.08.893,Hippopolis_4AFCT,2021.1.4,59.94229953924141,
Hippopolis,stimuli/subj_files/student1_cityA.csv,./stimuli/frankfurt.jpg,./stimuli/street_plate1.png,KORONA UTCA,stimuli/scenes/108a.jpg,scene,1,stimuli/scenes/011a.jpg,stimuli/objects/076a.jpg,stimuli/scenes/011b.jpg,stimuli/objects/076b.jpg,stimuli/scenes/011a.jpg,dist1,lure,dist2,target,0,1,1,0,0,11,11,9,,,,,,,,,,,407.85758219999843,None,408.89289289998123,None,408.89289289998123,None,408.89289289998123,None,408.89289289998123,None,408.89289289998123,None,408.89289289998123,None,408.89289289998123,None,408.89289289998123,None,408.89289289998123,None,408.89289289998123,None,408.89289289998123,None,None,,408.89289289998123,None,invalid,None,None,None,None,None,,,,,,,,,,,,,,student1,2022-10-20_16h11.08.893,Hippopolis_4AFCT,2021.1.4,59.94229953924141,
Hippopolis,stimuli/subj_files/student1_cityA.csv,./stimuli/frankfurt.jpg,./stimuli/street_plate1.png,LAKAT UTCA,stimuli/objects/066a.jpg,object,2,stimuli/scenes/084a.jpg,stimuli/scenes/084b.jpg,stimuli/scenes/034a.jpg,stimuli/scenes/084a.jpg,stimuli/scenes/034b.jpg,lure,dist1,target,dist2,0,1,1,0,0,12,12,58,,,,,,,,,,,413.8737715999887,None,414.89051669999026,None,414.89051669999026,None,414.89051669999026,None,414.89051669999026,None,414.89051669999026,None,414.89051669999026,None,414.89051669999026,None,414.89051669999026,None,414.89051669999026,None,414.89051669999026,None,414.89051669999026,None,j,3.7669813000247814,414.89051669999026,None,target,None,None,None,None,None,,,,,,,,,,,,,,student1,2022-10-20_16h11.08.893,Hippopolis_4AFCT,2021.1.4,59.94229953924141,
Hippopolis,stimuli/subj_files/student1_cityA.csv,./stimuli/frankfurt.jpg,./stimuli/street_plate1.png,KÖNYVTÁR UTCA,stimuli/objects/113a.jpg,object,1,stimuli/objects/109a.jpg,stimuli/objects/109a.jpg,stimuli/objects/109b.jpg,stimuli/scenes/067a.jpg,stimuli/scenes/067b.jpg,target,lure,dist1,dist2,0,1,1,0,0,13,13,42,,,,,,,,,,,418.69086869998137,None,419.7264842999866,None,419.7264842999866,None,419.7264842999866,None,419.7264842999866,None,419.7264842999866,None,419.7264842999866,None,419.7264842999866,None,419.7264842999866,None,419.7264842999866,None,419.7264842999866,None,419.7264842999866,None,f,4.290640299994266,419.7264842999866,None,lure,None,None,None,None,None,,,,,,,,,,,,,,student1,2022-10-20_16h11.08.893,Hippopolis_4AFCT,2021.1.4,59.94229953924141,
Hippopolis,stimuli/subj_files/student1_cityA.csv,./stimuli/frankfurt.jpg,./stimuli/street_plate1.png,SZOMSZÉD UTCA,stimuli/objects/026a.jpg,object,1,stimuli/objects/004a.jpg,stimuli/objects/027b.jpg,stimuli/objects/004b.jpg,stimuli/objects/004a.jpg,stimuli/objects/027a.jpg,dist2,lure,target,dist1,0,1,1,0,0,14,14,65,,,,,,,,,,,424.040615099977,None,425.08749959999113,None,425.08749959999113,None,425.08749959999113,None,425.08749959999113,None,425.08749959999113,None,425.08749959999113,None,425.08749959999113,None,425.08749959999113,None,425.08749959999113,None,425.08749959999113,None,425.08749959999113,None,j,2.73924990001251,425.08749959999113,None,target,None,None,None,None,None,,,,,,,,,,,,,,student1,2022-10-20_16h11.08.893,Hippopolis_4AFCT,2021.1.4,59.94229953924141,
Hippopolis,stimuli/subj_files/student1_cityA.csv,./stimuli/frankfurt.jpg,./stimuli/street_plate1.png,KARTON UTCA,stimuli/objects/101a.jpg,object,2,stimuli/scenes/044a.jpg,stimuli/scenes/074a.jpg,stimuli/scenes/044b.jpg,stimuli/scenes/044a.jpg,stimuli/scenes/074b.jpg,dist1,lure,target,dist2,0,1,1,0,0,15,15,8,,,,,,,,,,,427.8572057999845,None,428.8868894999905,None,428.8868894999905,None,428.8868894999905,None,428.8868894999905,None,428.8868894999905,None,428.8868894999905,None,428.8868894999905,None,428.8868894999905,None,428.8868894999905,None,428.8868894999905,None,428.8868894999905,None,j,3.3971050000109244,428.8868894999905,None,target,None,None,None,None,None,,,,,,,,,,,,,,student1,2022-10-20_16h11.08.893,Hippopolis_4AFCT,2021.1.4,59.94229953924141,
Hippopolis,stimuli/subj_files/student1_cityA.csv,./stimuli/frankfurt.jpg,./stimuli/street_plate1.png,HAJÓ UTCA,stimuli/objects/086a.jpg,object,1,stimuli/objects/041a.jpg,stimuli/scenes/014a.jpg,stimuli/scenes/014b.jpg,stimuli/objects/041a.jpg,stimuli/objects/041b.jpg,dist1,dist2,target,lure,0,1,1,0,0,16,16,71,,,,,,,,,,,432.3072568999778,None,433.3447177000053,None,433.3447177000053,None,433.3447177000053,None,433.3447177000053,None,433.3447177000053,None,433.3447177000053,None,433.3447177000053,None,433.3447177000053,None,433.3447177000053,None,433.3447177000053,None,433.3447177000053,None,j,2.961475599993719,433.3447177000053,None,target,None,None,None,None,None,,,,,,,,,,,,,,student1,2022-10-20_16h11.08.893,Hippopolis_4AFCT,2021.1.4,59.94229953924141,
Hippopolis,stimuli/subj_files/student1_cityA.csv,./stimuli/frankfurt.jpg,./stimuli/street_plate1.png,AJÁNDÉK UTCA,stimuli/scenes/005a.jpg,scene,1,stimuli/scenes/009a.jpg,stimuli/scenes/078b.jpg,stimuli/scenes/078a.jpg,stimuli/scenes/009a.jpg,stimuli/scenes/009b.jpg,dist2,dist1,target,lure,0,1,1,0,0,17,17,28,,,,,,,,,,,436.3233002999914,None,437.34681469999487,None,437.34681469999487,None,437.34681469999487,None,437.34681469999487,None,437.34681469999487,None,437.34681469999487,None,437.34681469999487,None,437.34681469999487,None,437.34681469999487,None,437.34681469999487,None,437.34681469999487,None,j,2.4927860000170767,437.34681469999487,None,target,None,None,None,None,None,,,,,,,,,,,,,,student1,2022-10-20_16h11.08.893,Hippopolis_4AFCT,2021.1.4,59.94229953924141,
Hippopolis,stimuli/subj_files/student1_cityA.csv,./stimuli/frankfurt.jpg,./stimuli/street_plate1.png,KOKTÉL UTCA,stimuli/scenes/008a.jpg,scene,2,stimuli/objects/012a.jpg,stimuli/objects/036b.jpg,stimuli/objects/012b.jpg,stimuli/objects/036a.jpg,stimuli/objects/012a.jpg,dist2,lure,dist1,target,0,1,1,0,0,18,18,46,,,,,,,,,,,439.8565729999973,None,440.8937218999781,None,440.8937218999781,None,440.8937218999781,None,440.8937218999781,None,440.8937218999781,None,440.8937218999781,None,440.8937218999781,None,440.8937218999781,None,440.8937218999781,None,440.8937218999781,None,440.8937218999781,None,k,3.5932945999957155,440.8937218999781,None,target,None,None,None,None,None,,,,,,,,,,,,,,student1,2022-10-20_16h11.08.893,Hippopolis_4AFCT,2021.1.4,59.94229953924141,
Hippopolis,stimuli/subj_files/student1_cityA.csv,./stimuli/frankfurt.jpg,./stimuli/street_plate1.png,OROSZLÁN UTCA,stimuli/scenes/072a.jpg,scene,0,stimuli/scenes/072a.jpg,stimuli/scenes/072a.jpg,stimuli/scenes/072b.jpg,stimuli/scenes/027b.jpg,stimuli/scenes/027a.jpg,target,lure,dist2,dist1,0,1,1,0,0,19,19,66,,,,,,,,,,,444.5062210999895,None,445.54195109999273,None,445.54195109999273,None,445.54195109999273,None,445.54195109999273,None,445.54195109999273,None,445.54195109999273,None,445.54195109999273,None,445.54195109999273,None,445.54195109999273,None,445.54195109999273,None,445.54195109999273,None,d,2.7203230999875814,445.54195109999273,None,target,None,None,None,None,None,,,,,,,,,,,,,,student1,2022-10-20_16h11.08.893,Hippopolis_4AFCT,2021.1.4,59.94229953924141,
Hippopolis,stimuli/subj_files/student1_cityA.csv,./stimuli/frankfurt.jpg,./stimuli/street_plate1.png,SIVATAG UTCA,stimuli/scenes/016a.jpg,scene,2,stimuli/objects/046a.jpg,stimuli/objects/046b.jpg,stimuli/objects/006a.jpg,stimuli/objects/006b.jpg,stimuli/objects/046a.jpg,lure,dist1,dist2,target,0,1,1,0,0,20,20,23,,,,,,,,,,,448.29017569997814,None,449.3257592000009,None,449.3257592000009,None,449.3257592000009,None,449.3257592000009,None,449.3257592000009,None,449.3257592000009,None,449.3257592000009,None,449.3257592000009,None,449.3257592000009,None,449.3257592000009,None,449.3257592000009,None,k,4.613863100006711,449.3257592000009,None,target,None,None,None,None,None,,,,,,,,,,,,,,student1,2022-10-20_16h11.08.893,Hippopolis_4AFCT,2021.1.4,59.94229953924141,
Hippopolis,stimuli/subj_files/student1_cityA.csv,./stimuli/frankfurt.jpg,./stimuli/street_plate1.png,KÖMÉNYMAG UTCA,stimuli/objects/068a.jpg,object,1,stimuli/objects/045a.jpg,stimuli/objects/045a.jpg,stimuli/objects/045b.jpg,stimuli/objects/071a.jpg,stimuli/objects/071b.jpg,target,lure,dist1,dist2,0,1,1,0,0,21,21,18,,,,,,,,,,,453.95667279997724,None,454.9903082999808,None,454.9903082999808,None,454.9903082999808,None,454.9903082999808,None,454.9903082999808,None,454.9903082999808,None,454.9903082999808,None,454.9903082999808,None,454.9903082999808,None,454.9903082999808,None,454.9903082999808,None,d,2.022391800011974,454.9903082999808,None,target,None,None,None,None,None,,,,,,,,,,,,,,student1,2022-10-20_16h11.08.893,Hippopolis_4AFCT,2021.1.4,59.94229953924141,
Hippopolis,stimuli/subj_files/student1_cityA.csv,./stimuli/frankfurt.jpg,./stimuli/street_plate1.png,KERÉK UTCA,stimuli/scenes/096a.jpg,scene,1,stimuli/scenes/041a.jpg,stimuli/scenes/117a.jpg,stimuli/scenes/041b.jpg,stimuli/scenes/041a.jpg,stimuli/scenes/117b.jpg,dist1,lure,target,dist2,0,1,1,0,0,22,22,20,,,,,,,,,,,457.03999819999444,None,458.0839103999897,None,458.0839103999897,None,458.0839103999897,None,458.0839103999897,None,458.0839103999897,None,458.0839103999897,None,458.0839103999897,None,458.0839103999897,None,458.0839103999897,None,458.0839103999897,None,458.0839103999897,None,j,1.5248408000043128,458.0839103999897,None,target,None,None,None,None,None,,,,,,,,,,,,,,student1,2022-10-20_16h11.08.893,Hippopolis_4AFCT,2021.1.4,59.94229953924141,
Hippopolis,stimuli/subj_files/student1_cityA.csv,./stimuli/frankfurt.jpg,./stimuli/street_plate1.png,PÉKSÉG UTCA,stimuli/scenes/073a.jpg,scene,2,stimuli/objects/059a.jpg,stimuli/objects/059a.jpg,stimuli/objects/046b.jpg,stimuli/objects/059b.jpg,stimuli/objects/046a.jpg,target,dist2,lure,dist1,0,1,1,0,0,23,23,61,,,,,,,,,,,459.6397330999898,None,460.6560375999834,None,460.6560375999834,None,460.6560375999834,None,460.6560375999834,None,460.6560375999834,None,460.6560375999834,None,460.6560375999834,None,460.6560375999834,None,460.6560375999834,None,460.6560375999834,None,460.6560375999834,None,k,4.230831499997294,460.6560375999834,None,dist1,None,None,None,None,None,,,,,,,,,,,,,,student1,2022-10-20_16h11.08.893,Hippopolis_4AFCT,2021.1.4,59.94229953924141,
Hippopolis,stimuli/subj_files/student1_cityA.csv,./stimuli/frankfurt.jpg,./stimuli/street_plate1.png,PAPAGÁJ UTCA,stimuli/objects/093a.jpg,object,2,stimuli/scenes/097a.jpg,stimuli/scenes/097a.jpg,stimuli/scenes/109b.jpg,stimuli/scenes/109a.jpg,stimuli/scenes/097b.jpg,target,dist2,dist1,lure,0,1,1,0,0,24,24,55,,,,,,,,,,,464.90623359999154,None,465.9230710999982,None,465.9230710999982,None,465.9230710999982,None,465.9230710999982,None,465.9230710999982,None,465.9230710999982,None,465.9230710999982,None,465.9230710999982,None,465.9230710999982,None,465.9230710999982,None,465.9230710999982,None,d,2.8085732999898028,465.9230710999982,None,target,None,None,None,None,None,,,,,,,,,,,,,,student1,2022-10-20_16h11.08.893,Hippopolis_4AFCT,2021.1.4,59.94229953924141,
Hippopolis,stimuli/subj_files/student1_cityA.csv,./stimuli/frankfurt.jpg,./stimuli/street_plate1.png,MOCSÁR UTCA,stimuli/objects/080a.jpg,object,0,stimuli/objects/080a.jpg,stimuli/objects/080b.jpg,stimuli/objects/080a.jpg,stimuli/scenes/043b.jpg,stimuli/scenes/043a.jpg,lure,target,dist2,dist1,0,1,1,0,0,25,25,17,,,,,,,,,,,468.7566140999843,None,469.7853606999852,None,469.7853606999852,None,469.7853606999852,None,469.7853606999852,None,469.7853606999852,None,469.7853606999852,None,469.7853606999852,None,469.7853606999852,None,469.7853606999852,None,469.7853606999852,None,469.7853606999852,None,f,1.6026987000077497,469.7853606999852,None,target,None,None,None,None,None,,,,,,,,,,,,,,student1,2022-10-20_16h11.08.893,Hippopolis_4AFCT,2021.1.4,59.94229953924141,
Hippopolis,stimuli/subj_files/student1_cityA.csv,./stimuli/frankfurt.jpg,./stimuli/street_plate1.png,EGÉR UTCA,stimuli/scenes/071a.jpg,scene,1,stimuli/scenes/116a.jpg,stimuli/scenes/116b.jpg,stimuli/scenes/116a.jpg,stimuli/scenes/009b.jpg,stimuli/scenes/009a.jpg,lure,target,dist2,dist1,0,1,1,0,0,26,26,29,,,,,,,,,,,471.40611300000455,None,472.42635989998234,None,472.42635989998234,None,472.42635989998234,None,472.42635989998234,None,472.42635989998234,None,472.42635989998234,None,472.42635989998234,None,472.42635989998234,None,472.42635989998234,None,472.42635989998234,None,472.42635989998234,None,None,,472.42635989998234,None,invalid,None,None,None,None,None,,,,,,,,,,,,,,student1,2022-10-20_16h11.08.893,Hippopolis_4AFCT,2021.1.4,59.94229953924141,
Hippopolis,stimuli/subj_files/student1_cityA.csv,./stimuli/frankfurt.jpg,./stimuli/street_plate1.png,HARMONIKA UTCA,stimuli/scenes/024a.jpg,scene,0,stimuli/scenes/024a.jpg,stimuli/scenes/101b.jpg,stimuli/scenes/024b.jpg,stimuli/scenes/101a.jpg,stimuli/scenes/024a.jpg,dist2,lure,dist1,target,0,1,1,0,0,27,27,25,,,,,,,,,,,477.42247639998095,None,478.4404452999879,None,478.4404452999879,None,478.4404452999879,None,478.4404452999879,None,478.4404452999879,None,478.4404452999879,None,478.4404452999879,None,478.4404452999879,None,478.4404452999879,None,478.4404452999879,None,478.4404452999879,None,k,3.3706339000200387,478.4404452999879,None,target,None,None,None,None,None,,,,,,,,,,,,,,student1,2022-10-20_16h11.08.893,Hippopolis_4AFCT,2021.1.4,59.94229953924141,
Hippopolis,stimuli/subj_files/student1_cityA.csv,./stimuli/frankfurt.jpg,./stimuli/street_plate1.png,PADLÓ UTCA,stimuli/objects/100a.jpg,object,0,stimuli/objects/100a.jpg,stimuli/scenes/058a.jpg,stimuli/scenes/058b.jpg,stimuli/objects/100a.jpg,stimuli/objects/100b.jpg,dist1,dist2,target,lure,0,1,1,0,0,28,28,59,,,,,,,,,,,481.8390647000051,None,482.8612862000009,None,482.8612862000009,None,482.8612862000009,None,482.8612862000009,None,482.8612862000009,None,482.8612862000009,None,482.8612862000009,None,482.8612862000009,None,482.8612862000009,None,482.8612862000009,None,482.8612862000009,None,j,2.760876600019401,482.8612862000009,None,target,None,None,None,None,None,,,,,,,,,,,,,,student1,2022-10-20_16h11.08.893,Hippopolis_4AFCT,2021.1.4,59.94229953924141,
Hippopolis,stimuli/subj_files/student1_cityA.csv,./stimuli/frankfurt.jpg,./stimuli/street_plate1.png,TELEP UTCA,stimuli/scenes/048a.jpg,scene,2,stimuli/objects/120a.jpg,stimuli/objects/120a.jpg,stimuli/objects/120b.jpg,stimuli/scenes/119b.jpg,stimuli/scenes/119a.jpg,target,lure,dist2,dist1,0,1,1,0,0,29,29,75,,,,,,,,,,,485.6393262000056,None,486.66777089997777,None,486.66777089997777,None,486.66777089997777,None,486.66777089997777,None,486.66777089997777,None,486.66777089997777,None,486.66777089997777,None,486.66777089997777,None,486.66777089997777,None,486.66777089997777,None,486.66777089997777,None,d,2.063976700010244,486.66777089997777,None,target,None,None,None,None,None,,,,,,,,,,,,,,student1,2022-10-20_16h11.08.893,Hippopolis_4AFCT,2021.1.4,59.94229953924141,
Hippopolis,stimuli/subj_files/student1_cityA.csv,./stimuli/frankfurt.jpg,./stimuli/street_plate1.png,CITROM UTCA,stimuli/scenes/036a.jpg,scene,2,stimuli/objects/043a.jpg,stimuli/objects/043b.jpg,stimuli/objects/067a.jpg,stimuli/objects/043a.jpg,stimuli/objects/067b.jpg,lure,dist1,target,dist2,0,1,1,0,0,30,30,26,,,,,,,,,,,488.7561200999771,None,489.7937665999925,None,489.7937665999925,None,489.7937665999925,None,489.7937665999925,None,489.7937665999925,None,489.7937665999925,None,489.7937665999925,None,489.7937665999925,None,489.7937665999925,None,489.7937665999925,None,489.7937665999925,None,f,4.089497699984349,489.7937665999925,None,dist1,None,None,None,None,None,,,,,,,,,,,,,,student1,2022-10-20_16h11.08.893,Hippopolis_4AFCT,2021.1.4,59.94229953924141,
Hippopolis,stimuli/subj_files/student1_cityA.csv,./stimuli/frankfurt.jpg,./stimuli/street_plate1.png,SZIKLA UTCA,stimuli/scenes/111a.jpg,scene,2,stimuli/objects/073a.jpg,stimuli/objects/120b.jpg,stimuli/objects/120a.jpg,stimuli/objects/073a.jpg,stimuli/objects/073b.jpg,dist2,dist1,target,lure,0,1,1,0,0,31,31,1,,,,,,,,,,,493.9061179999844,None,494.9239897999796,None,494.9239897999796,None,494.9239897999796,None,494.9239897999796,None,494.9239897999796,None,494.9239897999796,None,494.9239897999796,None,494.9239897999796,None,494.9239897999796,None,494.9239897999796,None,494.9239897999796,None,j,2.486847799998941,494.9239897999796,None,target,None,None,None,None,None,,,,,,,,,,,,,,student1,2022-10-20_16h11.08.893,Hippopolis_4AFCT,2021.1.4,59.94229953924141,
Hippopolis,stimuli/subj_files/student1_cityA.csv,./stimuli/frankfurt.jpg,./stimuli/street_plate1.png,MUSTÁR UTCA,stimuli/scenes/050a.jpg,scene,0,stimuli/scenes/050a.jpg,stimuli/objects/009a.jpg,stimuli/objects/009b.jpg,stimuli/scenes/050a.jpg,stimuli/scenes/050b.jpg,dist1,dist2,target,lure,0,1,1,0,0,32,32,78,,,,,,,,,,,497.43888529998367,None,498.45968589998665,None,498.45968589998665,None,498.45968589998665,None,498.45968589998665,None,498.45968589998665,None,498.45968589998665,None,498.45968589998665,None,498.45968589998665,None,498.45968589998665,None,498.45968589998665,None,498.45968589998665,None,j,2.4102543000190053,498.45968589998665,None,target,None,None,None,None,None,,,,,,,,,,,,,,student1,2022-10-20_16h11.08.893,Hippopolis_4AFCT,2021.1.4,59.94229953924141,
Hippopolis,stimuli/subj_files/student1_cityA.csv,./stimuli/frankfurt.jpg,./stimuli/street_plate1.png,VASALÓ UTCA,stimuli/objects/025a.jpg,object,2,stimuli/scenes/056a.jpg,stimuli/scenes/044a.jpg,stimuli/scenes/056b.jpg,stimuli/scenes/056a.jpg,stimuli/scenes/044b.jpg,dist1,lure,target,dist2,0,1,1,0,0,33,33,70,,,,,,,,,,,500.8888578999904,None,501.9053686999832,None,501.9053686999832,None,501.9053686999832,None,501.9053686999832,None,501.9053686999832,None,501.9053686999832,None,501.9053686999832,None,501.9053686999832,None,501.9053686999832,None,501.9053686999832,None,501.9053686999832,None,j,2.648173900000984,501.9053686999832,None,target,None,None,None,None,None,,,,,,,,,,,,,,student1,2022-10-20_16h11.08.893,Hippopolis_4AFCT,2021.1.4,59.94229953924141,
Hippopolis,stimuli/subj_files/student1_cityA.csv,./stimuli/frankfurt.jpg,./stimuli/street_plate1.png,CSILLAG UTCA,stimuli/scenes/083a.jpg,scene,1,stimuli/scenes/117a.jpg,stimuli/scenes/117a.jpg,stimuli/scenes/117b.jpg,stimuli/objects/041a.jpg,stimuli/objects/041b.jpg,target,lure,dist1,dist2,0,1,1,0,0,34,34,15,,,,,,,,,,,504.57249089999823,None,505.5788248000026,None,505.5788248000026,None,505.5788248000026,None,505.5788248000026,None,505.5788248000026,None,505.5788248000026,None,505.5788248000026,None,505.5788248000026,None,505.5788248000026,None,505.5788248000026,None,505.5788248000026,None,d,1.9637343999929726,505.5788248000026,None,target,None,None,None,None,None,,,,,,,,,,,,,,student1,2022-10-20_16h11.08.893,Hippopolis_4AFCT,2021.1.4,59.94229953924141,
Hippopolis,stimuli/subj_files/student1_cityA.csv,./stimuli/frankfurt.jpg,./stimuli/street_plate1.png,OLDAL UTCA,stimuli/scenes/093a.jpg,scene,2,stimuli/objects/107a.jpg,stimuli/objects/107b.jpg,stimuli/objects/022a.jpg,stimuli/objects/107a.jpg,stimuli/objects/022b.jpg,lure,dist1,target,dist2,0,1,1,0,0,35,35,11,,,,,,,,,,,507.57244269998046,None,508.6047882999992,None,508.6047882999992,None,508.6047882999992,None,508.6047882999992,None,508.6047882999992,None,508.6047882999992,None,508.6047882999992,None,508.6047882999992,None,508.6047882999992,None,508.6047882999992,None,508.6047882999992,None,j,3.5649049000057857,508.6047882999992,None,target,None,None,None,None,None,,,,,,,,,,,,,,student1,2022-10-20_16h11.08.893,Hippopolis_4AFCT,2021.1.4,59.94229953924141,
Hippopolis,stimuli/subj_files/student1_cityA.csv,./stimuli/frankfurt.jpg,./stimuli/street_plate1.png,DOMINÓ UTCA,stimuli/scenes/042a.jpg,scene,0,stimuli/scenes/042a.jpg,stimuli/scenes/042a.jpg,stimuli/scenes/042b.jpg,stimuli/objects/070a.jpg,stimuli/objects/070b.jpg,target,lure,dist1,dist2,0,1,1,0,0,36,36,63,,,,,,,,,,,512.1890530999808,None,513.2224616000021,None,513.2224616000021,None,513.2224616000021,None,513.2224616000021,None,513.2224616000021,None,513.2224616000021,None,513.2224616000021,None,513.2224616000021,None,513.2224616000021,None,513.2224616000021,None,513.2224616000021,None,d,3.0552217999938875,513.2224616000021,None,target,None,None,None,None,None,,,,,,,,,,,,,,student1,2022-10-20_16h11.08.893,Hippopolis_4AFCT,2021.1.4,59.94229953924141,
Hippopolis,stimuli/subj_files/student1_cityA.csv,./stimuli/frankfurt.jpg,./stimuli/street_plate1.png,PIZSAMA UTCA,stimuli/scenes/060a.jpg,scene,2,stimuli/objects/006a.jpg,stimuli/scenes/007b.jpg,stimuli/scenes/007a.jpg,stimuli/objects/006b.jpg,stimuli/objects/006a.jpg,dist2,dist1,lure,target,0,1,1,0,0,37,37,79,,,,,,,,,,,516.3057225999946,None,517.3210725999961,None,517.3210725999961,None,517.3210725999961,None,517.3210725999961,None,517.3210725999961,None,517.3210725999961,None,517.3210725999961,None,517.3210725999961,None,517.3210725999961,None,517.3210725999961,None,517.3210725999961,None,k,2.0418186000024434,517.3210725999961,None,target,None,None,None,None,None,,,,,,,,,,,,,,student1,2022-10-20_16h11.08.893,Hippopolis_4AFCT,2021.1.4,59.94229953924141,
Hippopolis,stimuli/subj_files/student1_cityA.csv,./stimuli/frankfurt.jpg,./stimuli/street_plate1.png,FIÓK UTCA,stimuli/scenes/002a.jpg,scene,1,stimuli/scenes/014a.jpg,stimuli/scenes/014a.jpg,stimuli/objects/004a.jpg,stimuli/objects/004b.jpg,stimuli/scenes/014b.jpg,target,dist1,dist2,lure,0,1,1,0,0,38,38,73,,,,,,,,,,,519.3888276999933,None,520.397985299991,None,520.397985299991,None,520.397985299991,None,520.397985299991,None,520.397985299991,None,520.397985299991,None,520.397985299991,None,520.397985299991,None,520.397985299991,None,520.397985299991,None,520.397985299991,None,d,2.5398332999902777,520.397985299991,None,target,None,None,None,None,None,,,,,,,,,,,,,,student1,2022-10-20_16h11.08.893,Hippopolis_4AFCT,2021.1.4,59.94229953924141,
Hippopolis,stimuli/subj_files/student1_cityA.csv,./stimuli/frankfurt.jpg,./stimuli/street_plate1.png,MÁLNA UTCA,stimuli/objects/069a.jpg,object,2,stimuli/scenes/053a.jpg,stimuli/objects/073a.jpg,stimuli/objects/073b.jpg,stimuli/scenes/053b.jpg,stimuli/scenes/053a.jpg,dist1,dist2,lure,target,0,1,1,0,0,39,39,14,,,,,,,,,,,522.954985999997,None,523.9747883999953,None,523.9747883999953,None,523.9747883999953,None,523.9747883999953,None,523.9747883999953,None,523.9747883999953,None,523.9747883999953,None,523.9747883999953,None,523.9747883999953,None,523.9747883999953,None,523.9747883999953,None,k,2.3132723000016995,523.9747883999953,None,target,None,None,None,None,None,,,,,,,,,,,,,,student1,2022-10-20_16h11.08.893,Hippopolis_4AFCT,2021.1.4,59.94229953924141,
Hippopolis,stimuli/subj_files/student1_cityA.csv,./stimuli/frankfurt.jpg,./stimuli/street_plate1.png,MOTOR UTCA,stimuli/objects/097a.jpg,object,1,stimuli/objects/071a.jpg,stimuli/objects/015b.jpg,stimuli/objects/071b.jpg,stimuli/objects/071a.jpg,stimuli/objects/015a.jpg,dist2,lure,target,dist1,0,1,1,0,0,40,40,36,,,,,,,,,,,526.3050871999876,None,527.3412413999904,None,527.3412413999904,None,527.3412413999904,None,527.3412413999904,None,527.3412413999904,None,527.3412413999904,None,527.3412413999904,None,527.3412413999904,None,527.3412413999904,None,527.3412413999904,None,527.3412413999904,None,k,2.1980478999903426,527.3412413999904,None,dist1,None,None,None,None,None,,,,,,,,,,,,,,student1,2022-10-20_16h11.08.893,Hippopolis_4AFCT,2021.1.4,59.94229953924141,
Hippopolis,stimuli/subj_files/student1_cityA.csv,./stimuli/frankfurt.jpg,./stimuli/street_plate1.png,KERET UTCA,stimuli/scenes/027a.jpg,scene,0,stimuli/scenes/027a.jpg,stimuli/objects/100a.jpg,stimuli/objects/100b.jpg,stimuli/scenes/027a.jpg,stimuli/scenes/027b.jpg,dist1,dist2,target,lure,0,1,1,0,0,41,41,3,,,,,,,,,,,529.5716436999792,None,530.5743955999787,None,530.5743955999787,None,530.5743955999787,None,530.5743955999787,None,530.5743955999787,None,530.5743955999787,None,530.5743955999787,None,530.5743955999787,None,530.5743955999787,None,530.5743955999787,None,530.5743955999787,None,j,1.8081105999881402,530.5743955999787,None,target,None,None,None,None,None,,,,,,,,,,,,,,student1,2022-10-20_16h11.08.893,Hippopolis_4AFCT,2021.1.4,59.94229953924141,
Hippopolis,stimuli/subj_files/student1_cityA.csv,./stimuli/frankfurt.jpg,./stimuli/street_plate1.png,ÁLOM UTCA,stimuli/objects/070a.jpg,object,0,stimuli/objects/070a.jpg,stimuli/objects/070b.jpg,stimuli/objects/114b.jpg,stimuli/objects/114a.jpg,stimuli/objects/070a.jpg,lure,dist2,dist1,target,0,1,1,0,0,42,42,50,,,,,,,,,,,532.4053533999831,None,533.4292836999812,None,533.4292836999812,None,533.4292836999812,None,533.4292836999812,None,533.4292836999812,None,533.4292836999812,None,533.4292836999812,None,533.4292836999812,None,533.4292836999812,None,533.4292836999812,None,533.4292836999812,None,k,2.289662800001679,533.4292836999812,None,target,None,None,None,None,None,,,,,,,,,,,,,,student1,2022-10-20_16h11.08.893,Hippopolis_4AFCT,2021.1.4,59.94229953924141,
Hippopolis,stimuli/subj_files/student1_cityA.csv,./stimuli/frankfurt.jpg,./stimuli/street_plate1.png,KOCKA UTCA,stimuli/objects/062a.jpg,object,0,stimuli/objects/062a.jpg,stimuli/scenes/095b.jpg,stimuli/objects/062a.jpg,stimuli/objects/062b.jpg,stimuli/scenes/095a.jpg,dist2,target,lure,dist1,0,1,1,0,0,43,43,35,,,,,,,,,,,535.7386942000012,None,536.7751872999943,None,536.7751872999943,None,536.7751872999943,None,536.7751872999943,None,536.7751872999943,None,536.7751872999943,None,536.7751872999943,None,536.7751872999943,None,536.7751872999943,None,536.7751872999943,None,536.7751872999943,None,f,2.5124416000035126,536.7751872999943,None,target,None,None,None,None,None,,,,,,,,,,,,,,student1,2022-10-20_16h11.08.893,Hippopolis_4AFCT,2021.1.4,59.94229953924141,
Hippopolis,stimuli/subj_files/student1_cityA.csv,./stimuli/frankfurt.jpg,./stimuli/street_plate1.png,TRIATLON UTCA,stimuli/objects/024a.jpg,object,0,stimuli/objects/024a.jpg,stimuli/objects/024b.jpg,stimuli/objects/080a.jpg,stimuli/objects/024a.jpg,stimuli/objects/080b.jpg,lure,dist1,target,dist2,0,1,1,0,0,44,44,2,,,,,,,,,,,539.3047062999976,None,540.322441700002,None,540.322441700002,None,540.322441700002,None,540.322441700002,None,540.322441700002,None,540.322441700002,None,540.322441700002,None,540.322441700002,None,540.322441700002,None,540.322441700002,None,540.322441700002,None,k,1.5710824999841861,540.322441700002,None,dist2,541.9219110999838,None,space,541.9219110999838,None,7.749325199984014,,,,,,,,,,,,,student1,2022-10-20_16h11.08.893,Hippopolis_4AFCT,2021.1.4,59.94229953924141,
Hippopolis,stimuli/subj_files/student1_cityA.csv,./stimuli/frankfurt.jpg,./stimuli/street_plate1.png,TERASZ UTCA,stimuli/objects/063a.jpg,object,2,stimuli/scenes/104a.jpg,stimuli/scenes/104a.jpg,stimuli/scenes/056a.jpg,stimuli/scenes/104b.jpg,stimuli/scenes/056b.jpg,target,dist1,lure,dist2,0,1,1,0,0,45,45,48,,,,,,,,,,,549.6879209000035,None,550.743533699977,None,550.743533699977,None,550.743533699977,None,550.743533699977,None,550.743533699977,None,550.743533699977,None,550.743533699977,None,550.743533699977,None,550.743533699977,None,550.743533699977,None,550.743533699977,None,d,3.5604223999835085,550.743533699977,None,target,None,None,None,None,None,,,,,,,,,,,,,,student1,2022-10-20_16h11.08.893,Hippopolis_4AFCT,2021.1.4,59.94229953924141,
Hippopolis,stimuli/subj_files/student1_cityA.csv,./stimuli/frankfurt.jpg,./stimuli/street_plate1.png,AKÁC UTCA,stimuli/scenes/081a.jpg,scene,2,stimuli/objects/055a.jpg,stimuli/objects/055b.jpg,stimuli/objects/107b.jpg,stimuli/objects/107a.jpg,stimuli/objects/055a.jpg,lure,dist2,dist1,target,0,1,1,0,0,46,46,74,,,,,,,,,,,554.3210585999768,None,555.3325658999966,None,555.3325658999966,None,555.3325658999966,None,555.3325658999966,None,555.3325658999966,None,555.3325658999966,None,555.3325658999966,None,555.3325658999966,None,555.3325658999966,None,555.3325658999966,None,555.3325658999966,None,k,4.505461099994136,555.3325658999966,None,target,None,None,None,None,None,,,,,,,,,,,,,,student1,2022-10-20_16h11.08.893,Hippopolis_4AFCT,2021.1.4,59.94229953924141,
Hippopolis,stimuli/subj_files/student1_cityA.csv,./stimuli/frankfurt.jpg,./stimuli/street_plate1.png,PULÓVER UTCA,stimuli/objects/114a.jpg,object,0,stimuli/objects/114a.jpg,stimuli/scenes/050b.jpg,stimuli/scenes/050a.jpg,stimuli/objects/114b.jpg,stimuli/objects/114a.jpg,dist2,dist1,lure,target,0,1,1,0,0,47,47,43,,,,,,,,,,,559.8711370999808,None,560.8851097000006,None,560.8851097000006,None,560.8851097000006,None,560.8851097000006,None,560.8851097000006,None,560.8851097000006,None,560.8851097000006,None,560.8851097000006,None,560.8851097000006,None,560.8851097000006,None,560.8851097000006,None,k,2.260833599983016,560.8851097000006,None,target,None,None,None,None,None,,,,,,,,,,,,,,student1,2022-10-20_16h11.08.893,Hippopolis_4AFCT,2021.1.4,59.94229953924141,
