CityName,StimuliFile,CityImage,StreetSign,Cue,Image,Category,Novelty,UpdateImage,TestImage1,TestImage2,TestImage3,TestImage4,TestImage1Type,TestImage2Type,TestImage3Type,TestImage4Type,CityBlock.thisRepN,CityBlock.thisTrialN,CityBlock.thisN,CityBlock.thisIndex,LearningTrials.thisRepN,LearningTrials.thisTrialN,LearningTrials.thisN,LearningTrials.thisIndex,learning_instructions_text.started,intro_key.started,intro_key.keys,intro_key.rt,cityname_text.started,city_image.started,fx_cross.started,plate_updating.started,city_text_updating.started,street_text_updating.started,test_image1.started,test_image2.started,test_image3.started,test_image4.started,button_d.started,button_f.started,button_j.started,button_k.started,key_resp.started,clock0.started,clock0.stopped,key_resp.keys,test_resp,short_break_key.keys,fx_cross.stopped,key_resp.rt,short_break_text.started,short_break_key.started,short_break_key.rt,n_targets,n_lures,n_dist1s,n_dist2s,break_text.started,break_key_resp.started,break_key_resp.keys,break_key_resp.rt,end_text.started,end_text.stopped,participant,date,expName,psychopyVersion,frameRate,
,,,,,,,,,,,,,,,,,,,,,,,,,15.580638699932024,15.580638699932024,space,16.180610699928366,,,,,,,,,,,,,,,,,,,,,,,,,,,,,,,,,,,,student1,2022-10-25_12h27.50.968,Hippopolis_4AFCT,2022.2.4,59.76636134237672,
Camponello,stimuli/subj_files/student1_cityB.csv,./stimuli/leipzig.jpg,./stimuli/street_plate2.png,SZAPPAN UTCA,stimuli/objects/023a.jpg,object,1,stimuli/objects/087a.jpg,stimuli/scenes/012b.jpg,stimuli/objects/087b.jpg,stimuli/objects/087a.jpg,stimuli/scenes/012a.jpg,dist2,lure,target,dist1,0,0,0,1,0,0,0,7,,,,,31.88725120003801,31.88725120003801,34.82402689999435,35.86151690001134,35.86151690001134,35.86151690001134,35.86151690001134,35.86151690001134,35.86151690001134,35.86151690001134,35.86151690001134,35.86151690001134,35.86151690001134,35.86151690001134,35.86151690001134,39.29157400003169,40.79139849997591,None,invalid,None,,,,,,,,,,,,,,,,student1,2022-10-25_12h27.50.968,Hippopolis_4AFCT,2022.2.4,59.76636134237672,
Camponello,stimuli/subj_files/student1_cityB.csv,./stimuli/leipzig.jpg,./stimuli/street_plate2.png,BOHÓC UTCA,stimuli/objects/064a.jpg,object,0,stimuli/objects/064a.jpg,stimuli/objects/040b.jpg,stimuli/objects/040a.jpg,stimuli/objects/064a.jpg,stimuli/objects/064b.jpg,dist2,dist1,target,lure,0,0,0,1,0,1,1,17,,,,,,,40.807418899959885,41.84570269996766,41.84570269996766,41.84570269996766,41.84570269996766,41.84570269996766,41.84570269996766,41.84570269996766,41.84570269996766,41.84570269996766,41.84570269996766,41.84570269996766,41.84570269996766,,,j,target,None,41.84570269996766,2.323882699944079,,,,,,,,,,,,,,student1,2022-10-25_12h27.50.968,Hippopolis_4AFCT,2022.2.4,59.76636134237672,
Camponello,stimuli/subj_files/student1_cityB.csv,./stimuli/leipzig.jpg,./stimuli/street_plate2.png,FÜZET UTCA,stimuli/scenes/047a.jpg,scene,1,stimuli/scenes/012a.jpg,stimuli/scenes/012b.jpg,stimuli/objects/010b.jpg,stimuli/scenes/012a.jpg,stimuli/objects/010a.jpg,lure,dist2,target,dist1,0,0,0,1,0,2,2,56,,,,,,,44.19084259995725,45.21424639993347,45.21424639993347,45.21424639993347,45.21424639993347,45.21424639993347,45.21424639993347,45.21424639993347,45.21424639993347,45.21424639993347,45.21424639993347,45.21424639993347,45.21424639993347,,,k,dist1,None,45.21424639993347,2.312716000014916,,,,,,,,,,,,,,student1,2022-10-25_12h27.50.968,Hippopolis_4AFCT,2022.2.4,59.76636134237672,
Camponello,stimuli/subj_files/student1_cityB.csv,./stimuli/leipzig.jpg,./stimuli/street_plate2.png,SZOBOR UTCA,stimuli/objects/031a.jpg,object,1,stimuli/objects/010a.jpg,stimuli/objects/010a.jpg,stimuli/objects/044b.jpg,stimuli/objects/044a.jpg,stimuli/objects/010b.jpg,target,dist2,dist1,lure,0,0,0,1,0,3,3,79,,,,,,,47.55708599998616,48.58668489998672,48.58668489998672,48.58668489998672,48.58668489998672,48.58668489998672,48.58668489998672,48.58668489998672,48.58668489998672,48.58668489998672,48.58668489998672,48.58668489998672,48.58668489998672,,,j,dist1,None,48.58668489998672,2.4354280999395996,,,,,,,,,,,,,,student1,2022-10-25_12h27.50.968,Hippopolis_4AFCT,2022.2.4,59.76636134237672,
Camponello,stimuli/subj_files/student1_cityB.csv,./stimuli/leipzig.jpg,./stimuli/street_plate2.png,TISZTÁS UTCA,stimuli/objects/116a.jpg,object,0,stimuli/objects/116a.jpg,stimuli/objects/058a.jpg,stimuli/objects/116a.jpg,stimuli/objects/116b.jpg,stimuli/objects/058b.jpg,dist1,target,lure,dist2,0,0,0,1,0,4,4,18,,,,,,,51.04035170003772,52.082102500018664,52.082102500018664,52.082102500018664,52.082102500018664,52.082102500018664,52.082102500018664,52.082102500018664,52.082102500018664,52.082102500018664,52.082102500018664,52.082102500018664,52.082102500018664,,,f,target,None,52.082102500018664,2.152168900007382,,,,,,,,,,,,,,student1,2022-10-25_12h27.50.968,Hippopolis_4AFCT,2022.2.4,59.76636134237672,
Camponello,stimuli/subj_files/student1_cityB.csv,./stimuli/leipzig.jpg,./stimuli/street_plate2.png,ZONGORA UTCA,stimuli/objects/034a.jpg,object,0,stimuli/objects/034a.jpg,stimuli/objects/034a.jpg,stimuli/objects/034b.jpg,stimuli/objects/016b.jpg,stimuli/objects/016a.jpg,target,lure,dist2,dist1,0,0,0,1,0,5,5,31,,,,,,,54.25694829993881,55.279649600037374,55.279649600037374,55.279649600037374,55.279649600037374,55.279649600037374,55.279649600037374,55.279649600037374,55.279649600037374,55.279649600037374,55.279649600037374,55.279649600037374,55.279649600037374,,,d,target,None,55.279649600037374,1.8578563999617472,,,,,,,,,,,,,,student1,2022-10-25_12h27.50.968,Hippopolis_4AFCT,2022.2.4,59.76636134237672,
Camponello,stimuli/subj_files/student1_cityB.csv,./stimuli/leipzig.jpg,./stimuli/street_plate2.png,HENTES UTCA,stimuli/scenes/092a.jpg,scene,0,stimuli/scenes/092a.jpg,stimuli/scenes/114b.jpg,stimuli/scenes/114a.jpg,stimuli/scenes/092a.jpg,stimuli/scenes/092b.jpg,dist2,dist1,target,lure,0,0,0,1,0,6,6,46,,,,,,,57.15675830002874,58.173910700017586,58.173910700017586,58.173910700017586,58.173910700017586,58.173910700017586,58.173910700017586,58.173910700017586,58.173910700017586,58.173910700017586,58.173910700017586,58.173910700017586,58.173910700017586,,,j,target,None,58.173910700017586,1.8214920000173151,,,,,,,,,,,,,,student1,2022-10-25_12h27.50.968,Hippopolis_4AFCT,2022.2.4,59.76636134237672,
Camponello,stimuli/subj_files/student1_cityB.csv,./stimuli/leipzig.jpg,./stimuli/street_plate2.png,TOLMÁCS UTCA,stimuli/scenes/082a.jpg,scene,0,stimuli/scenes/082a.jpg,stimuli/scenes/082b.jpg,stimuli/objects/081b.jpg,stimuli/objects/081a.jpg,stimuli/scenes/082a.jpg,lure,dist2,dist1,target,0,0,0,1,0,7,7,2,,,,,,,60.02324350003619,61.045262299943715,61.045262299943715,61.045262299943715,61.045262299943715,61.045262299943715,61.045262299943715,61.045262299943715,61.045262299943715,61.045262299943715,61.045262299943715,61.045262299943715,61.045262299943715,,,k,target,None,61.045262299943715,2.641889699967578,,,,,,,,,,,,,,student1,2022-10-25_12h27.50.968,Hippopolis_4AFCT,2022.2.4,59.76636134237672,
Camponello,stimuli/subj_files/student1_cityB.csv,./stimuli/leipzig.jpg,./stimuli/street_plate2.png,TULIPÁN UTCA,stimuli/objects/058a.jpg,object,0,stimuli/objects/058a.jpg,stimuli/objects/117a.jpg,stimuli/objects/117b.jpg,stimuli/objects/058b.jpg,stimuli/objects/058a.jpg,dist1,dist2,lure,target,0,0,0,1,0,8,8,1,,,,,,,63.70664560003206,64.71907570003532,64.71907570003532,64.71907570003532,64.71907570003532,64.71907570003532,64.71907570003532,64.71907570003532,64.71907570003532,64.71907570003532,64.71907570003532,64.71907570003532,64.71907570003532,,,k,target,None,64.71907570003532,2.1032891999930143,,,,,,,,,,,,,,student1,2022-10-25_12h27.50.968,Hippopolis_4AFCT,2022.2.4,59.76636134237672,
Camponello,stimuli/subj_files/student1_cityB.csv,./stimuli/leipzig.jpg,./stimuli/street_plate2.png,BANÁN UTCA,stimuli/scenes/045a.jpg,scene,0,stimuli/scenes/045a.jpg,stimuli/scenes/045b.jpg,stimuli/scenes/045a.jpg,stimuli/scenes/112b.jpg,stimuli/scenes/112a.jpg,lure,target,dist2,dist1,0,0,0,1,0,9,9,57,,,,,,,66.84004039992578,67.86839660000987,67.86839660000987,67.86839660000987,67.86839660000987,67.86839660000987,67.86839660000987,67.86839660000987,67.86839660000987,67.86839660000987,67.86839660000987,67.86839660000987,67.86839660000987,,,f,target,None,67.86839660000987,1.8215840000193566,,,,,,,,,,,,,,student1,2022-10-25_12h27.50.968,Hippopolis_4AFCT,2022.2.4,59.76636134237672,
Camponello,stimuli/subj_files/student1_cityB.csv,./stimuli/leipzig.jpg,./stimuli/street_plate2.png,SZÖCSKE UTCA,stimuli/scenes/026a.jpg,scene,2,stimuli/objects/061a.jpg,stimuli/scenes/063a.jpg,stimuli/objects/061a.jpg,stimuli/scenes/063b.jpg,stimuli/objects/061b.jpg,dist1,target,dist2,lure,0,0,0,1,0,10,10,71,,,,,,,69.70659820002038,70.72010549996048,70.72010549996048,70.72010549996048,70.72010549996048,70.72010549996048,70.72010549996048,70.72010549996048,70.72010549996048,70.72010549996048,70.72010549996048,70.72010549996048,70.72010549996048,,,f,target,None,70.72010549996048,2.1216331000905484,,,,,,,,,,,,,,student1,2022-10-25_12h27.50.968,Hippopolis_4AFCT,2022.2.4,59.76636134237672,
Camponello,stimuli/subj_files/student1_cityB.csv,./stimuli/leipzig.jpg,./stimuli/street_plate2.png,KESELYŰ UTCA,stimuli/objects/003a.jpg,object,2,stimuli/scenes/100a.jpg,stimuli/objects/029a.jpg,stimuli/scenes/100b.jpg,stimuli/objects/029b.jpg,stimuli/scenes/100a.jpg,dist1,lure,dist2,target,0,0,0,1,0,11,11,6,,,,,,,72.8731077000266,73.89571529999375,73.89571529999375,73.89571529999375,73.89571529999375,73.89571529999375,73.89571529999375,73.89571529999375,73.89571529999375,73.89571529999375,73.89571529999375,73.89571529999375,73.89571529999375,,,d,dist1,None,73.89571529999375,2.6832437000703067,,,,,,,,,,,,,,student1,2022-10-25_12h27.50.968,Hippopolis_4AFCT,2022.2.4,59.76636134237672,
Camponello,stimuli/subj_files/student1_cityB.csv,./stimuli/leipzig.jpg,./stimuli/street_plate2.png,LEGELŐ UTCA,stimuli/objects/030a.jpg,object,0,stimuli/objects/030a.jpg,stimuli/objects/039a.jpg,stimuli/objects/030a.jpg,stimuli/objects/030b.jpg,stimuli/objects/039b.jpg,dist1,target,lure,dist2,0,0,0,1,0,12,12,70,,,,,,,76.60691480000969,77.64378229994327,77.64378229994327,77.64378229994327,77.64378229994327,77.64378229994327,77.64378229994327,77.64378229994327,77.64378229994327,77.64378229994327,77.64378229994327,77.64378229994327,77.64378229994327,,,f,target,None,77.64378229994327,2.361918400041759,,,,,,,,,,,,,,student1,2022-10-25_12h27.50.968,Hippopolis_4AFCT,2022.2.4,59.76636134237672,
Camponello,stimuli/subj_files/student1_cityB.csv,./stimuli/leipzig.jpg,./stimuli/street_plate2.png,RIBIZLI UTCA,stimuli/objects/088a.jpg,object,0,stimuli/objects/088a.jpg,stimuli/objects/088b.jpg,stimuli/objects/065a.jpg,stimuli/objects/088a.jpg,stimuli/objects/065b.jpg,lure,dist1,target,dist2,0,0,0,1,0,13,13,34,,,,,,,80.02308029995766,81.03979539999273,81.03979539999273,81.03979539999273,81.03979539999273,81.03979539999273,81.03979539999273,81.03979539999273,81.03979539999273,81.03979539999273,81.03979539999273,81.03979539999273,81.03979539999273,,,j,target,None,81.03979539999273,2.5915011999895796,,,,,,,,,,,,,,student1,2022-10-25_12h27.50.968,Hippopolis_4AFCT,2022.2.4,59.76636134237672,
Camponello,stimuli/subj_files/student1_cityB.csv,./stimuli/leipzig.jpg,./stimuli/street_plate2.png,TÜKÖR UTCA,stimuli/scenes/006a.jpg,scene,0,stimuli/scenes/006a.jpg,stimuli/objects/116b.jpg,stimuli/objects/116a.jpg,stimuli/scenes/006a.jpg,stimuli/scenes/006b.jpg,dist2,dist1,target,lure,0,0,0,1,0,14,14,25,,,,,,,83.65650019992609,84.67741749994457,84.67741749994457,84.67741749994457,84.67741749994457,84.67741749994457,84.67741749994457,84.67741749994457,84.67741749994457,84.67741749994457,84.67741749994457,84.67741749994457,84.67741749994457,,,j,target,None,84.67741749994457,1.7308149000164121,,,,,,,,,,,,,,student1,2022-10-25_12h27.50.968,Hippopolis_4AFCT,2022.2.4,59.76636134237672,
Camponello,stimuli/subj_files/student1_cityB.csv,./stimuli/leipzig.jpg,./stimuli/street_plate2.png,PALACK UTCA,stimuli/scenes/033a.jpg,scene,1,stimuli/scenes/107a.jpg,stimuli/objects/119b.jpg,stimuli/scenes/107b.jpg,stimuli/objects/119a.jpg,stimuli/scenes/107a.jpg,dist2,lure,dist1,target,0,0,0,1,0,15,15,44,,,,,,,86.4397054000292,87.45428319997154,87.45428319997154,87.45428319997154,87.45428319997154,87.45428319997154,87.45428319997154,87.45428319997154,87.45428319997154,87.45428319997154,87.45428319997154,87.45428319997154,87.45428319997154,90.93998309993185,,k,target,None,87.45428319997154,3.566564099979587,,,,,,,,,,,,,,student1,2022-10-25_12h27.50.968,Hippopolis_4AFCT,2022.2.4,59.76636134237672,
Camponello,stimuli/subj_files/student1_cityB.csv,./stimuli/leipzig.jpg,./stimuli/street_plate2.png,FÉSŰ UTCA,stimuli/objects/084a.jpg,object,0,stimuli/objects/084a.jpg,stimuli/objects/118b.jpg,stimuli/objects/118a.jpg,stimuli/objects/084a.jpg,stimuli/objects/084b.jpg,dist2,dist1,target,lure,0,0,0,1,0,16,16,23,,,,,,,91.0398017000407,92.05525650002528,92.05525650002528,92.05525650002528,92.05525650002528,92.05525650002528,92.05525650002528,92.05525650002528,92.05525650002528,92.05525650002528,92.05525650002528,92.05525650002528,92.05525650002528,,,f,dist1,None,92.05525650002528,2.3997117000399157,,,,,,,,,,,,,,student1,2022-10-25_12h27.50.968,Hippopolis_4AFCT,2022.2.4,59.76636134237672,
Camponello,stimuli/subj_files/student1_cityB.csv,./stimuli/leipzig.jpg,./stimuli/street_plate2.png,MANDARIN UTCA,stimuli/scenes/075a.jpg,scene,0,stimuli/scenes/075a.jpg,stimuli/objects/072a.jpg,stimuli/objects/072b.jpg,stimuli/scenes/075b.jpg,stimuli/scenes/075a.jpg,dist1,dist2,lure,target,0,0,0,1,0,17,17,37,,,,,,,94.4729793999577,95.50793239998166,95.50793239998166,95.50793239998166,95.50793239998166,95.50793239998166,95.50793239998166,95.50793239998166,95.50793239998166,95.50793239998166,95.50793239998166,95.50793239998166,95.50793239998166,,,k,target,None,95.50793239998166,2.263193199993111,,,,,,,,,,,,,,student1,2022-10-25_12h27.50.968,Hippopolis_4AFCT,2022.2.4,59.76636134237672,
Camponello,stimuli/subj_files/student1_cityB.csv,./stimuli/leipzig.jpg,./stimuli/street_plate2.png,ZEBRA UTCA,stimuli/scenes/106a.jpg,scene,0,stimuli/scenes/106a.jpg,stimuli/scenes/030a.jpg,stimuli/scenes/106a.jpg,stimuli/scenes/106b.jpg,stimuli/scenes/030b.jpg,dist1,target,lure,dist2,0,0,0,1,0,18,18,12,,,,,,,97.78961790003814,98.80281000002287,98.80281000002287,98.80281000002287,98.80281000002287,98.80281000002287,98.80281000002287,98.80281000002287,98.80281000002287,98.80281000002287,98.80281000002287,98.80281000002287,98.80281000002287,,,f,target,None,98.80281000002287,2.3649764000438154,,,,,,,,,,,,,,student1,2022-10-25_12h27.50.968,Hippopolis_4AFCT,2022.2.4,59.76636134237672,
Camponello,stimuli/subj_files/student1_cityB.csv,./stimuli/leipzig.jpg,./stimuli/street_plate2.png,SZŐLŐ UTCA,stimuli/scenes/099a.jpg,scene,0,stimuli/scenes/099a.jpg,stimuli/objects/105a.jpg,stimuli/scenes/099a.jpg,stimuli/scenes/099b.jpg,stimuli/objects/105b.jpg,dist1,target,lure,dist2,0,0,0,1,0,19,19,55,,,,,,,101.18976320000365,102.20332349999808,102.20332349999808,102.20332349999808,102.20332349999808,102.20332349999808,102.20332349999808,102.20332349999808,102.20332349999808,102.20332349999808,102.20332349999808,102.20332349999808,102.20332349999808,,,f,target,None,102.20332349999808,2.2622485999017954,,,,,,,,,,,,,,student1,2022-10-25_12h27.50.968,Hippopolis_4AFCT,2022.2.4,59.76636134237672,
Camponello,stimuli/subj_files/student1_cityB.csv,./stimuli/leipzig.jpg,./stimuli/street_plate2.png,SIRÁLY UTCA,stimuli/objects/081a.jpg,object,0,stimuli/objects/081a.jpg,stimuli/objects/081a.jpg,stimuli/objects/081b.jpg,stimuli/scenes/019a.jpg,stimuli/scenes/019b.jpg,target,lure,dist1,dist2,0,0,0,1,0,20,20,50,,,,,,,104.48968599992804,105.5113167000236,105.5113167000236,105.5113167000236,105.5113167000236,105.5113167000236,105.5113167000236,105.5113167000236,105.5113167000236,105.5113167000236,105.5113167000236,105.5113167000236,105.5113167000236,,,d,target,None,105.5113167000236,2.8706692999694496,,,,,,,,,,,,,,student1,2022-10-25_12h27.50.968,Hippopolis_4AFCT,2022.2.4,59.76636134237672,
Camponello,stimuli/subj_files/student1_cityB.csv,./stimuli/leipzig.jpg,./stimuli/street_plate2.png,SZILVA UTCA,stimuli/objects/105a.jpg,object,0,stimuli/objects/105a.jpg,stimuli/objects/049b.jpg,stimuli/objects/105b.jpg,stimuli/objects/049a.jpg,stimuli/objects/105a.jpg,dist2,lure,dist1,target,0,0,0,1,0,21,21,36,,,,,,,108.40648899995722,109.4363219999941,109.4363219999941,109.4363219999941,109.4363219999941,109.4363219999941,109.4363219999941,109.4363219999941,109.4363219999941,109.4363219999941,109.4363219999941,109.4363219999941,109.4363219999941,,,f,lure,None,109.4363219999941,2.6598328000400215,,,,,,,,,,,,,,student1,2022-10-25_12h27.50.968,Hippopolis_4AFCT,2022.2.4,59.76636134237672,
Camponello,stimuli/subj_files/student1_cityB.csv,./stimuli/leipzig.jpg,./stimuli/street_plate2.png,KALAPÁCS UTCA,stimuli/scenes/049a.jpg,scene,0,stimuli/scenes/049a.jpg,stimuli/objects/112b.jpg,stimuli/scenes/049a.jpg,stimuli/objects/112a.jpg,stimuli/scenes/049b.jpg,dist2,target,dist1,lure,0,0,0,1,0,22,22,3,,,,,,,112.12278800003696,113.13751599995885,113.13751599995885,113.13751599995885,113.13751599995885,113.13751599995885,113.13751599995885,113.13751599995885,113.13751599995885,113.13751599995885,113.13751599995885,113.13751599995885,113.13751599995885,,,f,target,None,113.13751599995885,2.0740077999653295,,,,,,,,,,,,,,student1,2022-10-25_12h27.50.968,Hippopolis_4AFCT,2022.2.4,59.76636134237672,
Camponello,stimuli/subj_files/student1_cityB.csv,./stimuli/leipzig.jpg,./stimuli/street_plate2.png,HORGONY UTCA,stimuli/objects/039a.jpg,object,0,stimuli/objects/039a.jpg,stimuli/objects/039b.jpg,stimuli/objects/039a.jpg,stimuli/objects/092b.jpg,stimuli/objects/092a.jpg,lure,target,dist2,dist1,0,0,0,1,0,23,23,26,,,,,,,115.23914530000184,116.26585860003252,116.26585860003252,116.26585860003252,116.26585860003252,116.26585860003252,116.26585860003252,116.26585860003252,116.26585860003252,116.26585860003252,116.26585860003252,116.26585860003252,116.26585860003252,,,f,target,None,116.26585860003252,2.8422227000119165,,,,,,,,,,,,,,student1,2022-10-25_12h27.50.968,Hippopolis_4AFCT,2022.2.4,59.76636134237672,
Camponello,stimuli/subj_files/student1_cityB.csv,./stimuli/leipzig.jpg,./stimuli/street_plate2.png,VITORLA UTCA,stimuli/scenes/110a.jpg,scene,1,stimuli/scenes/062a.jpg,stimuli/scenes/107a.jpg,stimuli/scenes/107b.jpg,stimuli/scenes/062b.jpg,stimuli/scenes/062a.jpg,dist1,dist2,lure,target,0,0,0,1,0,24,24,45,,,,,,,119.13925370003562,120.15134400001261,120.15134400001261,120.15134400001261,120.15134400001261,120.15134400001261,120.15134400001261,120.15134400001261,120.15134400001261,120.15134400001261,120.15134400001261,120.15134400001261,120.15134400001261,,,k,target,None,120.15134400001261,3.4533916999353096,,,,,,,,,,,,,,student1,2022-10-25_12h27.50.968,Hippopolis_4AFCT,2022.2.4,59.76636134237672,
Camponello,stimuli/subj_files/student1_cityB.csv,./stimuli/leipzig.jpg,./stimuli/street_plate2.png,TÉRKÉP UTCA,stimuli/scenes/013a.jpg,scene,0,stimuli/scenes/013a.jpg,stimuli/scenes/006b.jpg,stimuli/scenes/006a.jpg,stimuli/scenes/013a.jpg,stimuli/scenes/013b.jpg,dist2,dist1,target,lure,0,0,0,1,0,25,25,63,,,,,,,123.62235099996906,124.63818599993829,124.63818599993829,124.63818599993829,124.63818599993829,124.63818599993829,124.63818599993829,124.63818599993829,124.63818599993829,124.63818599993829,124.63818599993829,124.63818599993829,124.63818599993829,,,j,target,None,124.63818599993829,2.1423650999786332,,,,,,,,,,,,,,student1,2022-10-25_12h27.50.968,Hippopolis_4AFCT,2022.2.4,59.76636134237672,
Camponello,stimuli/subj_files/student1_cityB.csv,./stimuli/leipzig.jpg,./stimuli/street_plate2.png,TIGRIS UTCA,stimuli/scenes/021a.jpg,scene,0,stimuli/scenes/021a.jpg,stimuli/scenes/022b.jpg,stimuli/scenes/021a.jpg,stimuli/scenes/021b.jpg,stimuli/scenes/022a.jpg,dist2,target,lure,dist1,0,0,0,1,0,26,26,68,,,,,,,126.80571340001188,127.82297520001885,127.82297520001885,127.82297520001885,127.82297520001885,127.82297520001885,127.82297520001885,127.82297520001885,127.82297520001885,127.82297520001885,127.82297520001885,127.82297520001885,127.82297520001885,,,k,dist1,None,127.82297520001885,2.7435853000497445,,,,,,,,,,,,,,student1,2022-10-25_12h27.50.968,Hippopolis_4AFCT,2022.2.4,59.76636134237672,
Camponello,stimuli/subj_files/student1_cityB.csv,./stimuli/leipzig.jpg,./stimuli/street_plate2.png,MOSODA UTCA,stimuli/objects/052a.jpg,object,0,stimuli/objects/052a.jpg,stimuli/objects/052b.jpg,stimuli/scenes/035a.jpg,stimuli/objects/052a.jpg,stimuli/scenes/035b.jpg,lure,dist1,target,dist2,0,0,0,1,0,27,27,51,,,,,,,130.58929080003873,131.62197440001182,131.62197440001182,131.62197440001182,131.62197440001182,131.62197440001182,131.62197440001182,131.62197440001182,131.62197440001182,131.62197440001182,131.62197440001182,131.62197440001182,131.62197440001182,,,j,target,None,131.62197440001182,1.8932553000049666,,,,,,,,,,,,,,student1,2022-10-25_12h27.50.968,Hippopolis_4AFCT,2022.2.4,59.76636134237672,
Camponello,stimuli/subj_files/student1_cityB.csv,./stimuli/leipzig.jpg,./stimuli/street_plate2.png,GYŰRŰ UTCA,stimuli/objects/056a.jpg,object,1,stimuli/objects/013a.jpg,stimuli/objects/013b.jpg,stimuli/objects/087b.jpg,stimuli/objects/013a.jpg,stimuli/objects/087a.jpg,lure,dist2,target,dist1,0,0,0,1,0,28,28,22,,,,,,,133.53918239998166,134.57304609997664,134.57304609997664,134.57304609997664,134.57304609997664,134.57304609997664,134.57304609997664,134.57304609997664,134.57304609997664,134.57304609997664,134.57304609997664,134.57304609997664,134.57304609997664,138.03979770001024,,k,dist1,None,134.57304609997664,3.5189455000218004,,,,,,,,,,,,,,student1,2022-10-25_12h27.50.968,Hippopolis_4AFCT,2022.2.4,59.76636134237672,
Camponello,stimuli/subj_files/student1_cityB.csv,./stimuli/leipzig.jpg,./stimuli/street_plate2.png,KAKAÓ UTCA,stimuli/objects/099a.jpg,object,1,stimuli/objects/119a.jpg,stimuli/scenes/086a.jpg,stimuli/objects/119a.jpg,stimuli/scenes/086b.jpg,stimuli/objects/119b.jpg,dist1,target,dist2,lure,0,0,0,1,0,29,29,0,,,,,,,138.1221002000384,139.1362899999367,139.1362899999367,139.1362899999367,139.1362899999367,139.1362899999367,139.1362899999367,139.1362899999367,139.1362899999367,139.1362899999367,139.1362899999367,139.1362899999367,139.1362899999367,,,f,target,None,139.1362899999367,2.8362144000129774,,,,,,,,,,,,,,student1,2022-10-25_12h27.50.968,Hippopolis_4AFCT,2022.2.4,59.76636134237672,
Camponello,stimuli/subj_files/student1_cityB.csv,./stimuli/leipzig.jpg,./stimuli/street_plate2.png,SZAXOFON UTCA,stimuli/objects/117a.jpg,object,0,stimuli/objects/117a.jpg,stimuli/scenes/021a.jpg,stimuli/objects/117a.jpg,stimuli/objects/117b.jpg,stimuli/scenes/021b.jpg,dist1,target,lure,dist2,0,0,0,1,0,30,30,20,,,,,,,141.98884839995299,142.99519019993022,142.99519019993022,142.99519019993022,142.99519019993022,142.99519019993022,142.99519019993022,142.99519019993022,142.99519019993022,142.99519019993022,142.99519019993022,142.99519019993022,142.99519019993022,,,f,target,None,142.99519019993022,3.3881156999850646,,,,,,,,,,,,,,student1,2022-10-25_12h27.50.968,Hippopolis_4AFCT,2022.2.4,59.76636134237672,
Camponello,stimuli/subj_files/student1_cityB.csv,./stimuli/leipzig.jpg,./stimuli/street_plate2.png,SÜTŐ UTCA,stimuli/scenes/038a.jpg,scene,0,stimuli/scenes/038a.jpg,stimuli/scenes/038b.jpg,stimuli/objects/033b.jpg,stimuli/objects/033a.jpg,stimuli/scenes/038a.jpg,lure,dist2,dist1,target,0,0,0,1,0,31,31,5,,,,,,,146.40532939997502,147.42574620002415,147.42574620002415,147.42574620002415,147.42574620002415,147.42574620002415,147.42574620002415,147.42574620002415,147.42574620002415,147.42574620002415,147.42574620002415,147.42574620002415,147.42574620002415,150.90609780000523,,k,target,None,147.42574620002415,3.549297900055535,,,,,,,,,,,,,,student1,2022-10-25_12h27.50.968,Hippopolis_4AFCT,2022.2.4,59.76636134237672,
Camponello,stimuli/subj_files/student1_cityB.csv,./stimuli/leipzig.jpg,./stimuli/street_plate2.png,MENTA UTCA,stimuli/objects/092a.jpg,object,0,stimuli/objects/092a.jpg,stimuli/scenes/069a.jpg,stimuli/scenes/069b.jpg,stimuli/objects/092a.jpg,stimuli/objects/092b.jpg,dist1,dist2,target,lure,0,0,0,1,0,32,32,67,,,,,,,151.00527109997347,152.02723829995375,152.02723829995375,152.02723829995375,152.02723829995375,152.02723829995375,152.02723829995375,152.02723829995375,152.02723829995375,152.02723829995375,152.02723829995375,152.02723829995375,152.02723829995375,,,j,target,None,152.02723829995375,3.181281100027263,,,,,,,,,,,,,,student1,2022-10-25_12h27.50.968,Hippopolis_4AFCT,2022.2.4,59.76636134237672,
Camponello,stimuli/subj_files/student1_cityB.csv,./stimuli/leipzig.jpg,./stimuli/street_plate2.png,TERÍTŐ UTCA,stimuli/objects/098a.jpg,object,1,stimuli/objects/096a.jpg,stimuli/objects/096b.jpg,stimuli/objects/096a.jpg,stimuli/objects/013b.jpg,stimuli/objects/013a.jpg,lure,target,dist2,dist1,0,0,0,1,0,33,33,39,,,,,,,155.2384555999888,156.27555559994653,156.27555559994653,156.27555559994653,156.27555559994653,156.27555559994653,156.27555559994653,156.27555559994653,156.27555559994653,156.27555559994653,156.27555559994653,156.27555559994653,156.27555559994653,,,f,target,None,156.27555559994653,2.465990500058979,,,,,,,,,,,,,,student1,2022-10-25_12h27.50.968,Hippopolis_4AFCT,2022.2.4,59.76636134237672,
Camponello,stimuli/subj_files/student1_cityB.csv,./stimuli/leipzig.jpg,./stimuli/street_plate2.png,KOSÁR UTCA,stimuli/objects/057a.jpg,object,2,stimuli/scenes/001a.jpg,stimuli/scenes/001a.jpg,stimuli/scenes/001b.jpg,stimuli/objects/005b.jpg,stimuli/objects/005a.jpg,target,lure,dist2,dist1,0,0,0,1,0,34,34,38,,,,,,,158.77205269993283,159.80775379994884,159.80775379994884,159.80775379994884,159.80775379994884,159.80775379994884,159.80775379994884,159.80775379994884,159.80775379994884,159.80775379994884,159.80775379994884,159.80775379994884,159.80775379994884,,,d,target,None,159.80775379994884,2.598861900041811,,,,,,,,,,,,,,student1,2022-10-25_12h27.50.968,Hippopolis_4AFCT,2022.2.4,59.76636134237672,
Camponello,stimuli/subj_files/student1_cityB.csv,./stimuli/leipzig.jpg,./stimuli/street_plate2.png,LOVAGLÁS UTCA,stimuli/objects/019a.jpg,object,0,stimuli/objects/019a.jpg,stimuli/objects/019b.jpg,stimuli/objects/019a.jpg,stimuli/scenes/017b.jpg,stimuli/scenes/017a.jpg,lure,target,dist2,dist1,0,0,0,1,0,35,35,53,,,,,,,162.4386693999404,163.46295990003273,163.46295990003273,163.46295990003273,163.46295990003273,163.46295990003273,163.46295990003273,163.46295990003273,163.46295990003273,163.46295990003273,163.46295990003273,163.46295990003273,163.46295990003273,,,f,target,None,163.46295990003273,2.396770100109279,,,,,,,,,,,,,,student1,2022-10-25_12h27.50.968,Hippopolis_4AFCT,2022.2.4,59.76636134237672,
Camponello,stimuli/subj_files/student1_cityB.csv,./stimuli/leipzig.jpg,./stimuli/street_plate2.png,KATONA UTCA,stimuli/objects/077a.jpg,object,0,stimuli/objects/077a.jpg,stimuli/objects/077a.jpg,stimuli/scenes/115a.jpg,stimuli/scenes/115b.jpg,stimuli/objects/077b.jpg,target,dist1,dist2,lure,0,0,0,1,0,36,36,74,,,,,,,165.8887909000041,166.90843189996667,166.90843189996667,166.90843189996667,166.90843189996667,166.90843189996667,166.90843189996667,166.90843189996667,166.90843189996667,166.90843189996667,166.90843189996667,166.90843189996667,166.90843189996667,,,d,target,None,166.90843189996667,1.9746209000004455,,,,,,,,,,,,,,student1,2022-10-25_12h27.50.968,Hippopolis_4AFCT,2022.2.4,59.76636134237672,
Camponello,stimuli/subj_files/student1_cityB.csv,./stimuli/leipzig.jpg,./stimuli/street_plate2.png,BÚJÓCSKA UTCA,stimuli/scenes/015a.jpg,scene,1,stimuli/scenes/086a.jpg,stimuli/scenes/105b.jpg,stimuli/scenes/086a.jpg,stimuli/scenes/105a.jpg,stimuli/scenes/086b.jpg,dist2,target,dist1,lure,0,0,0,1,0,37,37,48,,,,,,,168.904981700005,169.93074300000444,169.93074300000444,169.93074300000444,169.93074300000444,169.93074300000444,169.93074300000444,169.93074300000444,169.93074300000444,169.93074300000444,169.93074300000444,169.93074300000444,169.93074300000444,,,f,target,None,169.93074300000444,2.9088212000206113,,,,,,,,,,,,,,student1,2022-10-25_12h27.50.968,Hippopolis_4AFCT,2022.2.4,59.76636134237672,
Camponello,stimuli/subj_files/student1_cityB.csv,./stimuli/leipzig.jpg,./stimuli/street_plate2.png,FOLYÓ UTCA,stimuli/scenes/035a.jpg,scene,0,stimuli/scenes/035a.jpg,stimuli/objects/034a.jpg,stimuli/scenes/035a.jpg,stimuli/objects/034b.jpg,stimuli/scenes/035b.jpg,dist1,target,dist2,lure,0,0,0,1,0,38,38,61,,,,,,,172.87174840003718,173.8886108000297,173.8886108000297,173.8886108000297,173.8886108000297,173.8886108000297,173.8886108000297,173.8886108000297,173.8886108000297,173.8886108000297,173.8886108000297,173.8886108000297,173.8886108000297,,,f,target,None,173.8886108000297,1.9040669000241905,,,,,,,,,,,,,,student1,2022-10-25_12h27.50.968,Hippopolis_4AFCT,2022.2.4,59.76636134237672,
Camponello,stimuli/subj_files/student1_cityB.csv,./stimuli/leipzig.jpg,./stimuli/street_plate2.png,KESZTYŰ UTCA,stimuli/scenes/040a.jpg,scene,1,stimuli/scenes/105a.jpg,stimuli/objects/096b.jpg,stimuli/scenes/105a.jpg,stimuli/scenes/105b.jpg,stimuli/objects/096a.jpg,dist2,target,lure,dist1,0,0,0,1,0,39,39,16,,,,,,,175.82195879996289,176.8362880999921,176.8362880999921,176.8362880999921,176.8362880999921,176.8362880999921,176.8362880999921,176.8362880999921,176.8362880999921,176.8362880999921,176.8362880999921,176.8362880999921,176.8362880999921,180.3221584999701,,k,dist1,None,176.8362880999921,3.503480299958028,,,,,,,,,,,,,,student1,2022-10-25_12h27.50.968,Hippopolis_4AFCT,2022.2.4,59.76636134237672,
Camponello,stimuli/subj_files/student1_cityB.csv,./stimuli/leipzig.jpg,./stimuli/street_plate2.png,ECSET UTCA,stimuli/scenes/003a.jpg,scene,2,stimuli/objects/005a.jpg,stimuli/objects/035b.jpg,stimuli/objects/005b.jpg,stimuli/objects/035a.jpg,stimuli/objects/005a.jpg,dist2,lure,dist1,target,0,0,0,1,0,40,40,11,,,,,,,180.3545520999469,181.37694879993796,181.37694879993796,181.37694879993796,181.37694879993796,181.37694879993796,181.37694879993796,181.37694879993796,181.37694879993796,181.37694879993796,181.37694879993796,181.37694879993796,181.37694879993796,,,k,target,None,181.37694879993796,3.2764369000215083,,,,,,,,,,,,,,student1,2022-10-25_12h27.50.968,Hippopolis_4AFCT,2022.2.4,59.76636134237672,
Camponello,stimuli/subj_files/student1_cityB.csv,./stimuli/leipzig.jpg,./stimuli/street_plate2.png,POLIP UTCA,stimuli/scenes/077a.jpg,scene,0,stimuli/scenes/077a.jpg,stimuli/scenes/077b.jpg,stimuli/scenes/077a.jpg,stimuli/scenes/091b.jpg,stimuli/scenes/091a.jpg,lure,target,dist2,dist1,0,0,0,1,0,41,41,49,,,,,,,184.67143019998912,185.69812049996108,185.69812049996108,185.69812049996108,185.69812049996108,185.69812049996108,185.69812049996108,185.69812049996108,185.69812049996108,185.69812049996108,185.69812049996108,185.69812049996108,185.69812049996108,,,f,target,None,185.69812049996108,2.604578600032255,,,,,,,,,,,,,,student1,2022-10-25_12h27.50.968,Hippopolis_4AFCT,2022.2.4,59.76636134237672,
Camponello,stimuli/subj_files/student1_cityB.csv,./stimuli/leipzig.jpg,./stimuli/street_plate2.png,TELEFON UTCA,stimuli/scenes/017a.jpg,scene,0,stimuli/scenes/017a.jpg,stimuli/objects/094b.jpg,stimuli/scenes/017b.jpg,stimuli/scenes/017a.jpg,stimuli/objects/094a.jpg,dist2,lure,target,dist1,0,0,0,1,0,42,42,27,,,,,,,188.3216134000104,189.3396725000348,189.3396725000348,189.3396725000348,189.3396725000348,189.3396725000348,189.3396725000348,189.3396725000348,189.3396725000348,189.3396725000348,189.3396725000348,189.3396725000348,189.3396725000348,,,j,target,None,189.3396725000348,2.3045508000068367,,,,,,,,,,,,,,student1,2022-10-25_12h27.50.968,Hippopolis_4AFCT,2022.2.4,59.76636134237672,
Camponello,stimuli/subj_files/student1_cityB.csv,./stimuli/leipzig.jpg,./stimuli/street_plate2.png,PAPRIKA UTCA,stimuli/objects/033a.jpg,object,0,stimuli/objects/033a.jpg,stimuli/scenes/023a.jpg,stimuli/objects/033b.jpg,stimuli/scenes/023b.jpg,stimuli/objects/033a.jpg,dist1,lure,dist2,target,0,0,0,1,0,43,43,30,,,,,,,191.67154829995707,192.68590769998264,192.68590769998264,192.68590769998264,192.68590769998264,192.68590769998264,192.68590769998264,192.68590769998264,192.68590769998264,192.68590769998264,192.68590769998264,192.68590769998264,192.68590769998264,196.17232240003068,,d,dist1,None,192.68590769998264,3.4942905000643805,,,,,,,,,,,,,,student1,2022-10-25_12h27.50.968,Hippopolis_4AFCT,2022.2.4,59.76636134237672,
Camponello,stimuli/subj_files/student1_cityB.csv,./stimuli/leipzig.jpg,./stimuli/street_plate2.png,TORONY UTCA,stimuli/scenes/094a.jpg,scene,2,stimuli/objects/054a.jpg,stimuli/scenes/001a.jpg,stimuli/scenes/001b.jpg,stimuli/objects/054b.jpg,stimuli/objects/054a.jpg,dist1,dist2,lure,target,0,0,0,1,0,44,44,62,,,,,,,196.20436620002147,197.21239739994053,197.21239739994053,197.21239739994053,197.21239739994053,197.21239739994053,197.21239739994053,197.21239739994053,197.21239739994053,197.21239739994053,197.21239739994053,197.21239739994053,197.21239739994053,,,k,target,space,197.21239739994053,3.0551337000215426,200.2877377999248,200.2877377999248,3.9624820000026375,,,,,,,,,,,student1,2022-10-25_12h27.50.968,Hippopolis_4AFCT,2022.2.4,59.76636134237672,
Camponello,stimuli/subj_files/student1_cityB.csv,./stimuli/leipzig.jpg,./stimuli/street_plate2.png,LABDA UTCA,stimuli/objects/082a.jpg,object,0,stimuli/objects/082a.jpg,stimuli/scenes/049a.jpg,stimuli/scenes/049b.jpg,stimuli/objects/082b.jpg,stimuli/objects/082a.jpg,dist1,dist2,lure,target,0,0,0,1,0,45,45,72,,,,,,,204.2714246000396,205.28704460000154,205.28704460000154,205.28704460000154,205.28704460000154,205.28704460000154,205.28704460000154,205.28704460000154,205.28704460000154,205.28704460000154,205.28704460000154,205.28704460000154,205.28704460000154,,,k,target,None,205.28704460000154,1.9715890999650583,,,,,,,,,,,,,,student1,2022-10-25_12h27.50.968,Hippopolis_4AFCT,2022.2.4,59.76636134237672,
Camponello,stimuli/subj_files/student1_cityB.csv,./stimuli/leipzig.jpg,./stimuli/street_plate2.png,FÉSZEK UTCA,stimuli/objects/042a.jpg,object,1,stimuli/objects/044a.jpg,stimuli/scenes/020b.jpg,stimuli/objects/044a.jpg,stimuli/scenes/020a.jpg,stimuli/objects/044b.jpg,dist2,target,dist1,lure,0,0,0,1,0,46,46,10,,,,,,,207.28773039998487,208.32587499998044,208.32587499998044,208.32587499998044,208.32587499998044,208.32587499998044,208.32587499998044,208.32587499998044,208.32587499998044,208.32587499998044,208.32587499998044,208.32587499998044,208.32587499998044,,,f,target,None,208.32587499998044,2.3654267999809235,,,,,,,,,,,,,,student1,2022-10-25_12h27.50.968,Hippopolis_4AFCT,2022.2.4,59.76636134237672,
Camponello,stimuli/subj_files/student1_cityB.csv,./stimuli/leipzig.jpg,./stimuli/street_plate2.png,TÁNYÉR UTCA,stimuli/objects/118a.jpg,object,0,stimuli/objects/118a.jpg,stimuli/objects/102b.jpg,stimuli/objects/102a.jpg,stimuli/objects/118b.jpg,stimuli/objects/118a.jpg,dist2,dist1,lure,target,0,0,0,1,0,47,47,28,,,,,,,210.7210091999732,211.7488191999728,211.7488191999728,211.7488191999728,211.7488191999728,211.7488191999728,211.7488191999728,211.7488191999728,211.7488191999728,211.7488191999728,211.7488191999728,211.7488191999728,211.7488191999728,,,f,dist1,None,211.7488191999728,3.2975546999368817,,,,,,,,,,,,,,student1,2022-10-25_12h27.50.968,Hippopolis_4AFCT,2022.2.4,59.76636134237672,
Camponello,stimuli/subj_files/student1_cityB.csv,./stimuli/leipzig.jpg,./stimuli/street_plate2.png,VIHAR UTCA,stimuli/objects/048a.jpg,object,2,stimuli/scenes/054a.jpg,stimuli/scenes/054b.jpg,stimuli/scenes/100b.jpg,stimuli/scenes/054a.jpg,stimuli/scenes/100a.jpg,lure,dist2,target,dist1,0,0,0,1,0,48,48,65,,,,,,,215.0705062999623,216.07826069998555,216.07826069998555,216.07826069998555,216.07826069998555,216.07826069998555,216.07826069998555,216.07826069998555,216.07826069998555,216.07826069998555,216.07826069998555,216.07826069998555,216.07826069998555,,,j,target,None,216.07826069998555,2.724095799960196,,,,,,,,,,,,,,student1,2022-10-25_12h27.50.968,Hippopolis_4AFCT,2022.2.4,59.76636134237672,
Camponello,stimuli/subj_files/student1_cityB.csv,./stimuli/leipzig.jpg,./stimuli/street_plate2.png,HARCSA UTCA,stimuli/scenes/080a.jpg,scene,2,stimuli/objects/029a.jpg,stimuli/scenes/054b.jpg,stimuli/scenes/054a.jpg,stimuli/objects/029b.jpg,stimuli/objects/029a.jpg,dist2,dist1,lure,target,0,0,0,1,0,49,49,59,,,,,,,218.833714999957,219.8423164000269,219.8423164000269,219.8423164000269,219.8423164000269,219.8423164000269,219.8423164000269,219.8423164000269,219.8423164000269,219.8423164000269,219.8423164000269,219.8423164000269,219.8423164000269,,,k,target,None,219.8423164000269,3.0115652000531554,,,,,,,,,,,,,,student1,2022-10-25_12h27.50.968,Hippopolis_4AFCT,2022.2.4,59.76636134237672,
Camponello,stimuli/subj_files/student1_cityB.csv,./stimuli/leipzig.jpg,./stimuli/street_plate2.png,VÁSÁR UTCA,stimuli/scenes/089a.jpg,scene,0,stimuli/scenes/089a.jpg,stimuli/scenes/089a.jpg,stimuli/scenes/089b.jpg,stimuli/scenes/082b.jpg,stimuli/scenes/082a.jpg,target,lure,dist2,dist1,0,0,0,1,0,50,50,41,,,,,,,222.87086000002455,223.89103569998406,223.89103569998406,223.89103569998406,223.89103569998406,223.89103569998406,223.89103569998406,223.89103569998406,223.89103569998406,223.89103569998406,223.89103569998406,223.89103569998406,223.89103569998406,,,d,target,None,223.89103569998406,2.3349868000950664,,,,,,,,,,,,,,student1,2022-10-25_12h27.50.968,Hippopolis_4AFCT,2022.2.4,59.76636134237672,
Camponello,stimuli/subj_files/student1_cityB.csv,./stimuli/leipzig.jpg,./stimuli/street_plate2.png,ÁLLOMÁS UTCA,stimuli/scenes/069a.jpg,scene,0,stimuli/scenes/069a.jpg,stimuli/scenes/106a.jpg,stimuli/scenes/106b.jpg,stimuli/scenes/069b.jpg,stimuli/scenes/069a.jpg,dist1,dist2,lure,target,0,0,0,1,0,51,51,42,,,,,,,226.25418169994373,227.25791089993436,227.25791089993436,227.25791089993436,227.25791089993436,227.25791089993436,227.25791089993436,227.25791089993436,227.25791089993436,227.25791089993436,227.25791089993436,227.25791089993436,227.25791089993436,,,k,target,None,227.25791089993436,2.72435240005143,,,,,,,,,,,,,,student1,2022-10-25_12h27.50.968,Hippopolis_4AFCT,2022.2.4,59.76636134237672,
Camponello,stimuli/subj_files/student1_cityB.csv,./stimuli/leipzig.jpg,./stimuli/street_plate2.png,SÜTEMÉNY UTCA,stimuli/objects/074a.jpg,object,2,stimuli/scenes/102a.jpg,stimuli/objects/061b.jpg,stimuli/objects/061a.jpg,stimuli/scenes/102a.jpg,stimuli/scenes/102b.jpg,dist2,dist1,target,lure,0,0,0,1,0,52,52,32,,,,,,,230.00439449993428,231.0297909999499,231.0297909999499,231.0297909999499,231.0297909999499,231.0297909999499,231.0297909999499,231.0297909999499,231.0297909999499,231.0297909999499,231.0297909999499,231.0297909999499,231.0297909999499,,,j,target,None,231.0297909999499,2.0112223000032827,,,,,,,,,,,,,,student1,2022-10-25_12h27.50.968,Hippopolis_4AFCT,2022.2.4,59.76636134237672,
Camponello,stimuli/subj_files/student1_cityB.csv,./stimuli/leipzig.jpg,./stimuli/street_plate2.png,LEVÉL UTCA,stimuli/scenes/019a.jpg,scene,0,stimuli/scenes/019a.jpg,stimuli/objects/052a.jpg,stimuli/scenes/019a.jpg,stimuli/scenes/019b.jpg,stimuli/objects/052b.jpg,dist1,target,lure,dist2,0,0,0,1,0,53,53,8,,,,,,,233.070274699945,234.07902089995332,234.07902089995332,234.07902089995332,234.07902089995332,234.07902089995332,234.07902089995332,234.07902089995332,234.07902089995332,234.07902089995332,234.07902089995332,234.07902089995332,234.07902089995332,,,f,target,None,234.07902089995332,3.1118412000359967,,,,,,,,,,,,,,student1,2022-10-25_12h27.50.968,Hippopolis_4AFCT,2022.2.4,59.76636134237672,
Camponello,stimuli/subj_files/student1_cityB.csv,./stimuli/leipzig.jpg,./stimuli/street_plate2.png,SZALVÉTA UTCA,stimuli/objects/072a.jpg,object,0,stimuli/objects/072a.jpg,stimuli/scenes/045b.jpg,stimuli/scenes/045a.jpg,stimuli/objects/072b.jpg,stimuli/objects/072a.jpg,dist2,dist1,lure,target,0,0,0,1,0,54,54,54,,,,,,,237.22039449994918,238.23984699998982,238.23984699998982,238.23984699998982,238.23984699998982,238.23984699998982,238.23984699998982,238.23984699998982,238.23984699998982,238.23984699998982,238.23984699998982,238.23984699998982,238.23984699998982,,,k,target,None,238.23984699998982,2.4178409000160173,,,,,,,,,,,,,,student1,2022-10-25_12h27.50.968,Hippopolis_4AFCT,2022.2.4,59.76636134237672,
Camponello,stimuli/subj_files/student1_cityB.csv,./stimuli/leipzig.jpg,./stimuli/street_plate2.png,KÁRTYA UTCA,stimuli/scenes/076a.jpg,scene,0,stimuli/scenes/076a.jpg,stimuli/objects/008a.jpg,stimuli/scenes/076b.jpg,stimuli/scenes/076a.jpg,stimuli/objects/008b.jpg,dist1,lure,target,dist2,0,0,0,1,0,55,55,64,,,,,,,240.68713610002305,241.71053689997643,241.71053689997643,241.71053689997643,241.71053689997643,241.71053689997643,241.71053689997643,241.71053689997643,241.71053689997643,241.71053689997643,241.71053689997643,241.71053689997643,241.71053689997643,,,j,target,None,241.71053689997643,2.456642000004649,,,,,,,,,,,,,,student1,2022-10-25_12h27.50.968,Hippopolis_4AFCT,2022.2.4,59.76636134237672,
Camponello,stimuli/subj_files/student1_cityB.csv,./stimuli/leipzig.jpg,./stimuli/street_plate2.png,ZÁSZLÓ UTCA,stimuli/scenes/103a.jpg,scene,2,stimuli/objects/037a.jpg,stimuli/scenes/102b.jpg,stimuli/objects/037b.jpg,stimuli/scenes/102a.jpg,stimuli/objects/037a.jpg,dist2,lure,dist1,target,0,0,0,1,0,56,56,60,,,,,,,244.18694869999308,245.21627650002483,245.21627650002483,245.21627650002483,245.21627650002483,245.21627650002483,245.21627650002483,245.21627650002483,245.21627650002483,245.21627650002483,245.21627650002483,245.21627650002483,245.21627650002483,,,k,target,None,245.21627650002483,1.7725219000130892,,,,,,,,,,,,,,student1,2022-10-25_12h27.50.968,Hippopolis_4AFCT,2022.2.4,59.76636134237672,
Camponello,stimuli/subj_files/student1_cityB.csv,./stimuli/leipzig.jpg,./stimuli/street_plate2.png,KUTYA UTCA,stimuli/scenes/030a.jpg,scene,0,stimuli/scenes/030a.jpg,stimuli/scenes/030b.jpg,stimuli/scenes/052b.jpg,stimuli/scenes/052a.jpg,stimuli/scenes/030a.jpg,lure,dist2,dist1,target,0,0,0,1,0,57,57,35,,,,,,,247.02065600000788,248.03190279996488,248.03190279996488,248.03190279996488,248.03190279996488,248.03190279996488,248.03190279996488,248.03190279996488,248.03190279996488,248.03190279996488,248.03190279996488,248.03190279996488,248.03190279996488,,,k,target,None,248.03190279996488,1.9065487999469042,,,,,,,,,,,,,,student1,2022-10-25_12h27.50.968,Hippopolis_4AFCT,2022.2.4,59.76636134237672,
Camponello,stimuli/subj_files/student1_cityB.csv,./stimuli/leipzig.jpg,./stimuli/street_plate2.png,FÜGE UTCA,stimuli/scenes/115a.jpg,scene,0,stimuli/scenes/115a.jpg,stimuli/scenes/115b.jpg,stimuli/scenes/115a.jpg,stimuli/objects/084b.jpg,stimuli/objects/084a.jpg,lure,target,dist2,dist1,0,0,0,1,0,58,58,47,,,,,,,249.95379830000456,250.96716869994998,250.96716869994998,250.96716869994998,250.96716869994998,250.96716869994998,250.96716869994998,250.96716869994998,250.96716869994998,250.96716869994998,250.96716869994998,250.96716869994998,250.96716869994998,,,f,target,None,250.96716869994998,2.357911399914883,,,,,,,,,,,,,,student1,2022-10-25_12h27.50.968,Hippopolis_4AFCT,2022.2.4,59.76636134237672,
Camponello,stimuli/subj_files/student1_cityB.csv,./stimuli/leipzig.jpg,./stimuli/street_plate2.png,ASZTAL UTCA,stimuli/scenes/120a.jpg,scene,2,stimuli/objects/035a.jpg,stimuli/scenes/079b.jpg,stimuli/scenes/079a.jpg,stimuli/objects/035b.jpg,stimuli/objects/035a.jpg,dist2,dist1,lure,target,0,0,0,1,0,59,59,24,,,,,,,253.35394419997465,254.38094910001382,254.38094910001382,254.38094910001382,254.38094910001382,254.38094910001382,254.38094910001382,254.38094910001382,254.38094910001382,254.38094910001382,254.38094910001382,254.38094910001382,254.38094910001382,,,f,dist1,None,254.38094910001382,3.2911547999829054,,,,,,,,,,,,,,student1,2022-10-25_12h27.50.968,Hippopolis_4AFCT,2022.2.4,59.76636134237672,
Camponello,stimuli/subj_files/student1_cityB.csv,./stimuli/leipzig.jpg,./stimuli/street_plate2.png,SALÁTA UTCA,stimuli/objects/008a.jpg,object,0,stimuli/objects/008a.jpg,stimuli/scenes/099b.jpg,stimuli/objects/008b.jpg,stimuli/objects/008a.jpg,stimuli/scenes/099a.jpg,dist2,lure,target,dist1,0,0,0,1,0,60,60,73,,,,,,,257.7038221999537,258.7186666999478,258.7186666999478,258.7186666999478,258.7186666999478,258.7186666999478,258.7186666999478,258.7186666999478,258.7186666999478,258.7186666999478,258.7186666999478,258.7186666999478,258.7186666999478,,,j,target,None,258.7186666999478,2.662343999953009,,,,,,,,,,,,,,student1,2022-10-25_12h27.50.968,Hippopolis_4AFCT,2022.2.4,59.76636134237672,
Camponello,stimuli/subj_files/student1_cityB.csv,./stimuli/leipzig.jpg,./stimuli/street_plate2.png,TÁSKA UTCA,stimuli/objects/110a.jpg,object,2,stimuli/scenes/079a.jpg,stimuli/scenes/079a.jpg,stimuli/objects/037b.jpg,stimuli/objects/037a.jpg,stimuli/scenes/079b.jpg,target,dist2,dist1,lure,0,0,0,1,0,61,61,33,,,,,,,261.40346669999417,262.428096299991,262.428096299991,262.428096299991,262.428096299991,262.428096299991,262.428096299991,262.428096299991,262.428096299991,262.428096299991,262.428096299991,262.428096299991,262.428096299991,265.9040740999626,,j,dist1,None,262.428096299991,3.7915458999341354,,,,,,,,,,,,,,student1,2022-10-25_12h27.50.968,Hippopolis_4AFCT,2022.2.4,59.76636134237672,
Camponello,stimuli/subj_files/student1_cityB.csv,./stimuli/leipzig.jpg,./stimuli/street_plate2.png,ORVOS UTCA,stimuli/objects/016a.jpg,object,0,stimuli/objects/016a.jpg,stimuli/scenes/089a.jpg,stimuli/scenes/089b.jpg,stimuli/objects/016a.jpg,stimuli/objects/016b.jpg,dist1,dist2,target,lure,0,0,0,1,0,62,62,4,,,,,,,266.23658279993106,267.24593580001965,267.24593580001965,267.24593580001965,267.24593580001965,267.24593580001965,267.24593580001965,267.24593580001965,267.24593580001965,267.24593580001965,267.24593580001965,267.24593580001965,267.24593580001965,,,j,target,None,267.24593580001965,1.8327277000062168,,,,,,,,,,,,,,student1,2022-10-25_12h27.50.968,Hippopolis_4AFCT,2022.2.4,59.76636134237672,
Camponello,stimuli/subj_files/student1_cityB.csv,./stimuli/leipzig.jpg,./stimuli/street_plate2.png,PÁRNA UTCA,stimuli/objects/112a.jpg,object,0,stimuli/objects/112a.jpg,stimuli/objects/112b.jpg,stimuli/scenes/032b.jpg,stimuli/scenes/032a.jpg,stimuli/objects/112a.jpg,lure,dist2,dist1,target,0,0,0,1,0,63,63,77,,,,,,,269.1032056999393,270.123753999942,270.123753999942,270.123753999942,270.123753999942,270.123753999942,270.123753999942,270.123753999942,270.123753999942,270.123753999942,270.123753999942,270.123753999942,270.123753999942,,,k,target,None,270.123753999942,1.6612620999803767,,,,,,,,,,,,,,student1,2022-10-25_12h27.50.968,Hippopolis_4AFCT,2022.2.4,59.76636134237672,
Camponello,stimuli/subj_files/student1_cityB.csv,./stimuli/leipzig.jpg,./stimuli/street_plate2.png,KÓKUSZ UTCA,stimuli/scenes/052a.jpg,scene,0,stimuli/scenes/052a.jpg,stimuli/scenes/052a.jpg,stimuli/objects/077b.jpg,stimuli/objects/077a.jpg,stimuli/scenes/052b.jpg,target,dist2,dist1,lure,0,0,0,1,0,64,64,19,,,,,,,271.80318049993366,272.81928259995766,272.81928259995766,272.81928259995766,272.81928259995766,272.81928259995766,272.81928259995766,272.81928259995766,272.81928259995766,272.81928259995766,272.81928259995766,272.81928259995766,272.81928259995766,,,d,target,None,272.81928259995766,3.2764011999825016,,,,,,,,,,,,,,student1,2022-10-25_12h27.50.968,Hippopolis_4AFCT,2022.2.4,59.76636134237672,
Camponello,stimuli/subj_files/student1_cityB.csv,./stimuli/leipzig.jpg,./stimuli/street_plate2.png,LÉPCSŐ UTCA,stimuli/objects/049a.jpg,object,0,stimuli/objects/049a.jpg,stimuli/scenes/076b.jpg,stimuli/scenes/076a.jpg,stimuli/objects/049b.jpg,stimuli/objects/049a.jpg,dist2,dist1,lure,target,0,0,0,1,0,65,65,43,,,,,,,276.1196963000111,277.1268883999437,277.1268883999437,277.1268883999437,277.1268883999437,277.1268883999437,277.1268883999437,277.1268883999437,277.1268883999437,277.1268883999437,277.1268883999437,277.1268883999437,277.1268883999437,,,k,target,None,277.1268883999437,1.9574326999718323,,,,,,,,,,,,,,student1,2022-10-25_12h27.50.968,Hippopolis_4AFCT,2022.2.4,59.76636134237672,
Camponello,stimuli/subj_files/student1_cityB.csv,./stimuli/leipzig.jpg,./stimuli/street_plate2.png,KRÉTA UTCA,stimuli/scenes/091a.jpg,scene,0,stimuli/scenes/091a.jpg,stimuli/scenes/098b.jpg,stimuli/scenes/091b.jpg,stimuli/scenes/098a.jpg,stimuli/scenes/091a.jpg,dist2,lure,dist1,target,0,0,0,1,0,66,66,21,,,,,,,279.10309430002235,280.1131848000223,280.1131848000223,280.1131848000223,280.1131848000223,280.1131848000223,280.1131848000223,280.1131848000223,280.1131848000223,280.1131848000223,280.1131848000223,280.1131848000223,280.1131848000223,,,k,target,None,280.1131848000223,2.8728753000032157,,,,,,,,,,,,,,student1,2022-10-25_12h27.50.968,Hippopolis_4AFCT,2022.2.4,59.76636134237672,
Camponello,stimuli/subj_files/student1_cityB.csv,./stimuli/leipzig.jpg,./stimuli/street_plate2.png,SAJTÓ UTCA,stimuli/scenes/112a.jpg,scene,0,stimuli/scenes/112a.jpg,stimuli/objects/018a.jpg,stimuli/scenes/112b.jpg,stimuli/scenes/112a.jpg,stimuli/objects/018b.jpg,dist1,lure,target,dist2,0,0,0,1,0,67,67,15,,,,,,,283.0030142000178,284.0312706999248,284.0312706999248,284.0312706999248,284.0312706999248,284.0312706999248,284.0312706999248,284.0312706999248,284.0312706999248,284.0312706999248,284.0312706999248,284.0312706999248,284.0312706999248,,,j,target,None,284.0312706999248,1.349495999980718,,,,,,,,,,,,,,student1,2022-10-25_12h27.50.968,Hippopolis_4AFCT,2022.2.4,59.76636134237672,
Camponello,stimuli/subj_files/student1_cityB.csv,./stimuli/leipzig.jpg,./stimuli/street_plate2.png,REPÜLŐ UTCA,stimuli/scenes/098a.jpg,scene,0,stimuli/scenes/098a.jpg,stimuli/scenes/013a.jpg,stimuli/scenes/013b.jpg,stimuli/scenes/098a.jpg,stimuli/scenes/098b.jpg,dist1,dist2,target,lure,0,0,0,1,0,68,68,66,,,,,,,285.4029426999623,286.4279666999355,286.4279666999355,286.4279666999355,286.4279666999355,286.4279666999355,286.4279666999355,286.4279666999355,286.4279666999355,286.4279666999355,286.4279666999355,286.4279666999355,286.4279666999355,,,j,target,None,286.4279666999355,2.9747126000002027,,,,,,,,,,,,,,student1,2022-10-25_12h27.50.968,Hippopolis_4AFCT,2022.2.4,59.76636134237672,
Camponello,stimuli/subj_files/student1_cityB.csv,./stimuli/leipzig.jpg,./stimuli/street_plate2.png,FEJSZE UTCA,stimuli/objects/065a.jpg,object,0,stimuli/objects/065a.jpg,stimuli/scenes/075b.jpg,stimuli/objects/065b.jpg,stimuli/objects/065a.jpg,stimuli/scenes/075a.jpg,dist2,lure,target,dist1,0,0,0,1,0,69,69,9,,,,,,,289.4197306999704,290.42709000001196,290.42709000001196,290.42709000001196,290.42709000001196,290.42709000001196,290.42709000001196,290.42709000001196,290.42709000001196,290.42709000001196,290.42709000001196,290.42709000001196,290.42709000001196,,,j,target,None,290.42709000001196,2.772529000067152,,,,,,,,,,,,,,student1,2022-10-25_12h27.50.968,Hippopolis_4AFCT,2022.2.4,59.76636134237672,
Camponello,stimuli/subj_files/student1_cityB.csv,./stimuli/leipzig.jpg,./stimuli/street_plate2.png,MAJOM UTCA,stimuli/objects/018a.jpg,object,0,stimuli/objects/018a.jpg,stimuli/objects/018a.jpg,stimuli/scenes/092b.jpg,stimuli/objects/018b.jpg,stimuli/scenes/092a.jpg,target,dist2,lure,dist1,0,0,0,1,0,70,70,78,,,,,,,293.2199848999735,294.23944619996473,294.23944619996473,294.23944619996473,294.23944619996473,294.23944619996473,294.23944619996473,294.23944619996473,294.23944619996473,294.23944619996473,294.23944619996473,294.23944619996473,294.23944619996473,,,d,target,None,294.23944619996473,1.8032032999908552,,,,,,,,,,,,,,student1,2022-10-25_12h27.50.968,Hippopolis_4AFCT,2022.2.4,59.76636134237672,
Camponello,stimuli/subj_files/student1_cityB.csv,./stimuli/leipzig.jpg,./stimuli/street_plate2.png,KANÁL UTCA,stimuli/scenes/057a.jpg,scene,1,stimuli/scenes/020a.jpg,stimuli/scenes/020b.jpg,stimuli/scenes/020a.jpg,stimuli/scenes/062a.jpg,stimuli/scenes/062b.jpg,lure,target,dist1,dist2,0,0,0,1,0,71,71,14,,,,,,,296.0699553999584,297.0835910999449,297.0835910999449,297.0835910999449,297.0835910999449,297.0835910999449,297.0835910999449,297.0835910999449,297.0835910999449,297.0835910999449,297.0835910999449,297.0835910999449,297.0835910999449,,,j,dist1,None,297.0835910999449,3.147944299969822,,,,,,,,,,,,,,student1,2022-10-25_12h27.50.968,Hippopolis_4AFCT,2022.2.4,59.76636134237672,
Camponello,stimuli/subj_files/student1_cityB.csv,./stimuli/leipzig.jpg,./stimuli/street_plate2.png,SZŐNYEG UTCA,stimuli/objects/040a.jpg,object,0,stimuli/objects/040a.jpg,stimuli/objects/040a.jpg,stimuli/objects/040b.jpg,stimuli/objects/019b.jpg,stimuli/objects/019a.jpg,target,lure,dist2,dist1,0,0,0,1,0,72,72,29,,,,,,,300.25303110003006,301.27553919993807,301.27553919993807,301.27553919993807,301.27553919993807,301.27553919993807,301.27553919993807,301.27553919993807,301.27553919993807,301.27553919993807,301.27553919993807,301.27553919993807,301.27553919993807,,,d,target,None,301.27553919993807,3.190657800063491,,,,,,,,,,,,,,student1,2022-10-25_12h27.50.968,Hippopolis_4AFCT,2022.2.4,59.76636134237672,
Camponello,stimuli/subj_files/student1_cityB.csv,./stimuli/leipzig.jpg,./stimuli/street_plate2.png,TENISZ UTCA,stimuli/objects/102a.jpg,object,0,stimuli/objects/102a.jpg,stimuli/objects/102b.jpg,stimuli/objects/102a.jpg,stimuli/scenes/038a.jpg,stimuli/scenes/038b.jpg,lure,target,dist1,dist2,0,0,0,1,0,73,73,75,,,,,,,304.4864532999927,305.49567340000067,305.49567340000067,305.49567340000067,305.49567340000067,305.49567340000067,305.49567340000067,305.49567340000067,305.49567340000067,305.49567340000067,305.49567340000067,305.49567340000067,305.49567340000067,,,f,target,None,305.49567340000067,3.3457873000297695,,,,,,,,,,,,,,student1,2022-10-25_12h27.50.968,Hippopolis_4AFCT,2022.2.4,59.76636134237672,
Camponello,stimuli/subj_files/student1_cityB.csv,./stimuli/leipzig.jpg,./stimuli/street_plate2.png,MÁRVÁNY UTCA,stimuli/scenes/023a.jpg,scene,0,stimuli/scenes/023a.jpg,stimuli/objects/030a.jpg,stimuli/scenes/023b.jpg,stimuli/objects/030b.jpg,stimuli/scenes/023a.jpg,dist1,lure,dist2,target,0,0,0,1,0,74,74,58,,,,,,,308.8700536999386,309.8866706000408,309.8866706000408,309.8866706000408,309.8866706000408,309.8866706000408,309.8866706000408,309.8866706000408,309.8866706000408,309.8866706000408,309.8866706000408,309.8866706000408,309.8866706000408,,,k,target,None,309.8866706000408,3.3704221999505535,,,,,,,,,,,,,,student1,2022-10-25_12h27.50.968,Hippopolis_4AFCT,2022.2.4,59.76636134237672,
Camponello,stimuli/subj_files/student1_cityB.csv,./stimuli/leipzig.jpg,./stimuli/street_plate2.png,KÍGYÓ UTCA,stimuli/scenes/032a.jpg,scene,0,stimuli/scenes/032a.jpg,stimuli/scenes/032a.jpg,stimuli/objects/088a.jpg,stimuli/scenes/032b.jpg,stimuli/objects/088b.jpg,target,dist1,lure,dist2,0,0,0,1,0,75,75,76,,,,,,,313.28638790000696,314.3095727999462,314.3095727999462,314.3095727999462,314.3095727999462,314.3095727999462,314.3095727999462,314.3095727999462,314.3095727999462,314.3095727999462,314.3095727999462,314.3095727999462,314.3095727999462,,,d,target,None,314.3095727999462,1.7420848000328988,,,,,,,,,,,,,,student1,2022-10-25_12h27.50.968,Hippopolis_4AFCT,2022.2.4,59.76636134237672,
Camponello,stimuli/subj_files/student1_cityB.csv,./stimuli/leipzig.jpg,./stimuli/street_plate2.png,LEMEZ UTCA,stimuli/scenes/022a.jpg,scene,0,stimuli/scenes/022a.jpg,stimuli/scenes/077b.jpg,stimuli/scenes/022a.jpg,stimuli/scenes/022b.jpg,stimuli/scenes/077a.jpg,dist2,target,lure,dist1,0,0,0,1,0,76,76,13,,,,,,,316.06950829993,317.0753558999859,317.0753558999859,317.0753558999859,317.0753558999859,317.0753558999859,317.0753558999859,317.0753558999859,317.0753558999859,317.0753558999859,317.0753558999859,317.0753558999859,317.0753558999859,,,f,target,None,317.0753558999859,2.242819699924439,,,,,,,,,,,,,,student1,2022-10-25_12h27.50.968,Hippopolis_4AFCT,2022.2.4,59.76636134237672,
Camponello,stimuli/subj_files/student1_cityB.csv,./stimuli/leipzig.jpg,./stimuli/street_plate2.png,SUGÁR UTCA,stimuli/objects/094a.jpg,object,0,stimuli/objects/094a.jpg,stimuli/objects/094b.jpg,stimuli/objects/064b.jpg,stimuli/objects/064a.jpg,stimuli/objects/094a.jpg,lure,dist2,dist1,target,0,0,0,1,0,77,77,40,,,,,,,319.33612340001855,320.35736969998106,320.35736969998106,320.35736969998106,320.35736969998106,320.35736969998106,320.35736969998106,320.35736969998106,320.35736969998106,320.35736969998106,320.35736969998106,320.35736969998106,320.35736969998106,,,k,target,None,320.35736969998106,2.5049002000596374,,,,,,,,,,,,,,student1,2022-10-25_12h27.50.968,Hippopolis_4AFCT,2022.2.4,59.76636134237672,
Camponello,stimuli/subj_files/student1_cityB.csv,./stimuli/leipzig.jpg,./stimuli/street_plate2.png,BETON UTCA,stimuli/objects/104a.jpg,object,2,stimuli/scenes/063a.jpg,stimuli/scenes/063b.jpg,stimuli/scenes/063a.jpg,stimuli/objects/054a.jpg,stimuli/objects/054b.jpg,lure,target,dist1,dist2,0,0,0,1,0,78,78,52,,,,,,,322.8859777000034,323.9078457999276,323.9078457999276,323.9078457999276,323.9078457999276,323.9078457999276,323.9078457999276,323.9078457999276,323.9078457999276,323.9078457999276,323.9078457999276,323.9078457999276,323.9078457999276,,,f,target,None,323.9078457999276,2.881393800023943,,,,,,,,,,,,,,student1,2022-10-25_12h27.50.968,Hippopolis_4AFCT,2022.2.4,59.76636134237672,
Camponello,stimuli/subj_files/student1_cityB.csv,./stimuli/leipzig.jpg,./stimuli/street_plate2.png,KOCSI UTCA,stimuli/scenes/114a.jpg,scene,0,stimuli/scenes/114a.jpg,stimuli/objects/082b.jpg,stimuli/scenes/114b.jpg,stimuli/scenes/114a.jpg,stimuli/objects/082a.jpg,dist2,lure,target,dist1,0,0,0,1,0,79,79,69,,,,,,,326.8192188999383,327.84587219997775,327.84587219997775,327.84587219997775,327.84587219997775,327.84587219997775,327.84587219997775,327.84587219997775,327.84587219997775,327.84587219997775,327.84587219997775,327.84587219997775,327.84587219997775,,,j,target,None,327.84587219997775,2.739525700104423,,,,,,,,,,,,,,student1,2022-10-25_12h27.50.968,Hippopolis_4AFCT,2022.2.4,59.76636134237672,
Hippopolis,stimuli/subj_files/student1_cityA.csv,./stimuli/frankfurt.jpg,./stimuli/street_plate1.png,PIZSAMA UTCA,stimuli/scenes/060a.jpg,scene,2,stimuli/objects/006a.jpg,stimuli/scenes/007b.jpg,stimuli/scenes/007a.jpg,stimuli/objects/006b.jpg,stimuli/objects/006a.jpg,dist2,dist1,lure,target,0,1,1,0,0,0,0,79,,,,,334.2176293999655,334.2176293999655,337.17111290001776,338.2238408999983,338.2238408999983,338.2238408999983,338.2238408999983,338.2238408999983,338.2238408999983,338.2238408999983,338.2238408999983,338.2238408999983,338.2238408999983,338.2238408999983,338.2238408999983,,,j,lure,None,,3.2874840000877157,,,,66,1,12,0,330.6028020000085,330.6028020000085,space,3.5463561998913065,,,student1,2022-10-25_12h27.50.968,Hippopolis_4AFCT,2022.2.4,59.76636134237672,
Hippopolis,stimuli/subj_files/student1_cityA.csv,./stimuli/frankfurt.jpg,./stimuli/street_plate1.png,KERET UTCA,stimuli/scenes/027a.jpg,scene,0,stimuli/scenes/027a.jpg,stimuli/objects/100a.jpg,stimuli/objects/100b.jpg,stimuli/scenes/027a.jpg,stimuli/scenes/027b.jpg,dist1,dist2,target,lure,0,1,1,0,0,1,1,3,,,,,,,341.53572689997964,342.56056869996246,342.56056869996246,342.56056869996246,342.56056869996246,342.56056869996246,342.56056869996246,342.56056869996246,342.56056869996246,342.56056869996246,342.56056869996246,342.56056869996246,342.56056869996246,,,j,target,None,342.56056869996246,2.1214395998977125,,,,,,,,,,,,,,student1,2022-10-25_12h27.50.968,Hippopolis_4AFCT,2022.2.4,59.76636134237672,
Hippopolis,stimuli/subj_files/student1_cityA.csv,./stimuli/frankfurt.jpg,./stimuli/street_plate1.png,LÉTRA UTCA,stimuli/objects/047a.jpg,object,1,stimuli/objects/015a.jpg,stimuli/objects/108b.jpg,stimuli/objects/015b.jpg,stimuli/objects/108a.jpg,stimuli/objects/015a.jpg,dist2,lure,dist1,target,0,1,1,0,0,2,2,33,,,,,,,344.70232459995896,345.73057599994354,345.73057599994354,345.73057599994354,345.73057599994354,345.73057599994354,345.73057599994354,345.73057599994354,345.73057599994354,345.73057599994354,345.73057599994354,345.73057599994354,345.73057599994354,,,k,target,None,345.73057599994354,3.2330753999995068,,,,,,,,,,,,,,student1,2022-10-25_12h27.50.968,Hippopolis_4AFCT,2022.2.4,59.76636134237672,
Hippopolis,stimuli/subj_files/student1_cityA.csv,./stimuli/frankfurt.jpg,./stimuli/street_plate1.png,HAJÓ UTCA,stimuli/objects/086a.jpg,object,1,stimuli/objects/041a.jpg,stimuli/scenes/014a.jpg,stimuli/scenes/014b.jpg,stimuli/objects/041a.jpg,stimuli/objects/041b.jpg,dist1,dist2,target,lure,0,1,1,0,0,3,3,71,,,,,,,348.9853184999665,350.01928400003817,350.01928400003817,350.01928400003817,350.01928400003817,350.01928400003817,350.01928400003817,350.01928400003817,350.01928400003817,350.01928400003817,350.01928400003817,350.01928400003817,350.01928400003817,,,d,dist1,None,350.01928400003817,2.6885286000324413,,,,,,,,,,,,,,student1,2022-10-25_12h27.50.968,Hippopolis_4AFCT,2022.2.4,59.76636134237672,
Hippopolis,stimuli/subj_files/student1_cityA.csv,./stimuli/frankfurt.jpg,./stimuli/street_plate1.png,KÖMÉNYMAG UTCA,stimuli/objects/068a.jpg,object,1,stimuli/objects/045a.jpg,stimuli/objects/045a.jpg,stimuli/objects/045b.jpg,stimuli/objects/071a.jpg,stimuli/objects/071b.jpg,target,lure,dist1,dist2,0,1,1,0,0,4,4,18,,,,,,,352.73531090002507,353.7832583999261,353.7832583999261,353.7832583999261,353.7832583999261,353.7832583999261,353.7832583999261,353.7832583999261,353.7832583999261,353.7832583999261,353.7832583999261,353.7832583999261,353.7832583999261,357.2360919000348,,d,target,None,353.7832583999261,3.4475687000667676,,,,,,,,,,,,,,student1,2022-10-25_12h27.50.968,Hippopolis_4AFCT,2022.2.4,59.76636134237672,
Hippopolis,stimuli/subj_files/student1_cityA.csv,./stimuli/frankfurt.jpg,./stimuli/street_plate1.png,FIÓK UTCA,stimuli/scenes/002a.jpg,scene,1,stimuli/scenes/014a.jpg,stimuli/scenes/014a.jpg,stimuli/objects/004a.jpg,stimuli/objects/004b.jpg,stimuli/scenes/014b.jpg,target,dist1,dist2,lure,0,1,1,0,0,5,5,73,,,,,,,357.25191799993627,358.2766483000014,358.2766483000014,358.2766483000014,358.2766483000014,358.2766483000014,358.2766483000014,358.2766483000014,358.2766483000014,358.2766483000014,358.2766483000014,358.2766483000014,358.2766483000014,,,j,dist2,None,358.2766483000014,2.4480136000784114,,,,,,,,,,,,,,student1,2022-10-25_12h27.50.968,Hippopolis_4AFCT,2022.2.4,59.76636134237672,
Hippopolis,stimuli/subj_files/student1_cityA.csv,./stimuli/frankfurt.jpg,./stimuli/street_plate1.png,MUSTÁR UTCA,stimuli/scenes/050a.jpg,scene,0,stimuli/scenes/050a.jpg,stimuli/objects/009a.jpg,stimuli/objects/009b.jpg,stimuli/scenes/050a.jpg,stimuli/scenes/050b.jpg,dist1,dist2,target,lure,0,1,1,0,0,6,6,78,,,,,,,360.7514438999351,361.78195490001235,361.78195490001235,361.78195490001235,361.78195490001235,361.78195490001235,361.78195490001235,361.78195490001235,361.78195490001235,361.78195490001235,361.78195490001235,361.78195490001235,361.78195490001235,,,j,target,None,361.78195490001235,2.8816667998908088,,,,,,,,,,,,,,student1,2022-10-25_12h27.50.968,Hippopolis_4AFCT,2022.2.4,59.76636134237672,
Hippopolis,stimuli/subj_files/student1_cityA.csv,./stimuli/frankfurt.jpg,./stimuli/street_plate1.png,HÁRFA UTCA,stimuli/objects/083a.jpg,object,2,stimuli/scenes/028a.jpg,stimuli/scenes/028b.jpg,stimuli/objects/012b.jpg,stimuli/objects/012a.jpg,stimuli/scenes/028a.jpg,lure,dist2,dist1,target,0,1,1,0,0,7,7,16,,,,,,,364.68528830003925,365.71210110001266,365.71210110001266,365.71210110001266,365.71210110001266,365.71210110001266,365.71210110001266,365.71210110001266,365.71210110001266,365.71210110001266,365.71210110001266,365.71210110001266,365.71210110001266,,,j,dist1,None,365.71210110001266,2.9247999999206513,,,,,,,,,,,,,,student1,2022-10-25_12h27.50.968,Hippopolis_4AFCT,2022.2.4,59.76636134237672,
Hippopolis,stimuli/subj_files/student1_cityA.csv,./stimuli/frankfurt.jpg,./stimuli/street_plate1.png,EGÉR UTCA,stimuli/scenes/071a.jpg,scene,1,stimuli/scenes/116a.jpg,stimuli/scenes/116b.jpg,stimuli/scenes/116a.jpg,stimuli/scenes/009b.jpg,stimuli/scenes/009a.jpg,lure,target,dist2,dist1,0,1,1,0,0,8,8,29,,,,,,,368.6684043999994,369.6956657000119,369.6956657000119,369.6956657000119,369.6956657000119,369.6956657000119,369.6956657000119,369.6956657000119,369.6956657000119,369.6956657000119,369.6956657000119,369.6956657000119,369.6956657000119,,,f,target,None,369.6956657000119,2.867737299995497,,,,,,,,,,,,,,student1,2022-10-25_12h27.50.968,Hippopolis_4AFCT,2022.2.4,59.76636134237672,
Hippopolis,stimuli/subj_files/student1_cityA.csv,./stimuli/frankfurt.jpg,./stimuli/street_plate1.png,KÖNYVTÁR UTCA,stimuli/objects/113a.jpg,object,1,stimuli/objects/109a.jpg,stimuli/objects/109a.jpg,stimuli/objects/109b.jpg,stimuli/scenes/067a.jpg,stimuli/scenes/067b.jpg,target,lure,dist1,dist2,0,1,1,0,0,9,9,42,,,,,,,372.58478269993793,373.60072129999753,373.60072129999753,373.60072129999753,373.60072129999753,373.60072129999753,373.60072129999753,373.60072129999753,373.60072129999753,373.60072129999753,373.60072129999753,373.60072129999753,373.60072129999753,,,d,target,None,373.60072129999753,3.1381662999046966,,,,,,,,,,,,,,student1,2022-10-25_12h27.50.968,Hippopolis_4AFCT,2022.2.4,59.76636134237672,
Hippopolis,stimuli/subj_files/student1_cityA.csv,./stimuli/frankfurt.jpg,./stimuli/street_plate1.png,TOJÁS UTCA,stimuli/objects/021a.jpg,object,2,stimuli/scenes/034a.jpg,stimuli/scenes/034a.jpg,stimuli/objects/059a.jpg,stimuli/objects/059b.jpg,stimuli/scenes/034b.jpg,target,dist1,dist2,lure,0,1,1,0,0,10,10,37,,,,,,,376.7683252999559,377.79399699997157,377.79399699997157,377.79399699997157,377.79399699997157,377.79399699997157,377.79399699997157,377.79399699997157,377.79399699997157,377.79399699997157,377.79399699997157,377.79399699997157,377.79399699997157,381.2691244999878,382.76875339995604,None,invalid,None,377.79399699997157,,,,,,,,,,,,,,,student1,2022-10-25_12h27.50.968,Hippopolis_4AFCT,2022.2.4,59.76636134237672,
Hippopolis,stimuli/subj_files/student1_cityA.csv,./stimuli/frankfurt.jpg,./stimuli/street_plate1.png,PAPUCS UTCA,stimuli/scenes/051a.jpg,scene,0,stimuli/scenes/051a.jpg,stimuli/scenes/051b.jpg,stimuli/scenes/051a.jpg,stimuli/scenes/090a.jpg,stimuli/scenes/090b.jpg,lure,target,dist1,dist2,0,1,1,0,0,11,11,68,,,,,,,382.7849650999997,383.80290809995495,383.80290809995495,383.80290809995495,383.80290809995495,383.80290809995495,383.80290809995495,383.80290809995495,383.80290809995495,383.80290809995495,383.80290809995495,383.80290809995495,383.80290809995495,,,d,lure,None,383.80290809995495,3.1354865999892354,,,,,,,,,,,,,,student1,2022-10-25_12h27.50.968,Hippopolis_4AFCT,2022.2.4,59.76636134237672,
Hippopolis,stimuli/subj_files/student1_cityA.csv,./stimuli/frankfurt.jpg,./stimuli/street_plate1.png,MOCSÁR UTCA,stimuli/objects/080a.jpg,object,0,stimuli/objects/080a.jpg,stimuli/objects/080b.jpg,stimuli/objects/080a.jpg,stimuli/scenes/043b.jpg,stimuli/scenes/043a.jpg,lure,target,dist2,dist1,0,1,1,0,0,12,12,17,,,,,,,386.9681868000189,387.9984250999987,387.9984250999987,387.9984250999987,387.9984250999987,387.9984250999987,387.9984250999987,387.9984250999987,387.9984250999987,387.9984250999987,387.9984250999987,387.9984250999987,387.9984250999987,,,f,target,None,387.9984250999987,2.379302700050175,,,,,,,,,,,,,,student1,2022-10-25_12h27.50.968,Hippopolis_4AFCT,2022.2.4,59.76636134237672,
Hippopolis,stimuli/subj_files/student1_cityA.csv,./stimuli/frankfurt.jpg,./stimuli/street_plate1.png,OROSZLÁN UTCA,stimuli/scenes/072a.jpg,scene,0,stimuli/scenes/072a.jpg,stimuli/scenes/072a.jpg,stimuli/scenes/072b.jpg,stimuli/scenes/027b.jpg,stimuli/scenes/027a.jpg,target,lure,dist2,dist1,0,1,1,0,0,13,13,66,,,,,,,390.40120910003316,391.41943949996494,391.41943949996494,391.41943949996494,391.41943949996494,391.41943949996494,391.41943949996494,391.41943949996494,391.41943949996494,391.41943949996494,391.41943949996494,391.41943949996494,391.41943949996494,,,d,target,None,391.41943949996494,2.3777628000825644,,,,,,,,,,,,,,student1,2022-10-25_12h27.50.968,Hippopolis_4AFCT,2022.2.4,59.76636134237672,
Hippopolis,stimuli/subj_files/student1_cityA.csv,./stimuli/frankfurt.jpg,./stimuli/street_plate1.png,CSILLAG UTCA,stimuli/scenes/083a.jpg,scene,1,stimuli/scenes/117a.jpg,stimuli/scenes/117a.jpg,stimuli/scenes/117b.jpg,stimuli/objects/041a.jpg,stimuli/objects/041b.jpg,target,lure,dist1,dist2,0,1,1,0,0,14,14,15,,,,,,,393.81810519995634,394.8541966000339,394.8541966000339,394.8541966000339,394.8541966000339,394.8541966000339,394.8541966000339,394.8541966000339,394.8541966000339,394.8541966000339,394.8541966000339,394.8541966000339,394.8541966000339,,,d,target,None,394.8541966000339,2.7657091000583023,,,,,,,,,,,,,,student1,2022-10-25_12h27.50.968,Hippopolis_4AFCT,2022.2.4,59.76636134237672,
Hippopolis,stimuli/subj_files/student1_cityA.csv,./stimuli/frankfurt.jpg,./stimuli/street_plate1.png,VASALÓ UTCA,stimuli/objects/025a.jpg,object,2,stimuli/scenes/056a.jpg,stimuli/scenes/044a.jpg,stimuli/scenes/056b.jpg,stimuli/scenes/056a.jpg,stimuli/scenes/044b.jpg,dist1,lure,target,dist2,0,1,1,0,0,15,15,70,,,,,,,397.65124889998697,398.67714539996814,398.67714539996814,398.67714539996814,398.67714539996814,398.67714539996814,398.67714539996814,398.67714539996814,398.67714539996814,398.67714539996814,398.67714539996814,398.67714539996814,398.67714539996814,,,j,target,None,398.67714539996814,2.84877579996828,,,,,,,,,,,,,,student1,2022-10-25_12h27.50.968,Hippopolis_4AFCT,2022.2.4,59.76636134237672,
Hippopolis,stimuli/subj_files/student1_cityA.csv,./stimuli/frankfurt.jpg,./stimuli/street_plate1.png,SZIKLA UTCA,stimuli/scenes/111a.jpg,scene,2,stimuli/objects/073a.jpg,stimuli/objects/120b.jpg,stimuli/objects/120a.jpg,stimuli/objects/073a.jpg,stimuli/objects/073b.jpg,dist2,dist1,target,lure,0,1,1,0,0,16,16,1,,,,,,,401.55100340000354,402.58441939996555,402.58441939996555,402.58441939996555,402.58441939996555,402.58441939996555,402.58441939996555,402.58441939996555,402.58441939996555,402.58441939996555,402.58441939996555,402.58441939996555,402.58441939996555,,,j,target,None,402.58441939996555,3.0157942000078037,,,,,,,,,,,,,,student1,2022-10-25_12h27.50.968,Hippopolis_4AFCT,2022.2.4,59.76636134237672,
Hippopolis,stimuli/subj_files/student1_cityA.csv,./stimuli/frankfurt.jpg,./stimuli/street_plate1.png,ÁLOM UTCA,stimuli/objects/070a.jpg,object,0,stimuli/objects/070a.jpg,stimuli/objects/070b.jpg,stimuli/objects/114b.jpg,stimuli/objects/114a.jpg,stimuli/objects/070a.jpg,lure,dist2,dist1,target,0,1,1,0,0,17,17,50,,,,,,,405.6179193999851,406.6499735999387,406.6499735999387,406.6499735999387,406.6499735999387,406.6499735999387,406.6499735999387,406.6499735999387,406.6499735999387,406.6499735999387,406.6499735999387,406.6499735999387,406.6499735999387,,,k,target,None,406.6499735999387,2.450285500031896,,,,,,,,,,,,,,student1,2022-10-25_12h27.50.968,Hippopolis_4AFCT,2022.2.4,59.76636134237672,
Hippopolis,stimuli/subj_files/student1_cityA.csv,./stimuli/frankfurt.jpg,./stimuli/street_plate1.png,NARANCS UTCA,stimuli/objects/017a.jpg,object,1,stimuli/objects/075a.jpg,stimuli/objects/075a.jpg,stimuli/scenes/041b.jpg,stimuli/scenes/041a.jpg,stimuli/objects/075b.jpg,target,dist2,dist1,lure,0,1,1,0,0,18,18,76,,,,,,,409.1177725000307,410.1523983000079,410.1523983000079,410.1523983000079,410.1523983000079,410.1523983000079,410.1523983000079,410.1523983000079,410.1523983000079,410.1523983000079,410.1523983000079,410.1523983000079,410.1523983000079,,,d,target,None,410.1523983000079,2.478418300044723,,,,,,,,,,,,,,student1,2022-10-25_12h27.50.968,Hippopolis_4AFCT,2022.2.4,59.76636134237672,
Hippopolis,stimuli/subj_files/student1_cityA.csv,./stimuli/frankfurt.jpg,./stimuli/street_plate1.png,KÖTÉL UTCA,stimuli/objects/051a.jpg,object,0,stimuli/objects/051a.jpg,stimuli/scenes/024b.jpg,stimuli/objects/051b.jpg,stimuli/scenes/024a.jpg,stimuli/objects/051a.jpg,dist2,lure,dist1,target,0,1,1,0,0,19,19,7,,,,,,,412.65098629996646,413.6831947999308,413.6831947999308,413.6831947999308,413.6831947999308,413.6831947999308,413.6831947999308,413.6831947999308,413.6831947999308,413.6831947999308,413.6831947999308,413.6831947999308,413.6831947999308,,,k,target,None,413.6831947999308,2.5868280000286177,,,,,,,,,,,,,,student1,2022-10-25_12h27.50.968,Hippopolis_4AFCT,2022.2.4,59.76636134237672,
Hippopolis,stimuli/subj_files/student1_cityA.csv,./stimuli/frankfurt.jpg,./stimuli/street_plate1.png,TOLLTARTÓ UTCA,stimuli/objects/032a.jpg,object,2,stimuli/scenes/119a.jpg,stimuli/scenes/119a.jpg,stimuli/scenes/104b.jpg,stimuli/scenes/104a.jpg,stimuli/scenes/119b.jpg,target,dist2,dist1,lure,0,1,1,0,0,20,20,67,,,,,,,416.30129520001356,417.31024369993247,417.31024369993247,417.31024369993247,417.31024369993247,417.31024369993247,417.31024369993247,417.31024369993247,417.31024369993247,417.31024369993247,417.31024369993247,417.31024369993247,417.31024369993247,,,d,target,None,417.31024369993247,2.79754179995507,,,,,,,,,,,,,,student1,2022-10-25_12h27.50.968,Hippopolis_4AFCT,2022.2.4,59.76636134237672,
Hippopolis,stimuli/subj_files/student1_cityA.csv,./stimuli/frankfurt.jpg,./stimuli/street_plate1.png,SIVATAG UTCA,stimuli/scenes/016a.jpg,scene,2,stimuli/objects/046a.jpg,stimuli/objects/046b.jpg,stimuli/objects/006a.jpg,stimuli/objects/006b.jpg,stimuli/objects/046a.jpg,lure,dist1,dist2,target,0,1,1,0,0,21,21,23,,,,,,,420.13423950003926,421.1653832999291,421.1653832999291,421.1653832999291,421.1653832999291,421.1653832999291,421.1653832999291,421.1653832999291,421.1653832999291,421.1653832999291,421.1653832999291,421.1653832999291,421.1653832999291,,,k,target,None,421.1653832999291,2.039382899994962,,,,,,,,,,,,,,student1,2022-10-25_12h27.50.968,Hippopolis_4AFCT,2022.2.4,59.76636134237672,
Hippopolis,stimuli/subj_files/student1_cityA.csv,./stimuli/frankfurt.jpg,./stimuli/street_plate1.png,VÖDÖR UTCA,stimuli/scenes/055a.jpg,scene,1,stimuli/scenes/088a.jpg,stimuli/scenes/088b.jpg,stimuli/scenes/088a.jpg,stimuli/scenes/087b.jpg,stimuli/scenes/087a.jpg,lure,target,dist2,dist1,0,1,1,0,0,22,22,56,,,,,,,423.23401369992644,424.2594842000399,424.2594842000399,424.2594842000399,424.2594842000399,424.2594842000399,424.2594842000399,424.2594842000399,424.2594842000399,424.2594842000399,424.2594842000399,424.2594842000399,424.2594842000399,,,f,target,None,424.2594842000399,2.09626549994573,,,,,,,,,,,,,,student1,2022-10-25_12h27.50.968,Hippopolis_4AFCT,2022.2.4,59.76636134237672,
Hippopolis,stimuli/subj_files/student1_cityA.csv,./stimuli/frankfurt.jpg,./stimuli/street_plate1.png,MÁLNA UTCA,stimuli/objects/069a.jpg,object,2,stimuli/scenes/053a.jpg,stimuli/objects/073a.jpg,stimuli/objects/073b.jpg,stimuli/scenes/053b.jpg,stimuli/scenes/053a.jpg,dist1,dist2,lure,target,0,1,1,0,0,23,23,14,,,,,,,426.38406900002155,427.39653439994436,427.39653439994436,427.39653439994436,427.39653439994436,427.39653439994436,427.39653439994436,427.39653439994436,427.39653439994436,427.39653439994436,427.39653439994436,427.39653439994436,427.39653439994436,,,k,target,None,427.39653439994436,2.7067276999587193,,,,,,,,,,,,,,student1,2022-10-25_12h27.50.968,Hippopolis_4AFCT,2022.2.4,59.76636134237672,
Hippopolis,stimuli/subj_files/student1_cityA.csv,./stimuli/frankfurt.jpg,./stimuli/street_plate1.png,CUKOR UTCA,stimuli/objects/111a.jpg,object,0,stimuli/objects/111a.jpg,stimuli/objects/089b.jpg,stimuli/objects/111b.jpg,stimuli/objects/111a.jpg,stimuli/objects/089a.jpg,dist2,lure,target,dist1,0,1,1,0,0,24,24,30,,,,,,,430.1342863999307,431.16301809996367,431.16301809996367,431.16301809996367,431.16301809996367,431.16301809996367,431.16301809996367,431.16301809996367,431.16301809996367,431.16301809996367,431.16301809996367,431.16301809996367,431.16301809996367,,,j,target,None,431.16301809996367,3.126267399988137,,,,,,,,,,,,,,student1,2022-10-25_12h27.50.968,Hippopolis_4AFCT,2022.2.4,59.76636134237672,
Hippopolis,stimuli/subj_files/student1_cityA.csv,./stimuli/frankfurt.jpg,./stimuli/street_plate1.png,BONBON UTCA,stimuli/objects/095a.jpg,object,2,stimuli/scenes/007a.jpg,stimuli/objects/028b.jpg,stimuli/objects/028a.jpg,stimuli/scenes/007a.jpg,stimuli/scenes/007b.jpg,dist2,dist1,target,lure,0,1,1,0,0,25,25,72,,,,,,,434.31760760000907,435.343643900007,435.343643900007,435.343643900007,435.343643900007,435.343643900007,435.343643900007,435.343643900007,435.343643900007,435.343643900007,435.343643900007,435.343643900007,435.343643900007,,,j,target,None,435.343643900007,3.044516099966131,,,,,,,,,,,,,,student1,2022-10-25_12h27.50.968,Hippopolis_4AFCT,2022.2.4,59.76636134237672,
Hippopolis,stimuli/subj_files/student1_cityA.csv,./stimuli/frankfurt.jpg,./stimuli/street_plate1.png,ÜVEG UTCA,stimuli/scenes/061a.jpg,scene,2,stimuli/objects/085a.jpg,stimuli/objects/085b.jpg,stimuli/scenes/084a.jpg,stimuli/objects/085a.jpg,stimuli/scenes/084b.jpg,lure,dist1,target,dist2,0,1,1,0,0,26,26,19,,,,,,,438.41729929996654,439.4460220999317,439.4460220999317,439.4460220999317,439.4460220999317,439.4460220999317,439.4460220999317,439.4460220999317,439.4460220999317,439.4460220999317,439.4460220999317,439.4460220999317,439.4460220999317,,,f,dist1,None,439.4460220999317,3.341040800092742,,,,,,,,,,,,,,student1,2022-10-25_12h27.50.968,Hippopolis_4AFCT,2022.2.4,59.76636134237672,
Hippopolis,stimuli/subj_files/student1_cityA.csv,./stimuli/frankfurt.jpg,./stimuli/street_plate1.png,POGÁCSA UTCA,stimuli/scenes/046a.jpg,scene,0,stimuli/scenes/046a.jpg,stimuli/scenes/042a.jpg,stimuli/scenes/046a.jpg,stimuli/scenes/046b.jpg,stimuli/scenes/042b.jpg,dist1,target,lure,dist2,0,1,1,0,0,27,27,49,,,,,,,442.81723609997425,443.83165179996286,443.83165179996286,443.83165179996286,443.83165179996286,443.83165179996286,443.83165179996286,443.83165179996286,443.83165179996286,443.83165179996286,443.83165179996286,443.83165179996286,443.83165179996286,447.31774299999233,,f,target,None,443.83165179996286,3.713252400048077,,,,,,,,,,,,,,student1,2022-10-25_12h27.50.968,Hippopolis_4AFCT,2022.2.4,59.76636134237672,
Hippopolis,stimuli/subj_files/student1_cityA.csv,./stimuli/frankfurt.jpg,./stimuli/street_plate1.png,PAPAGÁJ UTCA,stimuli/objects/093a.jpg,object,2,stimuli/scenes/097a.jpg,stimuli/scenes/097a.jpg,stimuli/scenes/109b.jpg,stimuli/scenes/109a.jpg,stimuli/scenes/097b.jpg,target,dist2,dist1,lure,0,1,1,0,0,28,28,55,,,,,,,447.56683120003436,448.59123349993024,448.59123349993024,448.59123349993024,448.59123349993024,448.59123349993024,448.59123349993024,448.59123349993024,448.59123349993024,448.59123349993024,448.59123349993024,448.59123349993024,448.59123349993024,,,j,dist1,None,448.59123349993024,2.862109799985774,,,,,,,,,,,,,,student1,2022-10-25_12h27.50.968,Hippopolis_4AFCT,2022.2.4,59.76636134237672,
Hippopolis,stimuli/subj_files/student1_cityA.csv,./stimuli/frankfurt.jpg,./stimuli/street_plate1.png,PULÓVER UTCA,stimuli/objects/114a.jpg,object,0,stimuli/objects/114a.jpg,stimuli/scenes/050b.jpg,stimuli/scenes/050a.jpg,stimuli/objects/114b.jpg,stimuli/objects/114a.jpg,dist2,dist1,lure,target,0,1,1,0,0,29,29,43,,,,,,,451.4838583000237,452.52047160000075,452.52047160000075,452.52047160000075,452.52047160000075,452.52047160000075,452.52047160000075,452.52047160000075,452.52047160000075,452.52047160000075,452.52047160000075,452.52047160000075,452.52047160000075,,,k,target,None,452.52047160000075,1.6419657000806183,,,,,,,,,,,,,,student1,2022-10-25_12h27.50.968,Hippopolis_4AFCT,2022.2.4,59.76636134237672,
Hippopolis,stimuli/subj_files/student1_cityA.csv,./stimuli/frankfurt.jpg,./stimuli/street_plate1.png,LAKAT UTCA,stimuli/objects/066a.jpg,object,2,stimuli/scenes/084a.jpg,stimuli/scenes/084b.jpg,stimuli/scenes/034a.jpg,stimuli/scenes/084a.jpg,stimuli/scenes/034b.jpg,lure,dist1,target,dist2,0,1,1,0,0,30,30,58,,,,,,,454.1836049000267,455.1910452999873,455.1910452999873,455.1910452999873,455.1910452999873,455.1910452999873,455.1910452999873,455.1910452999873,455.1910452999873,455.1910452999873,455.1910452999873,455.1910452999873,455.1910452999873,,,j,target,None,455.1910452999873,2.496206800104119,,,,,,,,,,,,,,student1,2022-10-25_12h27.50.968,Hippopolis_4AFCT,2022.2.4,59.76636134237672,
Hippopolis,stimuli/subj_files/student1_cityA.csv,./stimuli/frankfurt.jpg,./stimuli/street_plate1.png,HORDÓ UTCA,stimuli/scenes/095a.jpg,scene,0,stimuli/scenes/095a.jpg,stimuli/scenes/095a.jpg,stimuli/scenes/046a.jpg,stimuli/scenes/095b.jpg,stimuli/scenes/046b.jpg,target,dist1,lure,dist2,0,1,1,0,0,31,31,27,,,,,,,457.7169072999386,458.73152030003257,458.73152030003257,458.73152030003257,458.73152030003257,458.73152030003257,458.73152030003257,458.73152030003257,458.73152030003257,458.73152030003257,458.73152030003257,458.73152030003257,458.73152030003257,,,d,target,None,458.73152030003257,2.1120278000598773,,,,,,,,,,,,,,student1,2022-10-25_12h27.50.968,Hippopolis_4AFCT,2022.2.4,59.76636134237672,
Hippopolis,stimuli/subj_files/student1_cityA.csv,./stimuli/frankfurt.jpg,./stimuli/street_plate1.png,TOBOZ UTCA,stimuli/objects/001a.jpg,object,2,stimuli/scenes/059a.jpg,stimuli/scenes/059a.jpg,stimuli/objects/085a.jpg,stimuli/objects/085b.jpg,stimuli/scenes/059b.jpg,target,dist1,dist2,lure,0,1,1,0,0,32,32,40,,,,,,,460.8669235999696,461.8842318999814,461.8842318999814,461.8842318999814,461.8842318999814,461.8842318999814,461.8842318999814,461.8842318999814,461.8842318999814,461.8842318999814,461.8842318999814,461.8842318999814,461.8842318999814,,,d,target,None,461.8842318999814,2.3174932999536395,,,,,,,,,,,,,,student1,2022-10-25_12h27.50.968,Hippopolis_4AFCT,2022.2.4,59.76636134237672,
Hippopolis,stimuli/subj_files/student1_cityA.csv,./stimuli/frankfurt.jpg,./stimuli/street_plate1.png,ZSEMLE UTCA,stimuli/objects/115a.jpg,object,1,stimuli/objects/053a.jpg,stimuli/objects/007a.jpg,stimuli/objects/053a.jpg,stimuli/objects/007b.jpg,stimuli/objects/053b.jpg,dist1,target,dist2,lure,0,1,1,0,0,33,33,47,,,,,,,464.21691109996755,465.24992149998434,465.24992149998434,465.24992149998434,465.24992149998434,465.24992149998434,465.24992149998434,465.24992149998434,465.24992149998434,465.24992149998434,465.24992149998434,465.24992149998434,465.24992149998434,,,d,dist1,None,465.24992149998434,3.1678628999507055,,,,,,,,,,,,,,student1,2022-10-25_12h27.50.968,Hippopolis_4AFCT,2022.2.4,59.76636134237672,
Hippopolis,stimuli/subj_files/student1_cityA.csv,./stimuli/frankfurt.jpg,./stimuli/street_plate1.png,KORONA UTCA,stimuli/scenes/108a.jpg,scene,1,stimuli/scenes/011a.jpg,stimuli/objects/076a.jpg,stimuli/scenes/011b.jpg,stimuli/objects/076b.jpg,stimuli/scenes/011a.jpg,dist1,lure,dist2,target,0,1,1,0,0,34,34,9,,,,,,,468.43332139996346,469.45883210003376,469.45883210003376,469.45883210003376,469.45883210003376,469.45883210003376,469.45883210003376,469.45883210003376,469.45883210003376,469.45883210003376,469.45883210003376,469.45883210003376,469.45883210003376,,,k,target,None,469.45883210003376,2.3934541000053287,,,,,,,,,,,,,,student1,2022-10-25_12h27.50.968,Hippopolis_4AFCT,2022.2.4,59.76636134237672,
Hippopolis,stimuli/subj_files/student1_cityA.csv,./stimuli/frankfurt.jpg,./stimuli/street_plate1.png,LIGET UTCA,stimuli/objects/038a.jpg,object,2,stimuli/scenes/109a.jpg,stimuli/scenes/109a.jpg,stimuli/objects/055a.jpg,stimuli/scenes/109b.jpg,stimuli/objects/055b.jpg,target,dist1,lure,dist2,0,1,1,0,0,35,35,62,,,,,,,471.8834533999907,472.90489769994747,472.90489769994747,472.90489769994747,472.90489769994747,472.90489769994747,472.90489769994747,472.90489769994747,472.90489769994747,472.90489769994747,472.90489769994747,472.90489769994747,472.90489769994747,,,f,dist1,None,472.90489769994747,2.9597807000391185,,,,,,,,,,,,,,student1,2022-10-25_12h27.50.968,Hippopolis_4AFCT,2022.2.4,59.76636134237672,
Hippopolis,stimuli/subj_files/student1_cityA.csv,./stimuli/frankfurt.jpg,./stimuli/street_plate1.png,MARTINI UTCA,stimuli/objects/060a.jpg,object,1,stimuli/objects/011a.jpg,stimuli/objects/075b.jpg,stimuli/objects/075a.jpg,stimuli/objects/011b.jpg,stimuli/objects/011a.jpg,dist2,dist1,lure,target,0,1,1,0,0,36,36,60,,,,,,,475.8833692999324,476.9138027000008,476.9138027000008,476.9138027000008,476.9138027000008,476.9138027000008,476.9138027000008,476.9138027000008,476.9138027000008,476.9138027000008,476.9138027000008,476.9138027000008,476.9138027000008,,,k,target,None,476.9138027000008,3.222275899956003,,,,,,,,,,,,,,student1,2022-10-25_12h27.50.968,Hippopolis_4AFCT,2022.2.4,59.76636134237672,
Hippopolis,stimuli/subj_files/student1_cityA.csv,./stimuli/frankfurt.jpg,./stimuli/street_plate1.png,PÁFRÁNY UTCA,stimuli/scenes/101a.jpg,scene,0,stimuli/scenes/101a.jpg,stimuli/scenes/101a.jpg,stimuli/scenes/101b.jpg,stimuli/objects/051a.jpg,stimuli/objects/051b.jpg,target,lure,dist1,dist2,0,1,1,0,0,37,37,0,,,,,,,480.1666785000125,481.19071679993067,481.19071679993067,481.19071679993067,481.19071679993067,481.19071679993067,481.19071679993067,481.19071679993067,481.19071679993067,481.19071679993067,481.19071679993067,481.19071679993067,481.19071679993067,,,d,target,None,481.19071679993067,3.20203499996569,,,,,,,,,,,,,,student1,2022-10-25_12h27.50.968,Hippopolis_4AFCT,2022.2.4,59.76636134237672,
Hippopolis,stimuli/subj_files/student1_cityA.csv,./stimuli/frankfurt.jpg,./stimuli/street_plate1.png,TELEP UTCA,stimuli/scenes/048a.jpg,scene,2,stimuli/objects/120a.jpg,stimuli/objects/120a.jpg,stimuli/objects/120b.jpg,stimuli/scenes/119b.jpg,stimuli/scenes/119a.jpg,target,lure,dist2,dist1,0,1,1,0,0,38,38,75,,,,,,,484.416442799964,485.4449200000381,485.4449200000381,485.4449200000381,485.4449200000381,485.4449200000381,485.4449200000381,485.4449200000381,485.4449200000381,485.4449200000381,485.4449200000381,485.4449200000381,485.4449200000381,488.9173240000382,,k,dist1,None,485.4449200000381,3.607138399966061,,,,,,,,,,,,,,student1,2022-10-25_12h27.50.968,Hippopolis_4AFCT,2022.2.4,59.76636134237672,
Hippopolis,stimuli/subj_files/student1_cityA.csv,./stimuli/frankfurt.jpg,./stimuli/street_plate1.png,HEGEDŰ UTCA,stimuli/scenes/113a.jpg,scene,2,stimuli/objects/036a.jpg,stimuli/objects/036b.jpg,stimuli/scenes/059b.jpg,stimuli/scenes/059a.jpg,stimuli/objects/036a.jpg,lure,dist2,dist1,target,0,1,1,0,0,39,39,69,,,,,,,489.0831930999411,490.1074880999513,490.1074880999513,490.1074880999513,490.1074880999513,490.1074880999513,490.1074880999513,490.1074880999513,490.1074880999513,490.1074880999513,490.1074880999513,490.1074880999513,490.1074880999513,,,k,target,None,490.1074880999513,2.9045235000085086,,,,,,,,,,,,,,student1,2022-10-25_12h27.50.968,Hippopolis_4AFCT,2022.2.4,59.76636134237672,
Hippopolis,stimuli/subj_files/student1_cityA.csv,./stimuli/frankfurt.jpg,./stimuli/street_plate1.png,KECSKE UTCA,stimuli/scenes/085a.jpg,scene,2,stimuli/objects/022a.jpg,stimuli/objects/022b.jpg,stimuli/objects/022a.jpg,stimuli/scenes/053a.jpg,stimuli/scenes/053b.jpg,lure,target,dist1,dist2,0,1,1,0,0,40,40,6,,,,,,,493.0331270999741,494.0640612000134,494.0640612000134,494.0640612000134,494.0640612000134,494.0640612000134,494.0640612000134,494.0640612000134,494.0640612000134,494.0640612000134,494.0640612000134,494.0640612000134,494.0640612000134,,,f,target,None,494.0640612000134,2.007515599951148,,,,,,,,,,,,,,student1,2022-10-25_12h27.50.968,Hippopolis_4AFCT,2022.2.4,59.76636134237672,
Hippopolis,stimuli/subj_files/student1_cityA.csv,./stimuli/frankfurt.jpg,./stimuli/street_plate1.png,FOGAS UTCA,stimuli/scenes/025a.jpg,scene,1,stimuli/scenes/018a.jpg,stimuli/scenes/018b.jpg,stimuli/scenes/064a.jpg,stimuli/scenes/018a.jpg,stimuli/scenes/064b.jpg,lure,dist1,target,dist2,0,1,1,0,0,41,41,38,,,,,,,496.0996799999848,497.1094127999386,497.1094127999386,497.1094127999386,497.1094127999386,497.1094127999386,497.1094127999386,497.1094127999386,497.1094127999386,497.1094127999386,497.1094127999386,497.1094127999386,497.1094127999386,,,f,dist1,None,497.1094127999386,3.431620200048201,,,,,,,,,,,,,,student1,2022-10-25_12h27.50.968,Hippopolis_4AFCT,2022.2.4,59.76636134237672,
Hippopolis,stimuli/subj_files/student1_cityA.csv,./stimuli/frankfurt.jpg,./stimuli/street_plate1.png,PETÁRDA UTCA,stimuli/objects/009a.jpg,object,0,stimuli/objects/009a.jpg,stimuli/objects/009a.jpg,stimuli/scenes/051a.jpg,stimuli/objects/009b.jpg,stimuli/scenes/051b.jpg,target,dist1,lure,dist2,0,1,1,0,0,42,42,64,,,,,,,500.5662477000151,501.5812768000178,501.5812768000178,501.5812768000178,501.5812768000178,501.5812768000178,501.5812768000178,501.5812768000178,501.5812768000178,501.5812768000178,501.5812768000178,501.5812768000178,501.5812768000178,,,j,lure,None,501.5812768000178,2.0369376000016928,,,,,,,,,,,,,,student1,2022-10-25_12h27.50.968,Hippopolis_4AFCT,2022.2.4,59.76636134237672,
Hippopolis,stimuli/subj_files/student1_cityA.csv,./stimuli/frankfurt.jpg,./stimuli/street_plate1.png,TRIATLON UTCA,stimuli/objects/024a.jpg,object,0,stimuli/objects/024a.jpg,stimuli/objects/024b.jpg,stimuli/objects/080a.jpg,stimuli/objects/024a.jpg,stimuli/objects/080b.jpg,lure,dist1,target,dist2,0,1,1,0,0,43,43,2,,,,,,,503.64960599993356,504.68040950002614,504.68040950002614,504.68040950002614,504.68040950002614,504.68040950002614,504.68040950002614,504.68040950002614,504.68040950002614,504.68040950002614,504.68040950002614,504.68040950002614,504.68040950002614,,,j,target,None,504.68040950002614,2.3768365000141785,,,,,,,,,,,,,,student1,2022-10-25_12h27.50.968,Hippopolis_4AFCT,2022.2.4,59.76636134237672,
Hippopolis,stimuli/subj_files/student1_cityA.csv,./stimuli/frankfurt.jpg,./stimuli/street_plate1.png,ÁRNYÉK UTCA,stimuli/objects/020a.jpg,object,1,stimuli/objects/027a.jpg,stimuli/scenes/004a.jpg,stimuli/objects/027b.jpg,stimuli/objects/027a.jpg,stimuli/scenes/004b.jpg,dist1,lure,target,dist2,0,1,1,0,0,44,44,52,,,,,,,507.08264249993954,508.11534439993557,508.11534439993557,508.11534439993557,508.11534439993557,508.11534439993557,508.11534439993557,508.11534439993557,508.11534439993557,508.11534439993557,508.11534439993557,508.11534439993557,508.11534439993557,511.5835707000224,,j,target,space,508.11534439993557,3.750581600004807,511.88266669993754,511.88266669993754,2.6761051000794396,,,,,,,,,,,student1,2022-10-25_12h27.50.968,Hippopolis_4AFCT,2022.2.4,59.76636134237672,
Hippopolis,stimuli/subj_files/student1_cityA.csv,./stimuli/frankfurt.jpg,./stimuli/street_plate1.png,KULLANCS UTCA,stimuli/objects/089a.jpg,object,0,stimuli/objects/089a.jpg,stimuli/scenes/072a.jpg,stimuli/objects/089a.jpg,stimuli/scenes/072b.jpg,stimuli/objects/089b.jpg,dist1,target,dist2,lure,0,1,1,0,0,45,45,34,,,,,,,514.5828150999732,515.6053696000017,515.6053696000017,515.6053696000017,515.6053696000017,515.6053696000017,515.6053696000017,515.6053696000017,515.6053696000017,515.6053696000017,515.6053696000017,515.6053696000017,515.6053696000017,519.0833271000301,,f,target,None,515.6053696000017,3.582573899999261,,,,,,,,,,,,,,student1,2022-10-25_12h27.50.968,Hippopolis_4AFCT,2022.2.4,59.76636134237672,
Hippopolis,stimuli/subj_files/student1_cityA.csv,./stimuli/frankfurt.jpg,./stimuli/street_plate1.png,KÖTÉNY UTCA,stimuli/scenes/031a.jpg,scene,1,stimuli/scenes/064a.jpg,stimuli/objects/103a.jpg,stimuli/objects/103b.jpg,stimuli/scenes/064b.jpg,stimuli/scenes/064a.jpg,dist1,dist2,lure,target,0,1,1,0,0,46,46,22,,,,,,,519.216267199954,520.2298172999872,520.2298172999872,520.2298172999872,520.2298172999872,520.2298172999872,520.2298172999872,520.2298172999872,520.2298172999872,520.2298172999872,520.2298172999872,520.2298172999872,520.2298172999872,,,d,dist1,None,520.2298172999872,3.048085500020534,,,,,,,,,,,,,,student1,2022-10-25_12h27.50.968,Hippopolis_4AFCT,2022.2.4,59.76636134237672,
Hippopolis,stimuli/subj_files/student1_cityA.csv,./stimuli/frankfurt.jpg,./stimuli/street_plate1.png,DOMINÓ UTCA,stimuli/scenes/042a.jpg,scene,0,stimuli/scenes/042a.jpg,stimuli/scenes/042a.jpg,stimuli/scenes/042b.jpg,stimuli/objects/070a.jpg,stimuli/objects/070b.jpg,target,lure,dist1,dist2,0,1,1,0,0,47,47,63,,,,,,,523.2993889999343,524.3170829999726,524.3170829999726,524.3170829999726,524.3170829999726,524.3170829999726,524.3170829999726,524.3170829999726,524.3170829999726,524.3170829999726,524.3170829999726,524.3170829999726,524.3170829999726,,,d,target,None,524.3170829999726,1.8870223999256268,,,,,,,,,,,,,,student1,2022-10-25_12h27.50.968,Hippopolis_4AFCT,2022.2.4,59.76636134237672,
Hippopolis,stimuli/subj_files/student1_cityA.csv,./stimuli/frankfurt.jpg,./stimuli/street_plate1.png,AJÁNDÉK UTCA,stimuli/scenes/005a.jpg,scene,1,stimuli/scenes/009a.jpg,stimuli/scenes/078b.jpg,stimuli/scenes/078a.jpg,stimuli/scenes/009a.jpg,stimuli/scenes/009b.jpg,dist2,dist1,target,lure,0,1,1,0,0,48,48,28,,,,,,,526.2329104000237,527.2544537000358,527.2544537000358,527.2544537000358,527.2544537000358,527.2544537000358,527.2544537000358,527.2544537000358,527.2544537000358,527.2544537000358,527.2544537000358,527.2544537000358,527.2544537000358,530.7333257999271,,f,dist1,None,527.2544537000358,3.8607614999637008,,,,,,,,,,,,,,student1,2022-10-25_12h27.50.968,Hippopolis_4AFCT,2022.2.4,59.76636134237672,
Hippopolis,stimuli/subj_files/student1_cityA.csv,./stimuli/frankfurt.jpg,./stimuli/street_plate1.png,KERÉK UTCA,stimuli/scenes/096a.jpg,scene,1,stimuli/scenes/041a.jpg,stimuli/scenes/117a.jpg,stimuli/scenes/041b.jpg,stimuli/scenes/041a.jpg,stimuli/scenes/117b.jpg,dist1,lure,target,dist2,0,1,1,0,0,49,49,20,,,,,,,531.1321022999473,532.1407281999709,532.1407281999709,532.1407281999709,532.1407281999709,532.1407281999709,532.1407281999709,532.1407281999709,532.1407281999709,532.1407281999709,532.1407281999709,532.1407281999709,532.1407281999709,,,d,dist1,None,532.1407281999709,3.2487215000437573,,,,,,,,,,,,,,student1,2022-10-25_12h27.50.968,Hippopolis_4AFCT,2022.2.4,59.76636134237672,
Hippopolis,stimuli/subj_files/student1_cityA.csv,./stimuli/frankfurt.jpg,./stimuli/street_plate1.png,MOTOR UTCA,stimuli/objects/097a.jpg,object,1,stimuli/objects/071a.jpg,stimuli/objects/015b.jpg,stimuli/objects/071b.jpg,stimuli/objects/071a.jpg,stimuli/objects/015a.jpg,dist2,lure,target,dist1,0,1,1,0,0,50,50,36,,,,,,,535.4154568000231,536.4425035000313,536.4425035000313,536.4425035000313,536.4425035000313,536.4425035000313,536.4425035000313,536.4425035000313,536.4425035000313,536.4425035000313,536.4425035000313,536.4425035000313,536.4425035000313,,,j,target,None,536.4425035000313,2.3496551000280306,,,,,,,,,,,,,,student1,2022-10-25_12h27.50.968,Hippopolis_4AFCT,2022.2.4,59.76636134237672,
Hippopolis,stimuli/subj_files/student1_cityA.csv,./stimuli/frankfurt.jpg,./stimuli/street_plate1.png,FÉNYKÉP UTCA,stimuli/scenes/010a.jpg,scene,1,stimuli/scenes/078a.jpg,stimuli/scenes/088a.jpg,stimuli/scenes/078a.jpg,stimuli/scenes/088b.jpg,stimuli/scenes/078b.jpg,dist1,target,dist2,lure,0,1,1,0,0,51,51,32,,,,,,,538.8155684999656,539.8372514999937,539.8372514999937,539.8372514999937,539.8372514999937,539.8372514999937,539.8372514999937,539.8372514999937,539.8372514999937,539.8372514999937,539.8372514999937,539.8372514999937,539.8372514999937,,,f,target,None,539.8372514999937,2.6555315000005066,,,,,,,,,,,,,,student1,2022-10-25_12h27.50.968,Hippopolis_4AFCT,2022.2.4,59.76636134237672,
Hippopolis,stimuli/subj_files/student1_cityA.csv,./stimuli/frankfurt.jpg,./stimuli/street_plate1.png,KORONG UTCA,stimuli/scenes/065a.jpg,scene,1,stimuli/scenes/004a.jpg,stimuli/scenes/004a.jpg,stimuli/scenes/011b.jpg,stimuli/scenes/011a.jpg,stimuli/scenes/004b.jpg,target,dist2,dist1,lure,0,1,1,0,0,52,52,53,,,,,,,542.5151766999625,543.5163947000401,543.5163947000401,543.5163947000401,543.5163947000401,543.5163947000401,543.5163947000401,543.5163947000401,543.5163947000401,543.5163947000401,543.5163947000401,543.5163947000401,543.5163947000401,547.0155778999906,,j,dist1,None,543.5163947000401,3.7772321000229567,,,,,,,,,,,,,,student1,2022-10-25_12h27.50.968,Hippopolis_4AFCT,2022.2.4,59.76636134237672,
Hippopolis,stimuli/subj_files/student1_cityA.csv,./stimuli/frankfurt.jpg,./stimuli/street_plate1.png,BÖGRE UTCA,stimuli/objects/050a.jpg,object,1,stimuli/objects/076a.jpg,stimuli/scenes/037a.jpg,stimuli/objects/076a.jpg,stimuli/objects/076b.jpg,stimuli/scenes/037b.jpg,dist1,target,lure,dist2,0,1,1,0,0,53,53,41,,,,,,,547.3154112999327,548.3309243000112,548.3309243000112,548.3309243000112,548.3309243000112,548.3309243000112,548.3309243000112,548.3309243000112,548.3309243000112,548.3309243000112,548.3309243000112,548.3309243000112,548.3309243000112,551.8157511999598,,d,dist1,None,548.3309243000112,3.7928872000193223,,,,,,,,,,,,,,student1,2022-10-25_12h27.50.968,Hippopolis_4AFCT,2022.2.4,59.76636134237672,
Hippopolis,stimuli/subj_files/student1_cityA.csv,./stimuli/frankfurt.jpg,./stimuli/street_plate1.png,KOCKA UTCA,stimuli/objects/062a.jpg,object,0,stimuli/objects/062a.jpg,stimuli/scenes/095b.jpg,stimuli/objects/062a.jpg,stimuli/objects/062b.jpg,stimuli/scenes/095a.jpg,dist2,target,lure,dist1,0,1,1,0,0,54,54,35,,,,,,,552.1488709999248,553.1933324999409,553.1933324999409,553.1933324999409,553.1933324999409,553.1933324999409,553.1933324999409,553.1933324999409,553.1933324999409,553.1933324999409,553.1933324999409,553.1933324999409,553.1933324999409,,,f,target,None,553.1933324999409,1.906167099950835,,,,,,,,,,,,,,student1,2022-10-25_12h27.50.968,Hippopolis_4AFCT,2022.2.4,59.76636134237672,
Hippopolis,stimuli/subj_files/student1_cityA.csv,./stimuli/frankfurt.jpg,./stimuli/street_plate1.png,MUNKA UTCA,stimuli/scenes/039a.jpg,scene,2,stimuli/objects/067a.jpg,stimuli/scenes/097a.jpg,stimuli/objects/067b.jpg,stimuli/objects/067a.jpg,stimuli/scenes/097b.jpg,dist1,lure,target,dist2,0,1,1,0,0,55,55,4,,,,,,,555.1315828999504,556.1568535999395,556.1568535999395,556.1568535999395,556.1568535999395,556.1568535999395,556.1568535999395,556.1568535999395,556.1568535999395,556.1568535999395,556.1568535999395,556.1568535999395,556.1568535999395,,,j,target,None,556.1568535999395,2.799981900025159,,,,,,,,,,,,,,student1,2022-10-25_12h27.50.968,Hippopolis_4AFCT,2022.2.4,59.76636134237672,
Hippopolis,stimuli/subj_files/student1_cityA.csv,./stimuli/frankfurt.jpg,./stimuli/street_plate1.png,PÉKSÉG UTCA,stimuli/scenes/073a.jpg,scene,2,stimuli/objects/059a.jpg,stimuli/objects/059a.jpg,stimuli/objects/046b.jpg,stimuli/objects/059b.jpg,stimuli/objects/046a.jpg,target,dist2,lure,dist1,0,1,1,0,0,56,56,61,,,,,,,558.98170080001,560.011075999937,560.011075999937,560.011075999937,560.011075999937,560.011075999937,560.011075999937,560.011075999937,560.011075999937,560.011075999937,560.011075999937,560.011075999937,560.011075999937,,,k,dist1,None,560.011075999937,2.2495149000314996,,,,,,,,,,,,,,student1,2022-10-25_12h27.50.968,Hippopolis_4AFCT,2022.2.4,59.76636134237672,
Hippopolis,stimuli/subj_files/student1_cityA.csv,./stimuli/frankfurt.jpg,./stimuli/street_plate1.png,LÁNDZSA UTCA,stimuli/scenes/090a.jpg,scene,0,stimuli/scenes/090a.jpg,stimuli/scenes/090a.jpg,stimuli/objects/091b.jpg,stimuli/scenes/090b.jpg,stimuli/objects/091a.jpg,target,dist2,lure,dist1,0,1,1,0,0,57,57,39,,,,,,,562.2816945000086,563.3137489999644,563.3137489999644,563.3137489999644,563.3137489999644,563.3137489999644,563.3137489999644,563.3137489999644,563.3137489999644,563.3137489999644,563.3137489999644,563.3137489999644,563.3137489999644,,,d,target,None,563.3137489999644,1.7953342000255361,,,,,,,,,,,,,,student1,2022-10-25_12h27.50.968,Hippopolis_4AFCT,2022.2.4,59.76636134237672,
Hippopolis,stimuli/subj_files/student1_cityA.csv,./stimuli/frankfurt.jpg,./stimuli/street_plate1.png,KIRAKÓ UTCA,stimuli/objects/079a.jpg,object,2,stimuli/scenes/070a.jpg,stimuli/scenes/070a.jpg,stimuli/scenes/070b.jpg,stimuli/objects/043b.jpg,stimuli/objects/043a.jpg,target,lure,dist2,dist1,0,1,1,0,0,58,58,57,,,,,,,565.1316178999841,566.1444411999546,566.1444411999546,566.1444411999546,566.1444411999546,566.1444411999546,566.1444411999546,566.1444411999546,566.1444411999546,566.1444411999546,566.1444411999546,566.1444411999546,566.1444411999546,,,k,dist1,None,566.1444411999546,2.969262999948114,,,,,,,,,,,,,,student1,2022-10-25_12h27.50.968,Hippopolis_4AFCT,2022.2.4,59.76636134237672,
Hippopolis,stimuli/subj_files/student1_cityA.csv,./stimuli/frankfurt.jpg,./stimuli/street_plate1.png,HERNYÓ UTCA,stimuli/scenes/066a.jpg,scene,1,stimuli/scenes/037a.jpg,stimuli/scenes/037a.jpg,stimuli/objects/045b.jpg,stimuli/scenes/037b.jpg,stimuli/objects/045a.jpg,target,dist2,lure,dist1,0,1,1,0,0,59,59,5,,,,,,,569.1317913000239,570.138787999982,570.138787999982,570.138787999982,570.138787999982,570.138787999982,570.138787999982,570.138787999982,570.138787999982,570.138787999982,570.138787999982,570.138787999982,570.138787999982,,,d,target,None,570.138787999982,2.3893152000382543,,,,,,,,,,,,,,student1,2022-10-25_12h27.50.968,Hippopolis_4AFCT,2022.2.4,59.76636134237672,
