CityName,StimuliFile,CityImage,StreetSign,Cue,Image,Category,Novelty,UpdateImage,TestImage1,TestImage2,TestImage3,TestImage4,TestImage1Type,TestImage2Type,TestImage3Type,TestImage4Type,CityBlock.thisRepN,CityBlock.thisTrialN,CityBlock.thisN,CityBlock.thisIndex,LearningTrials.thisRepN,LearningTrials.thisTrialN,LearningTrials.thisN,LearningTrials.thisIndex,learning_instructions_text.started,intro_key.started,intro_key.keys,intro_key.rt,cityname_text.started,city_image.started,fx_cross.started,plate.started,city_text.started,street_text.started,fx_cross_prediction.started,plate_updating.started,city_text_updating.started,street_text_updating.started,updating_image.started,short_break_key.keys,fx_cross.stopped,short_break_text.started,short_break_key.started,short_break_key.rt,break_text.started,break_key_resp.started,break_key_resp.keys,break_key_resp.rt,end_text.started,end_text.stopped,participant,date,expName,psychopyVersion,frameRate,
,,,,,,,,,,,,,,,,,,,,,,,,,68.62573055364192,68.62573055364192,space,25.31874853000045,,,,,,,,,,,,,,,,,,,,,,,student1,2022-10-21_14h58.47.579,Hippopolis_Updating,2022.2.2,59.942133782036066,
Hippopolis,stimuli/subj_files/student1_cityA.csv,./stimuli/frankfurt.jpg,./stimuli/street_plate1.png,ÜVEG UTCA,stimuli/scenes/061a.jpg,scene,2,stimuli/objects/085a.jpg,stimuli/objects/085b.jpg,stimuli/scenes/084a.jpg,stimuli/objects/085a.jpg,stimuli/scenes/084b.jpg,lure,dist1,target,dist2,0,0,0,0,0,0,0,19,,,,,94.0178166218102,94.0178166218102,96.98863831348717,98.0127966683358,98.0127966683358,98.0127966683358,98.0127966683358,101.00062356702983,101.00062356702983,101.00062356702983,101.00062356702983,None,,,,,,,,,,,student1,2022-10-21_14h58.47.579,Hippopolis_Updating,2022.2.2,59.942133782036066,
Hippopolis,stimuli/subj_files/student1_cityA.csv,./stimuli/frankfurt.jpg,./stimuli/street_plate1.png,TOLLTARTÓ UTCA,stimuli/objects/032a.jpg,object,2,stimuli/scenes/119a.jpg,stimuli/scenes/119a.jpg,stimuli/scenes/104b.jpg,stimuli/scenes/104a.jpg,stimuli/scenes/119b.jpg,target,dist2,dist1,lure,0,0,0,0,0,1,1,67,,,,,,,102.97288552857935,104.00253718905151,104.00253718905151,104.00253718905151,104.00253718905151,107.00774996727705,107.00774996727705,107.00774996727705,107.00774996727705,None,,,,,,,,,,,student1,2022-10-21_14h58.47.579,Hippopolis_Updating,2022.2.2,59.942133782036066,
Hippopolis,stimuli/subj_files/student1_cityA.csv,./stimuli/frankfurt.jpg,./stimuli/street_plate1.png,POGÁCSA UTCA,stimuli/scenes/046a.jpg,scene,0,stimuli/scenes/046a.jpg,stimuli/scenes/042a.jpg,stimuli/scenes/046a.jpg,stimuli/scenes/046b.jpg,stimuli/scenes/042b.jpg,dist1,target,lure,dist2,0,0,0,0,0,2,2,49,,,,,,,108.97777983732522,110.0050529204309,110.0050529204309,110.0050529204309,110.0050529204309,112.99430671706796,112.99430671706796,112.99430671706796,112.99430671706796,None,,,,,,,,,,,student1,2022-10-21_14h58.47.579,Hippopolis_Updating,2022.2.2,59.942133782036066,
Hippopolis,stimuli/subj_files/student1_cityA.csv,./stimuli/frankfurt.jpg,./stimuli/street_plate1.png,KORONA UTCA,stimuli/scenes/108a.jpg,scene,1,stimuli/scenes/011a.jpg,stimuli/objects/076a.jpg,stimuli/scenes/011b.jpg,stimuli/objects/076b.jpg,stimuli/scenes/011a.jpg,dist1,lure,dist2,target,0,0,0,0,0,3,3,9,,,,,,,114.98034532926977,116.00380578450859,116.00380578450859,116.00380578450859,116.00380578450859,119.02770911343396,119.02770911343396,119.02770911343396,119.02770911343396,None,,,,,,,,,,,student1,2022-10-21_14h58.47.579,Hippopolis_Updating,2022.2.2,59.942133782036066,
Hippopolis,stimuli/subj_files/student1_cityA.csv,./stimuli/frankfurt.jpg,./stimuli/street_plate1.png,BÖGRE UTCA,stimuli/objects/050a.jpg,object,1,stimuli/objects/076a.jpg,stimuli/scenes/037a.jpg,stimuli/objects/076a.jpg,stimuli/objects/076b.jpg,stimuli/scenes/037b.jpg,dist1,target,lure,dist2,0,0,0,0,0,4,4,41,,,,,,,120.99506494961679,122.01919158175588,122.01919158175588,122.01919158175588,122.01919158175588,125.03324658237398,125.03324658237398,125.03324658237398,125.03324658237398,None,,,,,,,,,,,student1,2022-10-21_14h58.47.579,Hippopolis_Updating,2022.2.2,59.942133782036066,
Hippopolis,stimuli/subj_files/student1_cityA.csv,./stimuli/frankfurt.jpg,./stimuli/street_plate1.png,BONBON UTCA,stimuli/objects/095a.jpg,object,2,stimuli/scenes/007a.jpg,stimuli/objects/028b.jpg,stimuli/objects/028a.jpg,stimuli/scenes/007a.jpg,stimuli/scenes/007b.jpg,dist2,dist1,target,lure,0,0,0,0,0,5,5,72,,,,,,,127.00460786931217,128.03325342573225,128.03325342573225,128.03325342573225,128.03325342573225,131.05024619214237,131.05024619214237,131.05024619214237,131.05024619214237,None,,,,,,,,,,,student1,2022-10-21_14h58.47.579,Hippopolis_Updating,2022.2.2,59.942133782036066,
Hippopolis,stimuli/subj_files/student1_cityA.csv,./stimuli/frankfurt.jpg,./stimuli/street_plate1.png,ZSEMLE UTCA,stimuli/objects/115a.jpg,object,1,stimuli/objects/053a.jpg,stimuli/objects/007a.jpg,stimuli/objects/053a.jpg,stimuli/objects/007b.jpg,stimuli/objects/053b.jpg,dist1,target,dist2,lure,0,0,0,0,0,6,6,47,,,,,,,133.0127780083567,134.03437398187816,134.03437398187816,134.03437398187816,134.03437398187816,137.04219423606992,137.04219423606992,137.04219423606992,137.04219423606992,None,,,,,,,,,,,student1,2022-10-21_14h58.47.579,Hippopolis_Updating,2022.2.2,59.942133782036066,
Hippopolis,stimuli/subj_files/student1_cityA.csv,./stimuli/frankfurt.jpg,./stimuli/street_plate1.png,CUKOR UTCA,stimuli/objects/111a.jpg,object,0,stimuli/objects/111a.jpg,stimuli/objects/089b.jpg,stimuli/objects/111b.jpg,stimuli/objects/111a.jpg,stimuli/objects/089a.jpg,dist2,lure,target,dist1,0,0,0,0,0,7,7,30,,,,,,,139.0148670375347,140.03767002746463,140.03767002746463,140.03767002746463,140.03767002746463,143.05012769810855,143.05012769810855,143.05012769810855,143.05012769810855,None,,,,,,,,,,,student1,2022-10-21_14h58.47.579,Hippopolis_Updating,2022.2.2,59.942133782036066,
Hippopolis,stimuli/subj_files/student1_cityA.csv,./stimuli/frankfurt.jpg,./stimuli/street_plate1.png,MUNKA UTCA,stimuli/scenes/039a.jpg,scene,2,stimuli/objects/067a.jpg,stimuli/scenes/097a.jpg,stimuli/objects/067b.jpg,stimuli/objects/067a.jpg,stimuli/scenes/097b.jpg,dist1,lure,target,dist2,0,0,0,0,0,8,8,4,,,,,,,145.02483790367842,146.0545657593757,146.0545657593757,146.0545657593757,146.0545657593757,149.06766472756863,149.06766472756863,149.06766472756863,149.06766472756863,None,,,,,,,,,,,student1,2022-10-21_14h58.47.579,Hippopolis_Updating,2022.2.2,59.942133782036066,
Hippopolis,stimuli/subj_files/student1_cityA.csv,./stimuli/frankfurt.jpg,./stimuli/street_plate1.png,TELEP UTCA,stimuli/scenes/048a.jpg,scene,2,stimuli/objects/120a.jpg,stimuli/objects/120a.jpg,stimuli/objects/120b.jpg,stimuli/scenes/119b.jpg,stimuli/scenes/119a.jpg,target,lure,dist2,dist1,0,0,0,0,0,9,9,75,,,,,,,151.03199447132647,152.0515384245664,152.0515384245664,152.0515384245664,152.0515384245664,155.07770867832005,155.07770867832005,155.07770867832005,155.07770867832005,None,,,,,,,,,,,student1,2022-10-21_14h58.47.579,Hippopolis_Updating,2022.2.2,59.942133782036066,
Hippopolis,stimuli/subj_files/student1_cityA.csv,./stimuli/frankfurt.jpg,./stimuli/street_plate1.png,KAKAS UTCA,stimuli/objects/002a.jpg,object,2,stimuli/scenes/074a.jpg,stimuli/scenes/074b.jpg,stimuli/scenes/074a.jpg,stimuli/scenes/070a.jpg,stimuli/scenes/070b.jpg,lure,target,dist1,dist2,0,0,0,0,0,10,10,24,,,,,,,157.0324476081878,158.05597835034132,158.05597835034132,158.05597835034132,158.05597835034132,161.08250253088772,161.08250253088772,161.08250253088772,161.08250253088772,None,,,,,,,,,,,student1,2022-10-21_14h58.47.579,Hippopolis_Updating,2022.2.2,59.942133782036066,
Hippopolis,stimuli/subj_files/student1_cityA.csv,./stimuli/frankfurt.jpg,./stimuli/street_plate1.png,PIZSAMA UTCA,stimuli/scenes/060a.jpg,scene,2,stimuli/objects/006a.jpg,stimuli/scenes/007b.jpg,stimuli/scenes/007a.jpg,stimuli/objects/006b.jpg,stimuli/objects/006a.jpg,dist2,dist1,lure,target,0,0,0,0,0,11,11,79,,,,,,,163.0459561701864,164.07256121188402,164.07256121188402,164.07256121188402,164.07256121188402,167.08631546981633,167.08631546981633,167.08631546981633,167.08631546981633,None,,,,,,,,,,,student1,2022-10-21_14h58.47.579,Hippopolis_Updating,2022.2.2,59.942133782036066,
Hippopolis,stimuli/subj_files/student1_cityA.csv,./stimuli/frankfurt.jpg,./stimuli/street_plate1.png,NARANCS UTCA,stimuli/objects/017a.jpg,object,1,stimuli/objects/075a.jpg,stimuli/objects/075a.jpg,stimuli/scenes/041b.jpg,stimuli/scenes/041a.jpg,stimuli/objects/075b.jpg,target,dist2,dist1,lure,0,0,0,0,0,12,12,76,,,,,,,169.04904881678522,170.07832447066903,170.07832447066903,170.07832447066903,170.07832447066903,173.10151186399162,173.10151186399162,173.10151186399162,173.10151186399162,None,,,,,,,,,,,student1,2022-10-21_14h58.47.579,Hippopolis_Updating,2022.2.2,59.942133782036066,
Hippopolis,stimuli/subj_files/student1_cityA.csv,./stimuli/frankfurt.jpg,./stimuli/street_plate1.png,EGÉR UTCA,stimuli/scenes/071a.jpg,scene,1,stimuli/scenes/116a.jpg,stimuli/scenes/116b.jpg,stimuli/scenes/116a.jpg,stimuli/scenes/009b.jpg,stimuli/scenes/009a.jpg,lure,target,dist2,dist1,0,0,0,0,0,13,13,29,,,,,,,175.06252285838127,176.0859920233488,176.0859920233488,176.0859920233488,176.0859920233488,179.09385706298053,179.09385706298053,179.09385706298053,179.09385706298053,None,,,,,,,,,,,student1,2022-10-21_14h58.47.579,Hippopolis_Updating,2022.2.2,59.942133782036066,
Hippopolis,stimuli/subj_files/student1_cityA.csv,./stimuli/frankfurt.jpg,./stimuli/street_plate1.png,HORDÓ UTCA,stimuli/scenes/095a.jpg,scene,0,stimuli/scenes/095a.jpg,stimuli/scenes/095a.jpg,stimuli/scenes/046a.jpg,stimuli/scenes/095b.jpg,stimuli/scenes/046b.jpg,target,dist1,lure,dist2,0,0,0,0,0,14,14,27,,,,,,,181.0794148594141,182.10869517922401,182.10869517922401,182.10869517922401,182.10869517922401,185.11225868947804,185.11225868947804,185.11225868947804,185.11225868947804,None,,,,,,,,,,,student1,2022-10-21_14h58.47.579,Hippopolis_Updating,2022.2.2,59.942133782036066,
Hippopolis,stimuli/subj_files/student1_cityA.csv,./stimuli/frankfurt.jpg,./stimuli/street_plate1.png,PETÁRDA UTCA,stimuli/objects/009a.jpg,object,0,stimuli/objects/009a.jpg,stimuli/objects/009a.jpg,stimuli/scenes/051a.jpg,stimuli/objects/009b.jpg,stimuli/scenes/051b.jpg,target,dist1,lure,dist2,0,0,0,0,0,15,15,64,,,,,,,187.08059264160693,188.10329641774297,188.10329641774297,188.10329641774297,188.10329641774297,191.12058619596064,191.12058619596064,191.12058619596064,191.12058619596064,None,,,,,,,,,,,student1,2022-10-21_14h58.47.579,Hippopolis_Updating,2022.2.2,59.942133782036066,
Hippopolis,stimuli/subj_files/student1_cityA.csv,./stimuli/frankfurt.jpg,./stimuli/street_plate1.png,KIRAKÓ UTCA,stimuli/objects/079a.jpg,object,2,stimuli/scenes/070a.jpg,stimuli/scenes/070a.jpg,stimuli/scenes/070b.jpg,stimuli/objects/043b.jpg,stimuli/objects/043a.jpg,target,lure,dist2,dist1,0,0,0,0,0,16,16,57,,,,,,,193.0897097941488,194.11639196425676,194.11639196425676,194.11639196425676,194.11639196425676,197.1436227504164,197.1436227504164,197.1436227504164,197.1436227504164,None,,,,,,,,,,,student1,2022-10-21_14h58.47.579,Hippopolis_Updating,2022.2.2,59.942133782036066,
Hippopolis,stimuli/subj_files/student1_cityA.csv,./stimuli/frankfurt.jpg,./stimuli/street_plate1.png,MARTINI UTCA,stimuli/objects/060a.jpg,object,1,stimuli/objects/011a.jpg,stimuli/objects/075b.jpg,stimuli/objects/075a.jpg,stimuli/objects/011b.jpg,stimuli/objects/011a.jpg,dist2,dist1,lure,target,0,0,0,0,0,17,17,60,,,,,,,199.11632572114468,200.13402509316802,200.13402509316802,200.13402509316802,200.13402509316802,203.1465950384736,203.1465950384736,203.1465950384736,203.1465950384736,None,,,,,,,,,,,student1,2022-10-21_14h58.47.579,Hippopolis_Updating,2022.2.2,59.942133782036066,
Hippopolis,stimuli/subj_files/student1_cityA.csv,./stimuli/frankfurt.jpg,./stimuli/street_plate1.png,SIVATAG UTCA,stimuli/scenes/016a.jpg,scene,2,stimuli/objects/046a.jpg,stimuli/objects/046b.jpg,stimuli/objects/006a.jpg,stimuli/objects/006b.jpg,stimuli/objects/046a.jpg,lure,dist1,dist2,target,0,0,0,0,0,18,18,23,,,,,,,205.1222687419504,206.15329225175083,206.15329225175083,206.15329225175083,206.15329225175083,209.14432593621314,209.14432593621314,209.14432593621314,209.14432593621314,None,,,,,,,,,,,student1,2022-10-21_14h58.47.579,Hippopolis_Updating,2022.2.2,59.942133782036066,
Hippopolis,stimuli/subj_files/student1_cityA.csv,./stimuli/frankfurt.jpg,./stimuli/street_plate1.png,BAGOLY UTCA,stimuli/scenes/029a.jpg,scene,2,stimuli/objects/028a.jpg,stimuli/objects/028b.jpg,stimuli/objects/028a.jpg,stimuli/scenes/028a.jpg,stimuli/scenes/028b.jpg,lure,target,dist1,dist2,0,0,0,0,0,19,19,21,,,,,,,211.12394040077925,212.15185042470694,212.15185042470694,212.15185042470694,212.15185042470694,215.1479081083089,215.1479081083089,215.1479081083089,215.1479081083089,None,,,,,,,,,,,student1,2022-10-21_14h58.47.579,Hippopolis_Updating,2022.2.2,59.942133782036066,
Hippopolis,stimuli/subj_files/student1_cityA.csv,./stimuli/frankfurt.jpg,./stimuli/street_plate1.png,SZIKLA UTCA,stimuli/scenes/111a.jpg,scene,2,stimuli/objects/073a.jpg,stimuli/objects/120b.jpg,stimuli/objects/120a.jpg,stimuli/objects/073a.jpg,stimuli/objects/073b.jpg,dist2,dist1,target,lure,0,0,0,0,0,20,20,1,,,,,,,217.12864312902093,218.15490077622235,218.15490077622235,218.15490077622235,218.15490077622235,221.15540616214275,221.15540616214275,221.15540616214275,221.15540616214275,None,,,,,,,,,,,student1,2022-10-21_14h58.47.579,Hippopolis_Updating,2022.2.2,59.942133782036066,
Hippopolis,stimuli/subj_files/student1_cityA.csv,./stimuli/frankfurt.jpg,./stimuli/street_plate1.png,FÉNYKÉP UTCA,stimuli/scenes/010a.jpg,scene,1,stimuli/scenes/078a.jpg,stimuli/scenes/088a.jpg,stimuli/scenes/078a.jpg,stimuli/scenes/088b.jpg,stimuli/scenes/078b.jpg,dist1,target,dist2,lure,0,0,0,0,0,21,21,32,,,,,,,223.13783927634358,224.17005362920463,224.17005362920463,224.17005362920463,224.17005362920463,227.17892446555197,227.17892446555197,227.17892446555197,227.17892446555197,None,,,,,,,,,,,student1,2022-10-21_14h58.47.579,Hippopolis_Updating,2022.2.2,59.942133782036066,
Hippopolis,stimuli/subj_files/student1_cityA.csv,./stimuli/frankfurt.jpg,./stimuli/street_plate1.png,TRIATLON UTCA,stimuli/objects/024a.jpg,object,0,stimuli/objects/024a.jpg,stimuli/objects/024b.jpg,stimuli/objects/080a.jpg,stimuli/objects/024a.jpg,stimuli/objects/080b.jpg,lure,dist1,target,dist2,0,0,0,0,0,22,22,2,,,,,,,229.15374134480953,230.18148062564433,230.18148062564433,230.18148062564433,230.18148062564433,233.1877551805228,233.1877551805228,233.1877551805228,233.1877551805228,None,,,,,,,,,,,student1,2022-10-21_14h58.47.579,Hippopolis_Updating,2022.2.2,59.942133782036066,
Hippopolis,stimuli/subj_files/student1_cityA.csv,./stimuli/frankfurt.jpg,./stimuli/street_plate1.png,TALICSKA UTCA,stimuli/objects/014a.jpg,object,1,stimuli/objects/108a.jpg,stimuli/objects/109a.jpg,stimuli/objects/109b.jpg,stimuli/objects/108a.jpg,stimuli/objects/108b.jpg,dist1,dist2,target,lure,0,0,0,0,0,23,23,13,,,,,,,235.1618679407984,236.1870709657669,236.1870709657669,236.1870709657669,236.1870709657669,239.18958420865238,239.18958420865238,239.18958420865238,239.18958420865238,None,,,,,,,,,,,student1,2022-10-21_14h58.47.579,Hippopolis_Updating,2022.2.2,59.942133782036066,
Hippopolis,stimuli/subj_files/student1_cityA.csv,./stimuli/frankfurt.jpg,./stimuli/street_plate1.png,LÉTRA UTCA,stimuli/objects/047a.jpg,object,1,stimuli/objects/015a.jpg,stimuli/objects/108b.jpg,stimuli/objects/015b.jpg,stimuli/objects/108a.jpg,stimuli/objects/015a.jpg,dist2,lure,dist1,target,0,0,0,0,0,24,24,33,,,,,,,241.16205205768347,242.1826490778476,242.1826490778476,242.1826490778476,242.1826490778476,245.20825952105224,245.20825952105224,245.20825952105224,245.20825952105224,None,,,,,,,,,,,student1,2022-10-21_14h58.47.579,Hippopolis_Updating,2022.2.2,59.942133782036066,
Hippopolis,stimuli/subj_files/student1_cityA.csv,./stimuli/frankfurt.jpg,./stimuli/street_plate1.png,HERNYÓ UTCA,stimuli/scenes/066a.jpg,scene,1,stimuli/scenes/037a.jpg,stimuli/scenes/037a.jpg,stimuli/objects/045b.jpg,stimuli/scenes/037b.jpg,stimuli/objects/045a.jpg,target,dist2,lure,dist1,0,0,0,0,0,25,25,5,,,,,,,247.16397749818861,248.1865559387952,248.1865559387952,248.1865559387952,248.1865559387952,251.2049112264067,251.2049112264067,251.2049112264067,251.2049112264067,None,,,,,,,,,,,student1,2022-10-21_14h58.47.579,Hippopolis_Updating,2022.2.2,59.942133782036066,
Hippopolis,stimuli/subj_files/student1_cityA.csv,./stimuli/frankfurt.jpg,./stimuli/street_plate1.png,TERASZ UTCA,stimuli/objects/063a.jpg,object,2,stimuli/scenes/104a.jpg,stimuli/scenes/104a.jpg,stimuli/scenes/056a.jpg,stimuli/scenes/104b.jpg,stimuli/scenes/056b.jpg,target,dist1,lure,dist2,0,0,0,0,0,26,26,48,,,,,,,253.17887314781547,254.2019964735955,254.2019964735955,254.2019964735955,254.2019964735955,257.20465402305126,257.20465402305126,257.20465402305126,257.20465402305126,None,,,,,,,,,,,student1,2022-10-21_14h58.47.579,Hippopolis_Updating,2022.2.2,59.942133782036066,
Hippopolis,stimuli/subj_files/student1_cityA.csv,./stimuli/frankfurt.jpg,./stimuli/street_plate1.png,PAPUCS UTCA,stimuli/scenes/051a.jpg,scene,0,stimuli/scenes/051a.jpg,stimuli/scenes/051b.jpg,stimuli/scenes/051a.jpg,stimuli/scenes/090a.jpg,stimuli/scenes/090b.jpg,lure,target,dist1,dist2,0,0,0,0,0,27,27,68,,,,,,,259.20042309351265,260.2061356585473,260.2061356585473,260.2061356585473,260.2061356585473,263.2190306056291,263.2190306056291,263.2190306056291,263.2190306056291,None,,,,,,,,,,,student1,2022-10-21_14h58.47.579,Hippopolis_Updating,2022.2.2,59.942133782036066,
Hippopolis,stimuli/subj_files/student1_cityA.csv,./stimuli/frankfurt.jpg,./stimuli/street_plate1.png,KOKTÉL UTCA,stimuli/scenes/008a.jpg,scene,2,stimuli/objects/012a.jpg,stimuli/objects/036b.jpg,stimuli/objects/012b.jpg,stimuli/objects/036a.jpg,stimuli/objects/012a.jpg,dist2,lure,dist1,target,0,0,0,0,0,28,28,46,,,,,,,265.21941096521914,266.24995023943484,266.24995023943484,266.24995023943484,266.24995023943484,269.2598013654351,269.2598013654351,269.2598013654351,269.2598013654351,None,,,,,,,,,,,student1,2022-10-21_14h58.47.579,Hippopolis_Updating,2022.2.2,59.942133782036066,
Hippopolis,stimuli/subj_files/student1_cityA.csv,./stimuli/frankfurt.jpg,./stimuli/street_plate1.png,AKÁC UTCA,stimuli/scenes/081a.jpg,scene,2,stimuli/objects/055a.jpg,stimuli/objects/055b.jpg,stimuli/objects/107b.jpg,stimuli/objects/107a.jpg,stimuli/objects/055a.jpg,lure,dist2,dist1,target,0,0,0,0,0,29,29,74,,,,,,,271.2320033032447,272.2644459363073,272.2644459363073,272.2644459363073,272.2644459363073,275.27805961854756,275.27805961854756,275.27805961854756,275.27805961854756,None,,,,,,,,,,,student1,2022-10-21_14h58.47.579,Hippopolis_Updating,2022.2.2,59.942133782036066,
Hippopolis,stimuli/subj_files/student1_cityA.csv,./stimuli/frankfurt.jpg,./stimuli/street_plate1.png,SZOMSZÉD UTCA,stimuli/objects/026a.jpg,object,1,stimuli/objects/004a.jpg,stimuli/objects/027b.jpg,stimuli/objects/004b.jpg,stimuli/objects/004a.jpg,stimuli/objects/027a.jpg,dist2,lure,target,dist1,0,0,0,0,0,30,30,65,,,,,,,277.2377681173384,278.2599472273141,278.2599472273141,278.2599472273141,278.2599472273141,281.27170793525875,281.27170793525875,281.27170793525875,281.27170793525875,None,,,,,,,,,,,student1,2022-10-21_14h58.47.579,Hippopolis_Updating,2022.2.2,59.942133782036066,
Hippopolis,stimuli/subj_files/student1_cityA.csv,./stimuli/frankfurt.jpg,./stimuli/street_plate1.png,KULLANCS UTCA,stimuli/objects/089a.jpg,object,0,stimuli/objects/089a.jpg,stimuli/scenes/072a.jpg,stimuli/objects/089a.jpg,stimuli/scenes/072b.jpg,stimuli/objects/089b.jpg,dist1,target,dist2,lure,0,0,0,0,0,31,31,34,,,,,,,283.2482776455581,284.26639345660806,284.26639345660806,284.26639345660806,284.26639345660806,287.28368976712227,287.28368976712227,287.28368976712227,287.28368976712227,None,284.26639345660806,,,,,,,,,,student1,2022-10-21_14h58.47.579,Hippopolis_Updating,2022.2.2,59.942133782036066,
Hippopolis,stimuli/subj_files/student1_cityA.csv,./stimuli/frankfurt.jpg,./stimuli/street_plate1.png,PADLÓ UTCA,stimuli/objects/100a.jpg,object,0,stimuli/objects/100a.jpg,stimuli/scenes/058a.jpg,stimuli/scenes/058b.jpg,stimuli/objects/100a.jpg,stimuli/objects/100b.jpg,dist1,dist2,target,lure,0,0,0,0,0,32,32,59,,,,,,,289.261032640934,290.2809924092144,290.2809924092144,290.2809924092144,290.2809924092144,293.2947460450232,293.2947460450232,293.2947460450232,293.2947460450232,None,,,,,,,,,,,student1,2022-10-21_14h58.47.579,Hippopolis_Updating,2022.2.2,59.942133782036066,
Hippopolis,stimuli/subj_files/student1_cityA.csv,./stimuli/frankfurt.jpg,./stimuli/street_plate1.png,KÖMÉNYMAG UTCA,stimuli/objects/068a.jpg,object,1,stimuli/objects/045a.jpg,stimuli/objects/045a.jpg,stimuli/objects/045b.jpg,stimuli/objects/071a.jpg,stimuli/objects/071b.jpg,target,lure,dist1,dist2,0,0,0,0,0,33,33,18,,,,,,,295.2771287765354,296.3000353295356,296.3000353295356,296.3000353295356,296.3000353295356,299.3262886237353,299.3262886237353,299.3262886237353,299.3262886237353,None,,,,,,,,,,,student1,2022-10-21_14h58.47.579,Hippopolis_Updating,2022.2.2,59.942133782036066,
Hippopolis,stimuli/subj_files/student1_cityA.csv,./stimuli/frankfurt.jpg,./stimuli/street_plate1.png,TOBOZ UTCA,stimuli/objects/001a.jpg,object,2,stimuli/scenes/059a.jpg,stimuli/scenes/059a.jpg,stimuli/objects/085a.jpg,stimuli/objects/085b.jpg,stimuli/scenes/059b.jpg,target,dist1,dist2,lure,0,0,0,0,0,34,34,40,,,,,,,301.29111006855965,302.3157943338156,302.3157943338156,302.3157943338156,302.3157943338156,305.3252436425537,305.3252436425537,305.3252436425537,305.3252436425537,None,,,,,,,,,,,student1,2022-10-21_14h58.47.579,Hippopolis_Updating,2022.2.2,59.942133782036066,
Hippopolis,stimuli/subj_files/student1_cityA.csv,./stimuli/frankfurt.jpg,./stimuli/street_plate1.png,KERET UTCA,stimuli/scenes/027a.jpg,scene,0,stimuli/scenes/027a.jpg,stimuli/objects/100a.jpg,stimuli/objects/100b.jpg,stimuli/scenes/027a.jpg,stimuli/scenes/027b.jpg,dist1,dist2,target,lure,0,0,0,0,0,35,35,3,,,,,,,307.3075871877372,308.333842035383,308.333842035383,308.333842035383,308.333842035383,311.33120190165937,311.33120190165937,311.33120190165937,311.33120190165937,None,,,,,,,,,,,student1,2022-10-21_14h58.47.579,Hippopolis_Updating,2022.2.2,59.942133782036066,
Hippopolis,stimuli/subj_files/student1_cityA.csv,./stimuli/frankfurt.jpg,./stimuli/street_plate1.png,FOGAS UTCA,stimuli/scenes/025a.jpg,scene,1,stimuli/scenes/018a.jpg,stimuli/scenes/018b.jpg,stimuli/scenes/064a.jpg,stimuli/scenes/018a.jpg,stimuli/scenes/064b.jpg,lure,dist1,target,dist2,0,0,0,0,0,36,36,38,,,,,,,313.3231204021722,314.34735557436943,314.34735557436943,314.34735557436943,314.34735557436943,317.3627877123654,317.3627877123654,317.3627877123654,317.3627877123654,None,,,,,,,,,,,student1,2022-10-21_14h58.47.579,Hippopolis_Updating,2022.2.2,59.942133782036066,
Hippopolis,stimuli/subj_files/student1_cityA.csv,./stimuli/frankfurt.jpg,./stimuli/street_plate1.png,LAKAT UTCA,stimuli/objects/066a.jpg,object,2,stimuli/scenes/084a.jpg,stimuli/scenes/084b.jpg,stimuli/scenes/034a.jpg,stimuli/scenes/084a.jpg,stimuli/scenes/034b.jpg,lure,dist1,target,dist2,0,0,0,0,0,37,37,58,,,,,,,319.3308423794806,320.3467547092587,320.3467547092587,320.3467547092587,320.3467547092587,323.3545323573053,323.3545323573053,323.3545323573053,323.3545323573053,None,,,,,,,,,,,student1,2022-10-21_14h58.47.579,Hippopolis_Updating,2022.2.2,59.942133782036066,
Hippopolis,stimuli/subj_files/student1_cityA.csv,./stimuli/frankfurt.jpg,./stimuli/street_plate1.png,PÉKSÉG UTCA,stimuli/scenes/073a.jpg,scene,2,stimuli/objects/059a.jpg,stimuli/objects/059a.jpg,stimuli/objects/046b.jpg,stimuli/objects/059b.jpg,stimuli/objects/046a.jpg,target,dist2,lure,dist1,0,0,0,0,0,38,38,61,,,,,,,325.3259381186217,326.34934228286147,326.34934228286147,326.34934228286147,326.34934228286147,329.3544154185802,329.3544154185802,329.3544154185802,329.3544154185802,None,,,,,,,,,,,student1,2022-10-21_14h58.47.579,Hippopolis_Updating,2022.2.2,59.942133782036066,
Hippopolis,stimuli/subj_files/student1_cityA.csv,./stimuli/frankfurt.jpg,./stimuli/street_plate1.png,OLDAL UTCA,stimuli/scenes/093a.jpg,scene,2,stimuli/objects/107a.jpg,stimuli/objects/107b.jpg,stimuli/objects/022a.jpg,stimuli/objects/107a.jpg,stimuli/objects/022b.jpg,lure,dist1,target,dist2,0,0,0,0,0,39,39,11,,,,,,,331.339034287259,332.36305113323033,332.36305113323033,332.36305113323033,332.36305113323033,335.3746591359377,335.3746591359377,335.3746591359377,335.3746591359377,None,,,,,,,,,,,student1,2022-10-21_14h58.47.579,Hippopolis_Updating,2022.2.2,59.942133782036066,
Hippopolis,stimuli/subj_files/student1_cityA.csv,./stimuli/frankfurt.jpg,./stimuli/street_plate1.png,KÖNYVTÁR UTCA,stimuli/objects/113a.jpg,object,1,stimuli/objects/109a.jpg,stimuli/objects/109a.jpg,stimuli/objects/109b.jpg,stimuli/scenes/067a.jpg,stimuli/scenes/067b.jpg,target,lure,dist1,dist2,0,0,0,0,0,40,40,42,,,,,,,337.34584594890475,338.36558148264885,338.36558148264885,338.36558148264885,338.36558148264885,341.3937344029546,341.3937344029546,341.3937344029546,341.3937344029546,None,,,,,,,,,,,student1,2022-10-21_14h58.47.579,Hippopolis_Updating,2022.2.2,59.942133782036066,
Hippopolis,stimuli/subj_files/student1_cityA.csv,./stimuli/frankfurt.jpg,./stimuli/street_plate1.png,HÁRFA UTCA,stimuli/objects/083a.jpg,object,2,stimuli/scenes/028a.jpg,stimuli/scenes/028b.jpg,stimuli/objects/012b.jpg,stimuli/objects/012a.jpg,stimuli/scenes/028a.jpg,lure,dist2,dist1,target,0,0,0,0,0,41,41,16,,,,,,,343.35597822628915,344.38239013403654,344.38239013403654,344.38239013403654,344.38239013403654,347.39136671088636,347.39136671088636,347.39136671088636,347.39136671088636,None,,,,,,,,,,,student1,2022-10-21_14h58.47.579,Hippopolis_Updating,2022.2.2,59.942133782036066,
Hippopolis,stimuli/subj_files/student1_cityA.csv,./stimuli/frankfurt.jpg,./stimuli/street_plate1.png,DOMINÓ UTCA,stimuli/scenes/042a.jpg,scene,0,stimuli/scenes/042a.jpg,stimuli/scenes/042a.jpg,stimuli/scenes/042b.jpg,stimuli/objects/070a.jpg,stimuli/objects/070b.jpg,target,lure,dist1,dist2,0,0,0,0,0,42,42,63,,,,,,,349.3740119319409,350.39731843955815,350.39731843955815,350.39731843955815,350.39731843955815,353.40743858739734,353.40743858739734,353.40743858739734,353.40743858739734,None,,,,,,,,,,,student1,2022-10-21_14h58.47.579,Hippopolis_Updating,2022.2.2,59.942133782036066,
Hippopolis,stimuli/subj_files/student1_cityA.csv,./stimuli/frankfurt.jpg,./stimuli/street_plate1.png,FIÓK UTCA,stimuli/scenes/002a.jpg,scene,1,stimuli/scenes/014a.jpg,stimuli/scenes/014a.jpg,stimuli/objects/004a.jpg,stimuli/objects/004b.jpg,stimuli/scenes/014b.jpg,target,dist1,dist2,lure,0,0,0,0,0,43,43,73,,,,,,,355.37759783677757,356.4009086973965,356.4009086973965,356.4009086973965,356.4009086973965,359.4093117788434,359.4093117788434,359.4093117788434,359.4093117788434,None,,,,,,,,,,,student1,2022-10-21_14h58.47.579,Hippopolis_Updating,2022.2.2,59.942133782036066,
Hippopolis,stimuli/subj_files/student1_cityA.csv,./stimuli/frankfurt.jpg,./stimuli/street_plate1.png,KÖTÉL UTCA,stimuli/objects/051a.jpg,object,0,stimuli/objects/051a.jpg,stimuli/scenes/024b.jpg,stimuli/objects/051b.jpg,stimuli/scenes/024a.jpg,stimuli/objects/051a.jpg,dist2,lure,dist1,target,0,0,0,0,0,44,44,7,,,,,,,361.38501502759755,362.41343852318823,362.41343852318823,362.41343852318823,362.41343852318823,365.40298466570675,365.40298466570675,365.40298466570675,365.40298466570675,space,,367.39584862440825,367.39584862440825,3.9851344637572765,,,,,,,student1,2022-10-21_14h58.47.579,Hippopolis_Updating,2022.2.2,59.942133782036066,
Hippopolis,stimuli/subj_files/student1_cityA.csv,./stimuli/frankfurt.jpg,./stimuli/street_plate1.png,ÁRNYÉK UTCA,stimuli/objects/020a.jpg,object,1,stimuli/objects/027a.jpg,stimuli/scenes/004a.jpg,stimuli/objects/027b.jpg,stimuli/objects/027a.jpg,stimuli/scenes/004b.jpg,dist1,lure,target,dist2,0,0,0,0,0,45,45,52,,,,,,,371.4032614622265,372.4251376502216,372.4251376502216,372.4251376502216,372.4251376502216,375.4530162643641,375.4530162643641,375.4530162643641,375.4530162643641,None,,,,,,,,,,,student1,2022-10-21_14h58.47.579,Hippopolis_Updating,2022.2.2,59.942133782036066,
Hippopolis,stimuli/subj_files/student1_cityA.csv,./stimuli/frankfurt.jpg,./stimuli/street_plate1.png,KARTON UTCA,stimuli/objects/101a.jpg,object,2,stimuli/scenes/044a.jpg,stimuli/scenes/074a.jpg,stimuli/scenes/044b.jpg,stimuli/scenes/044a.jpg,stimuli/scenes/074b.jpg,dist1,lure,target,dist2,0,0,0,0,0,46,46,8,,,,,,,377.4045732859522,378.43619486130774,378.43619486130774,378.43619486130774,378.43619486130774,381.4281301535666,381.4281301535666,381.4281301535666,381.4281301535666,None,,,,,,,,,,,student1,2022-10-21_14h58.47.579,Hippopolis_Updating,2022.2.2,59.942133782036066,
Hippopolis,stimuli/subj_files/student1_cityA.csv,./stimuli/frankfurt.jpg,./stimuli/street_plate1.png,HEGEDŰ UTCA,stimuli/scenes/113a.jpg,scene,2,stimuli/objects/036a.jpg,stimuli/objects/036b.jpg,stimuli/scenes/059b.jpg,stimuli/scenes/059a.jpg,stimuli/objects/036a.jpg,lure,dist2,dist1,target,0,0,0,0,0,47,47,69,,,,,,,383.4124010056257,384.4418785031885,384.4418785031885,384.4418785031885,384.4418785031885,387.4502277802676,387.4502277802676,387.4502277802676,387.4502277802676,None,,,,,,,,,,,student1,2022-10-21_14h58.47.579,Hippopolis_Updating,2022.2.2,59.942133782036066,
Hippopolis,stimuli/subj_files/student1_cityA.csv,./stimuli/frankfurt.jpg,./stimuli/street_plate1.png,CSILLAG UTCA,stimuli/scenes/083a.jpg,scene,1,stimuli/scenes/117a.jpg,stimuli/scenes/117a.jpg,stimuli/scenes/117b.jpg,stimuli/objects/041a.jpg,stimuli/objects/041b.jpg,target,lure,dist1,dist2,0,0,0,0,0,48,48,15,,,,,,,389.4249690864235,390.44773786328733,390.44773786328733,390.44773786328733,390.44773786328733,393.45808504521847,393.45808504521847,393.45808504521847,393.45808504521847,None,,,,,,,,,,,student1,2022-10-21_14h58.47.579,Hippopolis_Updating,2022.2.2,59.942133782036066,
Hippopolis,stimuli/subj_files/student1_cityA.csv,./stimuli/frankfurt.jpg,./stimuli/street_plate1.png,MOCSÁR UTCA,stimuli/objects/080a.jpg,object,0,stimuli/objects/080a.jpg,stimuli/objects/080b.jpg,stimuli/objects/080a.jpg,stimuli/scenes/043b.jpg,stimuli/scenes/043a.jpg,lure,target,dist2,dist1,0,0,0,0,0,49,49,17,,,,,,,395.438561309129,396.4629715792835,396.4629715792835,396.4629715792835,396.4629715792835,399.46805186755955,399.46805186755955,399.46805186755955,399.46805186755955,None,,,,,,,,,,,student1,2022-10-21_14h58.47.579,Hippopolis_Updating,2022.2.2,59.942133782036066,
Hippopolis,stimuli/subj_files/student1_cityA.csv,./stimuli/frankfurt.jpg,./stimuli/street_plate1.png,MÁLNA UTCA,stimuli/objects/069a.jpg,object,2,stimuli/scenes/053a.jpg,stimuli/objects/073a.jpg,stimuli/objects/073b.jpg,stimuli/scenes/053b.jpg,stimuli/scenes/053a.jpg,dist1,dist2,lure,target,0,0,0,0,0,50,50,14,,,,,,,401.45438624732196,402.478874579072,402.478874579072,402.478874579072,402.478874579072,405.47663719952106,405.47663719952106,405.47663719952106,405.47663719952106,None,,,,,,,,,,,student1,2022-10-21_14h58.47.579,Hippopolis_Updating,2022.2.2,59.942133782036066,
Hippopolis,stimuli/subj_files/student1_cityA.csv,./stimuli/frankfurt.jpg,./stimuli/street_plate1.png,VÖDÖR UTCA,stimuli/scenes/055a.jpg,scene,1,stimuli/scenes/088a.jpg,stimuli/scenes/088b.jpg,stimuli/scenes/088a.jpg,stimuli/scenes/087b.jpg,stimuli/scenes/087a.jpg,lure,target,dist2,dist1,0,0,0,0,0,51,51,56,,,,,,,407.4682079926133,408.4910738058388,408.4910738058388,408.4910738058388,408.4910738058388,411.49581260979176,411.49581260979176,411.49581260979176,411.49581260979176,None,,,,,,,,,,,student1,2022-10-21_14h58.47.579,Hippopolis_Updating,2022.2.2,59.942133782036066,
Hippopolis,stimuli/subj_files/student1_cityA.csv,./stimuli/frankfurt.jpg,./stimuli/street_plate1.png,TOJÁS UTCA,stimuli/objects/021a.jpg,object,2,stimuli/scenes/034a.jpg,stimuli/scenes/034a.jpg,stimuli/objects/059a.jpg,stimuli/objects/059b.jpg,stimuli/scenes/034b.jpg,target,dist1,dist2,lure,0,0,0,0,0,52,52,37,,,,,,,413.48056458868086,414.503094824031,414.503094824031,414.503094824031,414.503094824031,417.52799212932587,417.52799212932587,417.52799212932587,417.52799212932587,None,,,,,,,,,,,student1,2022-10-21_14h58.47.579,Hippopolis_Updating,2022.2.2,59.942133782036066,
Hippopolis,stimuli/subj_files/student1_cityA.csv,./stimuli/frankfurt.jpg,./stimuli/street_plate1.png,KERÉK UTCA,stimuli/scenes/096a.jpg,scene,1,stimuli/scenes/041a.jpg,stimuli/scenes/117a.jpg,stimuli/scenes/041b.jpg,stimuli/scenes/041a.jpg,stimuli/scenes/117b.jpg,dist1,lure,target,dist2,0,0,0,0,0,53,53,20,,,,,,,419.49682213552296,420.5280748568475,420.5280748568475,420.5280748568475,420.5280748568475,423.5245421361178,423.5245421361178,423.5245421361178,423.5245421361178,None,,,,,,,,,,,student1,2022-10-21_14h58.47.579,Hippopolis_Updating,2022.2.2,59.942133782036066,
Hippopolis,stimuli/subj_files/student1_cityA.csv,./stimuli/frankfurt.jpg,./stimuli/street_plate1.png,KÖTÉNY UTCA,stimuli/scenes/031a.jpg,scene,1,stimuli/scenes/064a.jpg,stimuli/objects/103a.jpg,stimuli/objects/103b.jpg,stimuli/scenes/064b.jpg,stimuli/scenes/064a.jpg,dist1,dist2,lure,target,0,0,0,0,0,54,54,22,,,,,,,425.50941229611635,426.5296435728669,426.5296435728669,426.5296435728669,426.5296435728669,429.5310008060187,429.5310008060187,429.5310008060187,429.5310008060187,None,,,,,,,,,,,student1,2022-10-21_14h58.47.579,Hippopolis_Updating,2022.2.2,59.942133782036066,
Hippopolis,stimuli/subj_files/student1_cityA.csv,./stimuli/frankfurt.jpg,./stimuli/street_plate1.png,RÓZSA UTCA,stimuli/objects/091a.jpg,object,0,stimuli/objects/091a.jpg,stimuli/objects/091b.jpg,stimuli/objects/078b.jpg,stimuli/objects/078a.jpg,stimuli/objects/091a.jpg,lure,dist2,dist1,target,0,0,0,0,0,55,55,45,,,,,,,431.52327291853726,432.54645067080855,432.54645067080855,432.54645067080855,432.54645067080855,435.5533108487725,435.5533108487725,435.5533108487725,435.5533108487725,None,,,,,,,,,,,student1,2022-10-21_14h58.47.579,Hippopolis_Updating,2022.2.2,59.942133782036066,
Hippopolis,stimuli/subj_files/student1_cityA.csv,./stimuli/frankfurt.jpg,./stimuli/street_plate1.png,VASALÓ UTCA,stimuli/objects/025a.jpg,object,2,stimuli/scenes/056a.jpg,stimuli/scenes/044a.jpg,stimuli/scenes/056b.jpg,stimuli/scenes/056a.jpg,stimuli/scenes/044b.jpg,dist1,lure,target,dist2,0,0,0,0,0,56,56,70,,,,,,,437.52687001787126,438.54744309186935,438.54744309186935,438.54744309186935,438.54744309186935,441.5779176745564,441.5779176745564,441.5779176745564,441.5779176745564,None,,,,,,,,,,,student1,2022-10-21_14h58.47.579,Hippopolis_Updating,2022.2.2,59.942133782036066,
Hippopolis,stimuli/subj_files/student1_cityA.csv,./stimuli/frankfurt.jpg,./stimuli/street_plate1.png,PÁFRÁNY UTCA,stimuli/scenes/101a.jpg,scene,0,stimuli/scenes/101a.jpg,stimuli/scenes/101a.jpg,stimuli/scenes/101b.jpg,stimuli/objects/051a.jpg,stimuli/objects/051b.jpg,target,lure,dist1,dist2,0,0,0,0,0,57,57,0,,,,,,,443.53396718390286,444.5640178658068,444.5640178658068,444.5640178658068,444.5640178658068,447.5529821161181,447.5529821161181,447.5529821161181,447.5529821161181,None,,,,,,,,,,,student1,2022-10-21_14h58.47.579,Hippopolis_Updating,2022.2.2,59.942133782036066,
Hippopolis,stimuli/subj_files/student1_cityA.csv,./stimuli/frankfurt.jpg,./stimuli/street_plate1.png,PAPAGÁJ UTCA,stimuli/objects/093a.jpg,object,2,stimuli/scenes/097a.jpg,stimuli/scenes/097a.jpg,stimuli/scenes/109b.jpg,stimuli/scenes/109a.jpg,stimuli/scenes/097b.jpg,target,dist2,dist1,lure,0,0,0,0,0,58,58,55,,,,,,,449.54215256124735,450.5626861359924,450.5626861359924,450.5626861359924,450.5626861359924,453.56449121795595,453.56449121795595,453.56449121795595,453.56449121795595,None,,,,,,,,,,,student1,2022-10-21_14h58.47.579,Hippopolis_Updating,2022.2.2,59.942133782036066,
Hippopolis,stimuli/subj_files/student1_cityA.csv,./stimuli/frankfurt.jpg,./stimuli/street_plate1.png,CITROM UTCA,stimuli/scenes/036a.jpg,scene,2,stimuli/objects/043a.jpg,stimuli/objects/043b.jpg,stimuli/objects/067a.jpg,stimuli/objects/043a.jpg,stimuli/objects/067b.jpg,lure,dist1,target,dist2,0,0,0,0,0,59,59,26,,,,,,,455.54643791913986,456.5666517801583,456.5666517801583,456.5666517801583,456.5666517801583,459.5754995997995,459.5754995997995,459.5754995997995,459.5754995997995,None,,,,,,,,,,,student1,2022-10-21_14h58.47.579,Hippopolis_Updating,2022.2.2,59.942133782036066,
Hippopolis,stimuli/subj_files/student1_cityA.csv,./stimuli/frankfurt.jpg,./stimuli/street_plate1.png,HEGESZTŐ UTCA,stimuli/scenes/043a.jpg,scene,0,stimuli/scenes/043a.jpg,stimuli/scenes/043b.jpg,stimuli/scenes/043a.jpg,stimuli/objects/062a.jpg,stimuli/objects/062b.jpg,lure,target,dist1,dist2,0,0,0,0,0,60,60,77,,,,,,,461.55888221785426,462.5858586002141,462.5858586002141,462.5858586002141,462.5858586002141,465.5938007719815,465.5938007719815,465.5938007719815,465.5938007719815,None,,,,,,,,,,,student1,2022-10-21_14h58.47.579,Hippopolis_Updating,2022.2.2,59.942133782036066,
Hippopolis,stimuli/subj_files/student1_cityA.csv,./stimuli/frankfurt.jpg,./stimuli/street_plate1.png,BOLYGÓ UTCA,stimuli/scenes/118a.jpg,scene,1,stimuli/scenes/087a.jpg,stimuli/objects/011a.jpg,stimuli/scenes/087b.jpg,stimuli/objects/011b.jpg,stimuli/scenes/087a.jpg,dist1,lure,dist2,target,0,0,0,0,0,61,61,31,,,,,,,467.5598584674299,468.5789076089859,468.5789076089859,468.5789076089859,468.5789076089859,471.5874102115631,471.5874102115631,471.5874102115631,471.5874102115631,None,,,,,,,,,,,student1,2022-10-21_14h58.47.579,Hippopolis_Updating,2022.2.2,59.942133782036066,
Hippopolis,stimuli/subj_files/student1_cityA.csv,./stimuli/frankfurt.jpg,./stimuli/street_plate1.png,LÁNDZSA UTCA,stimuli/scenes/090a.jpg,scene,0,stimuli/scenes/090a.jpg,stimuli/scenes/090a.jpg,stimuli/objects/091b.jpg,stimuli/scenes/090b.jpg,stimuli/objects/091a.jpg,target,dist2,lure,dist1,0,0,0,0,0,62,62,39,,,,,,,473.56232039257884,474.58052826300263,474.58052826300263,474.58052826300263,474.58052826300263,477.5904070697725,477.5904070697725,477.5904070697725,477.5904070697725,None,474.58052826300263,,,,,,,,,,student1,2022-10-21_14h58.47.579,Hippopolis_Updating,2022.2.2,59.942133782036066,
Hippopolis,stimuli/subj_files/student1_cityA.csv,./stimuli/frankfurt.jpg,./stimuli/street_plate1.png,HAJÓ UTCA,stimuli/objects/086a.jpg,object,1,stimuli/objects/041a.jpg,stimuli/scenes/014a.jpg,stimuli/scenes/014b.jpg,stimuli/objects/041a.jpg,stimuli/objects/041b.jpg,dist1,dist2,target,lure,0,0,0,0,0,63,63,71,,,,,,,479.5701263435185,480.5927281100303,480.5927281100303,480.5927281100303,480.5927281100303,483.5957520250231,483.5957520250231,483.5957520250231,483.5957520250231,None,,,,,,,,,,,student1,2022-10-21_14h58.47.579,Hippopolis_Updating,2022.2.2,59.942133782036066,
Hippopolis,stimuli/subj_files/student1_cityA.csv,./stimuli/frankfurt.jpg,./stimuli/street_plate1.png,HARMONIKA UTCA,stimuli/scenes/024a.jpg,scene,0,stimuli/scenes/024a.jpg,stimuli/scenes/101b.jpg,stimuli/scenes/024b.jpg,stimuli/scenes/101a.jpg,stimuli/scenes/024a.jpg,dist2,lure,dist1,target,0,0,0,0,0,64,64,25,,,,,,,485.5746972039342,486.5943316593766,486.5943316593766,486.5943316593766,486.5943316593766,489.60456345789135,489.60456345789135,489.60456345789135,489.60456345789135,None,,,,,,,,,,,student1,2022-10-21_14h58.47.579,Hippopolis_Updating,2022.2.2,59.942133782036066,
Hippopolis,stimuli/subj_files/student1_cityA.csv,./stimuli/frankfurt.jpg,./stimuli/street_plate1.png,KECSKE UTCA,stimuli/scenes/085a.jpg,scene,2,stimuli/objects/022a.jpg,stimuli/objects/022b.jpg,stimuli/objects/022a.jpg,stimuli/scenes/053a.jpg,stimuli/scenes/053b.jpg,lure,target,dist1,dist2,0,0,0,0,0,65,65,6,,,,,,,491.57530708797276,492.60511549562216,492.60511549562216,492.60511549562216,492.60511549562216,495.61500674299896,495.61500674299896,495.61500674299896,495.61500674299896,None,,,,,,,,,,,student1,2022-10-21_14h58.47.579,Hippopolis_Updating,2022.2.2,59.942133782036066,
Hippopolis,stimuli/subj_files/student1_cityA.csv,./stimuli/frankfurt.jpg,./stimuli/street_plate1.png,ÁLOM UTCA,stimuli/objects/070a.jpg,object,0,stimuli/objects/070a.jpg,stimuli/objects/070b.jpg,stimuli/objects/114b.jpg,stimuli/objects/114a.jpg,stimuli/objects/070a.jpg,lure,dist2,dist1,target,0,0,0,0,0,66,66,50,,,,,,,497.57733889110386,498.5963211674243,498.5963211674243,498.5963211674243,498.5963211674243,501.6170376148075,501.6170376148075,501.6170376148075,501.6170376148075,None,,,,,,,,,,,student1,2022-10-21_14h58.47.579,Hippopolis_Updating,2022.2.2,59.942133782036066,
Hippopolis,stimuli/subj_files/student1_cityA.csv,./stimuli/frankfurt.jpg,./stimuli/street_plate1.png,KORONG UTCA,stimuli/scenes/065a.jpg,scene,1,stimuli/scenes/004a.jpg,stimuli/scenes/004a.jpg,stimuli/scenes/011b.jpg,stimuli/scenes/011a.jpg,stimuli/scenes/004b.jpg,target,dist2,dist1,lure,0,0,0,0,0,67,67,53,,,,,,,503.58880414254963,504.60745644010603,504.60745644010603,504.60745644010603,504.60745644010603,507.61965597607195,507.61965597607195,507.61965597607195,507.61965597607195,None,,,,,,,,,,,student1,2022-10-21_14h58.47.579,Hippopolis_Updating,2022.2.2,59.942133782036066,
Hippopolis,stimuli/subj_files/student1_cityA.csv,./stimuli/frankfurt.jpg,./stimuli/street_plate1.png,RÁDIÓ UTCA,stimuli/scenes/068a.jpg,scene,1,stimuli/scenes/067a.jpg,stimuli/scenes/018b.jpg,stimuli/scenes/067a.jpg,stimuli/scenes/067b.jpg,stimuli/scenes/018a.jpg,dist2,target,lure,dist1,0,0,0,0,0,68,68,44,,,,,,,509.5913074333221,510.6171772554517,510.6171772554517,510.6171772554517,510.6171772554517,513.6209404338151,513.6209404338151,513.6209404338151,513.6209404338151,None,,,,,,,,,,,student1,2022-10-21_14h58.47.579,Hippopolis_Updating,2022.2.2,59.942133782036066,
Hippopolis,stimuli/subj_files/student1_cityA.csv,./stimuli/frankfurt.jpg,./stimuli/street_plate1.png,CSAVAR UTCA,stimuli/objects/078a.jpg,object,0,stimuli/objects/078a.jpg,stimuli/objects/078b.jpg,stimuli/objects/024b.jpg,stimuli/objects/078a.jpg,stimuli/objects/024a.jpg,lure,dist2,target,dist1,0,0,0,0,0,69,69,10,,,,,,,515.5925508365035,516.6115763410926,516.6115763410926,516.6115763410926,516.6115763410926,519.6261662729084,519.6261662729084,519.6261662729084,519.6261662729084,None,,,,,,,,,,,student1,2022-10-21_14h58.47.579,Hippopolis_Updating,2022.2.2,59.942133782036066,
Hippopolis,stimuli/subj_files/student1_cityA.csv,./stimuli/frankfurt.jpg,./stimuli/street_plate1.png,OROSZLÁN UTCA,stimuli/scenes/072a.jpg,scene,0,stimuli/scenes/072a.jpg,stimuli/scenes/072a.jpg,stimuli/scenes/072b.jpg,stimuli/scenes/027b.jpg,stimuli/scenes/027a.jpg,target,lure,dist2,dist1,0,0,0,0,0,70,70,66,,,,,,,521.6062671523541,522.6340633481741,522.6340633481741,522.6340633481741,522.6340633481741,525.6223707515746,525.6223707515746,525.6223707515746,525.6223707515746,None,,,,,,,,,,,student1,2022-10-21_14h58.47.579,Hippopolis_Updating,2022.2.2,59.942133782036066,
Hippopolis,stimuli/subj_files/student1_cityA.csv,./stimuli/frankfurt.jpg,./stimuli/street_plate1.png,MOTOR UTCA,stimuli/objects/097a.jpg,object,1,stimuli/objects/071a.jpg,stimuli/objects/015b.jpg,stimuli/objects/071b.jpg,stimuli/objects/071a.jpg,stimuli/objects/015a.jpg,dist2,lure,target,dist1,0,0,0,0,0,71,71,36,,,,,,,527.6119153387845,528.6429721266031,528.6429721266031,528.6429721266031,528.6429721266031,531.6544961575419,531.6544961575419,531.6544961575419,531.6544961575419,None,,,,,,,,,,,student1,2022-10-21_14h58.47.579,Hippopolis_Updating,2022.2.2,59.942133782036066,
Hippopolis,stimuli/subj_files/student1_cityA.csv,./stimuli/frankfurt.jpg,./stimuli/street_plate1.png,FÓKA UTCA,stimuli/scenes/058a.jpg,scene,0,stimuli/scenes/058a.jpg,stimuli/scenes/058a.jpg,stimuli/scenes/058b.jpg,stimuli/objects/111b.jpg,stimuli/objects/111a.jpg,target,lure,dist2,dist1,0,0,0,0,0,72,72,51,,,,,,,533.6190874576569,534.6506558489054,534.6506558489054,534.6506558489054,534.6506558489054,537.6478645671159,537.6478645671159,537.6478645671159,537.6478645671159,None,,,,,,,,,,,student1,2022-10-21_14h58.47.579,Hippopolis_Updating,2022.2.2,59.942133782036066,
Hippopolis,stimuli/subj_files/student1_cityA.csv,./stimuli/frankfurt.jpg,./stimuli/street_plate1.png,LIGET UTCA,stimuli/objects/038a.jpg,object,2,stimuli/scenes/109a.jpg,stimuli/scenes/109a.jpg,stimuli/objects/055a.jpg,stimuli/scenes/109b.jpg,stimuli/objects/055b.jpg,target,dist1,lure,dist2,0,0,0,0,0,73,73,62,,,,,,,539.6240424104035,540.6509995125234,540.6509995125234,540.6509995125234,540.6509995125234,543.6611753292382,543.6611753292382,543.6611753292382,543.6611753292382,None,,,,,,,,,,,student1,2022-10-21_14h58.47.579,Hippopolis_Updating,2022.2.2,59.942133782036066,
Hippopolis,stimuli/subj_files/student1_cityA.csv,./stimuli/frankfurt.jpg,./stimuli/street_plate1.png,PULÓVER UTCA,stimuli/objects/114a.jpg,object,0,stimuli/objects/114a.jpg,stimuli/scenes/050b.jpg,stimuli/scenes/050a.jpg,stimuli/objects/114b.jpg,stimuli/objects/114a.jpg,dist2,dist1,lure,target,0,0,0,0,0,74,74,43,,,,,,,545.624719472602,546.6522593982518,546.6522593982518,546.6522593982518,546.6522593982518,549.6583131384104,549.6583131384104,549.6583131384104,549.6583131384104,None,,,,,,,,,,,student1,2022-10-21_14h58.47.579,Hippopolis_Updating,2022.2.2,59.942133782036066,
Hippopolis,stimuli/subj_files/student1_cityA.csv,./stimuli/frankfurt.jpg,./stimuli/street_plate1.png,MOGYORÓ UTCA,stimuli/objects/106a.jpg,object,1,stimuli/objects/103a.jpg,stimuli/scenes/116a.jpg,stimuli/objects/103b.jpg,stimuli/objects/103a.jpg,stimuli/scenes/116b.jpg,dist1,lure,target,dist2,0,0,0,0,0,75,75,54,,,,,,,551.6401248630136,552.6620663627982,552.6620663627982,552.6620663627982,552.6620663627982,555.6635539066046,555.6635539066046,555.6635539066046,555.6635539066046,None,,,,,,,,,,,student1,2022-10-21_14h58.47.579,Hippopolis_Updating,2022.2.2,59.942133782036066,
Hippopolis,stimuli/subj_files/student1_cityA.csv,./stimuli/frankfurt.jpg,./stimuli/street_plate1.png,KOCKA UTCA,stimuli/objects/062a.jpg,object,0,stimuli/objects/062a.jpg,stimuli/scenes/095b.jpg,stimuli/objects/062a.jpg,stimuli/objects/062b.jpg,stimuli/scenes/095a.jpg,dist2,target,lure,dist1,0,0,0,0,0,76,76,35,,,,,,,557.644433233887,558.6719050500542,558.6719050500542,558.6719050500542,558.6719050500542,561.6810172274709,561.6810172274709,561.6810172274709,561.6810172274709,None,,,,,,,,,,,student1,2022-10-21_14h58.47.579,Hippopolis_Updating,2022.2.2,59.942133782036066,
Hippopolis,stimuli/subj_files/student1_cityA.csv,./stimuli/frankfurt.jpg,./stimuli/street_plate1.png,AJÁNDÉK UTCA,stimuli/scenes/005a.jpg,scene,1,stimuli/scenes/009a.jpg,stimuli/scenes/078b.jpg,stimuli/scenes/078a.jpg,stimuli/scenes/009a.jpg,stimuli/scenes/009b.jpg,dist2,dist1,target,lure,0,0,0,0,0,77,77,28,,,,,,,563.6495841220021,564.6785450372845,564.6785450372845,564.6785450372845,564.6785450372845,567.6730153430253,567.6730153430253,567.6730153430253,567.6730153430253,None,,,,,,,,,,,student1,2022-10-21_14h58.47.579,Hippopolis_Updating,2022.2.2,59.942133782036066,
Hippopolis,stimuli/subj_files/student1_cityA.csv,./stimuli/frankfurt.jpg,./stimuli/street_plate1.png,PÁLMAFA UTCA,stimuli/objects/090a.jpg,object,1,stimuli/objects/007a.jpg,stimuli/objects/053a.jpg,stimuli/objects/007a.jpg,stimuli/objects/053b.jpg,stimuli/objects/007b.jpg,dist1,target,dist2,lure,0,0,0,0,0,78,78,12,,,,,,,569.6576463412493,570.6774226147681,570.6774226147681,570.6774226147681,570.6774226147681,573.7042957451195,573.7042957451195,573.7042957451195,573.7042957451195,None,,,,,,,,,,,student1,2022-10-21_14h58.47.579,Hippopolis_Updating,2022.2.2,59.942133782036066,
Hippopolis,stimuli/subj_files/student1_cityA.csv,./stimuli/frankfurt.jpg,./stimuli/street_plate1.png,MUSTÁR UTCA,stimuli/scenes/050a.jpg,scene,0,stimuli/scenes/050a.jpg,stimuli/objects/009a.jpg,stimuli/objects/009b.jpg,stimuli/scenes/050a.jpg,stimuli/scenes/050b.jpg,dist1,dist2,target,lure,0,0,0,0,0,79,79,78,,,,,,,575.6608422417194,576.6802767198533,576.6802767198533,576.6802767198533,576.6802767198533,579.6860720142722,579.6860720142722,579.6860720142722,579.6860720142722,None,,,,,,,,,,,student1,2022-10-21_14h58.47.579,Hippopolis_Updating,2022.2.2,59.942133782036066,
Camponello,stimuli/subj_files/student1_cityB.csv,./stimuli/leipzig.jpg,./stimuli/street_plate2.png,GYŰRŰ UTCA,stimuli/objects/056a.jpg,object,1,stimuli/objects/013a.jpg,stimuli/objects/013b.jpg,stimuli/objects/087b.jpg,stimuli/objects/013a.jpg,stimuli/objects/087a.jpg,lure,dist2,target,dist1,0,1,1,1,0,0,0,22,,,,,584.7687424886972,584.7687424886972,587.7630062866956,588.747332809493,588.747332809493,588.747332809493,588.747332809493,591.7558730449528,591.7558730449528,591.7558730449528,591.7558730449528,None,,,,,581.668719412759,581.668719412759,space,3.0219790786504745,,,student1,2022-10-21_14h58.47.579,Hippopolis_Updating,2022.2.2,59.942133782036066,
Camponello,stimuli/subj_files/student1_cityB.csv,./stimuli/leipzig.jpg,./stimuli/street_plate2.png,MOSODA UTCA,stimuli/objects/052a.jpg,object,0,stimuli/objects/052a.jpg,stimuli/objects/052b.jpg,stimuli/scenes/035a.jpg,stimuli/objects/052a.jpg,stimuli/scenes/035b.jpg,lure,dist1,target,dist2,0,1,1,1,0,1,1,51,,,,,,,593.728236394003,594.7541180346161,594.7541180346161,594.7541180346161,594.7541180346161,597.776478772983,597.776478772983,597.776478772983,597.776478772983,None,,,,,,,,,,,student1,2022-10-21_14h58.47.579,Hippopolis_Updating,2022.2.2,59.942133782036066,
Camponello,stimuli/subj_files/student1_cityB.csv,./stimuli/leipzig.jpg,./stimuli/street_plate2.png,SZALVÉTA UTCA,stimuli/objects/072a.jpg,object,0,stimuli/objects/072a.jpg,stimuli/scenes/045b.jpg,stimuli/scenes/045a.jpg,stimuli/objects/072b.jpg,stimuli/objects/072a.jpg,dist2,dist1,lure,target,0,1,1,1,0,2,2,54,,,,,,,599.7342338413,600.7601549811661,600.7601549811661,600.7601549811661,600.7601549811661,603.7761749196798,603.7761749196798,603.7761749196798,603.7761749196798,None,,,,,,,,,,,student1,2022-10-21_14h58.47.579,Hippopolis_Updating,2022.2.2,59.942133782036066,
Camponello,stimuli/subj_files/student1_cityB.csv,./stimuli/leipzig.jpg,./stimuli/street_plate2.png,MÁRVÁNY UTCA,stimuli/scenes/023a.jpg,scene,0,stimuli/scenes/023a.jpg,stimuli/objects/030a.jpg,stimuli/scenes/023b.jpg,stimuli/objects/030b.jpg,stimuli/scenes/023a.jpg,dist1,lure,dist2,target,0,1,1,1,0,3,3,58,,,,,,,605.7509218230844,606.7772472687066,606.7772472687066,606.7772472687066,606.7772472687066,609.7758648470044,609.7758648470044,609.7758648470044,609.7758648470044,None,,,,,,,,,,,student1,2022-10-21_14h58.47.579,Hippopolis_Updating,2022.2.2,59.942133782036066,
Camponello,stimuli/subj_files/student1_cityB.csv,./stimuli/leipzig.jpg,./stimuli/street_plate2.png,REPÜLŐ UTCA,stimuli/scenes/098a.jpg,scene,0,stimuli/scenes/098a.jpg,stimuli/scenes/013a.jpg,stimuli/scenes/013b.jpg,stimuli/scenes/098a.jpg,stimuli/scenes/098b.jpg,dist1,dist2,target,lure,0,1,1,1,0,4,4,66,,,,,,,611.7580161895603,612.7808129582554,612.7808129582554,612.7808129582554,612.7808129582554,615.7770631536841,615.7770631536841,615.7770631536841,615.7770631536841,None,,,,,,,,,,,student1,2022-10-21_14h58.47.579,Hippopolis_Updating,2022.2.2,59.942133782036066,
Camponello,stimuli/subj_files/student1_cityB.csv,./stimuli/leipzig.jpg,./stimuli/street_plate2.png,MAJOM UTCA,stimuli/objects/018a.jpg,object,0,stimuli/objects/018a.jpg,stimuli/objects/018a.jpg,stimuli/scenes/092b.jpg,stimuli/objects/018b.jpg,stimuli/scenes/092a.jpg,target,dist2,lure,dist1,0,1,1,1,0,5,5,78,,,,,,,617.7659390773624,618.7926256023347,618.7926256023347,618.7926256023347,618.7926256023347,621.8019719664007,621.8019719664007,621.8019719664007,621.8019719664007,None,,,,,,,,,,,student1,2022-10-21_14h58.47.579,Hippopolis_Updating,2022.2.2,59.942133782036066,
Camponello,stimuli/subj_files/student1_cityB.csv,./stimuli/leipzig.jpg,./stimuli/street_plate2.png,TOLMÁCS UTCA,stimuli/scenes/082a.jpg,scene,0,stimuli/scenes/082a.jpg,stimuli/scenes/082b.jpg,stimuli/objects/081b.jpg,stimuli/objects/081a.jpg,stimuli/scenes/082a.jpg,lure,dist2,dist1,target,0,1,1,1,0,6,6,2,,,,,,,623.7739179469645,624.8014588057995,624.8014588057995,624.8014588057995,624.8014588057995,627.802079886198,627.802079886198,627.802079886198,627.802079886198,None,,,,,,,,,,,student1,2022-10-21_14h58.47.579,Hippopolis_Updating,2022.2.2,59.942133782036066,
Camponello,stimuli/subj_files/student1_cityB.csv,./stimuli/leipzig.jpg,./stimuli/street_plate2.png,ORVOS UTCA,stimuli/objects/016a.jpg,object,0,stimuli/objects/016a.jpg,stimuli/scenes/089a.jpg,stimuli/scenes/089b.jpg,stimuli/objects/016a.jpg,stimuli/objects/016b.jpg,dist1,dist2,target,lure,0,1,1,1,0,7,7,4,,,,,,,629.7877732813358,630.810298230499,630.810298230499,630.810298230499,630.810298230499,633.8077831212431,633.8077831212431,633.8077831212431,633.8077831212431,None,,,,,,,,,,,student1,2022-10-21_14h58.47.579,Hippopolis_Updating,2022.2.2,59.942133782036066,
Camponello,stimuli/subj_files/student1_cityB.csv,./stimuli/leipzig.jpg,./stimuli/street_plate2.png,ASZTAL UTCA,stimuli/scenes/120a.jpg,scene,2,stimuli/objects/035a.jpg,stimuli/scenes/079b.jpg,stimuli/scenes/079a.jpg,stimuli/objects/035b.jpg,stimuli/objects/035a.jpg,dist2,dist1,lure,target,0,1,1,1,0,8,8,24,,,,,,,635.8015104327351,636.8319414760917,636.8319414760917,636.8319414760917,636.8319414760917,639.8258535247296,639.8258535247296,639.8258535247296,639.8258535247296,None,,,,,,,,,,,student1,2022-10-21_14h58.47.579,Hippopolis_Updating,2022.2.2,59.942133782036066,
Camponello,stimuli/subj_files/student1_cityB.csv,./stimuli/leipzig.jpg,./stimuli/street_plate2.png,LABDA UTCA,stimuli/objects/082a.jpg,object,0,stimuli/objects/082a.jpg,stimuli/scenes/049a.jpg,stimuli/scenes/049b.jpg,stimuli/objects/082b.jpg,stimuli/objects/082a.jpg,dist1,dist2,lure,target,0,1,1,1,0,9,9,72,,,,,,,641.8112763445824,642.8428951203823,642.8428951203823,642.8428951203823,642.8428951203823,645.8419565036893,645.8419565036893,645.8419565036893,645.8419565036893,None,,,,,,,,,,,student1,2022-10-21_14h58.47.579,Hippopolis_Updating,2022.2.2,59.942133782036066,
Camponello,stimuli/subj_files/student1_cityB.csv,./stimuli/leipzig.jpg,./stimuli/street_plate2.png,FOLYÓ UTCA,stimuli/scenes/035a.jpg,scene,0,stimuli/scenes/035a.jpg,stimuli/objects/034a.jpg,stimuli/scenes/035a.jpg,stimuli/objects/034b.jpg,stimuli/scenes/035b.jpg,dist1,target,dist2,lure,0,1,1,1,0,10,10,61,,,,,,,647.814641745761,648.8425691854209,648.8425691854209,648.8425691854209,648.8425691854209,651.8605266958475,651.8605266958475,651.8605266958475,651.8605266958475,None,,,,,,,,,,,student1,2022-10-21_14h58.47.579,Hippopolis_Updating,2022.2.2,59.942133782036066,
Camponello,stimuli/subj_files/student1_cityB.csv,./stimuli/leipzig.jpg,./stimuli/street_plate2.png,KOSÁR UTCA,stimuli/objects/057a.jpg,object,2,stimuli/scenes/001a.jpg,stimuli/scenes/001a.jpg,stimuli/scenes/001b.jpg,stimuli/objects/005b.jpg,stimuli/objects/005a.jpg,target,lure,dist2,dist1,0,1,1,1,0,11,11,38,,,,,,,653.8314805645496,654.8588982652873,654.8588982652873,654.8588982652873,654.8588982652873,657.8729915209115,657.8729915209115,657.8729915209115,657.8729915209115,None,,,,,,,,,,,student1,2022-10-21_14h58.47.579,Hippopolis_Updating,2022.2.2,59.942133782036066,
Camponello,stimuli/subj_files/student1_cityB.csv,./stimuli/leipzig.jpg,./stimuli/street_plate2.png,PALACK UTCA,stimuli/scenes/033a.jpg,scene,1,stimuli/scenes/107a.jpg,stimuli/objects/119b.jpg,stimuli/scenes/107b.jpg,stimuli/objects/119a.jpg,stimuli/scenes/107a.jpg,dist2,lure,dist1,target,0,1,1,1,0,12,12,44,,,,,,,659.8431952428073,660.8676148410887,660.8676148410887,660.8676148410887,660.8676148410887,663.8827101588249,663.8827101588249,663.8827101588249,663.8827101588249,None,,,,,,,,,,,student1,2022-10-21_14h58.47.579,Hippopolis_Updating,2022.2.2,59.942133782036066,
Camponello,stimuli/subj_files/student1_cityB.csv,./stimuli/leipzig.jpg,./stimuli/street_plate2.png,ECSET UTCA,stimuli/scenes/003a.jpg,scene,2,stimuli/objects/005a.jpg,stimuli/objects/035b.jpg,stimuli/objects/005b.jpg,stimuli/objects/035a.jpg,stimuli/objects/005a.jpg,dist2,lure,dist1,target,0,1,1,1,0,13,13,11,,,,,,,665.856610191986,666.8773888405412,666.8773888405412,666.8773888405412,666.8773888405412,669.8734213318676,669.8734213318676,669.8734213318676,669.8734213318676,None,,,,,,,,,,,student1,2022-10-21_14h58.47.579,Hippopolis_Updating,2022.2.2,59.942133782036066,
Camponello,stimuli/subj_files/student1_cityB.csv,./stimuli/leipzig.jpg,./stimuli/street_plate2.png,RIBIZLI UTCA,stimuli/objects/088a.jpg,object,0,stimuli/objects/088a.jpg,stimuli/objects/088b.jpg,stimuli/objects/065a.jpg,stimuli/objects/088a.jpg,stimuli/objects/065b.jpg,lure,dist1,target,dist2,0,1,1,1,0,14,14,34,,,,,,,671.8687692973763,672.8935418892652,672.8935418892652,672.8935418892652,672.8935418892652,675.8929145894945,675.8929145894945,675.8929145894945,675.8929145894945,None,,,,,,,,,,,student1,2022-10-21_14h58.47.579,Hippopolis_Updating,2022.2.2,59.942133782036066,
Camponello,stimuli/subj_files/student1_cityB.csv,./stimuli/leipzig.jpg,./stimuli/street_plate2.png,KRÉTA UTCA,stimuli/scenes/091a.jpg,scene,0,stimuli/scenes/091a.jpg,stimuli/scenes/098b.jpg,stimuli/scenes/091b.jpg,stimuli/scenes/098a.jpg,stimuli/scenes/091a.jpg,dist2,lure,dist1,target,0,1,1,1,0,15,15,21,,,,,,,677.8732903972268,678.892945067957,678.892945067957,678.892945067957,678.892945067957,681.9023778922856,681.9023778922856,681.9023778922856,681.9023778922856,None,,,,,,,,,,,student1,2022-10-21_14h58.47.579,Hippopolis_Updating,2022.2.2,59.942133782036066,
Camponello,stimuli/subj_files/student1_cityB.csv,./stimuli/leipzig.jpg,./stimuli/street_plate2.png,KANÁL UTCA,stimuli/scenes/057a.jpg,scene,1,stimuli/scenes/020a.jpg,stimuli/scenes/020b.jpg,stimuli/scenes/020a.jpg,stimuli/scenes/062a.jpg,stimuli/scenes/062b.jpg,lure,target,dist1,dist2,0,1,1,1,0,16,16,14,,,,,,,683.8894593082368,684.9234112538397,684.9234112538397,684.9234112538397,684.9234112538397,687.9315773490816,687.9315773490816,687.9315773490816,687.9315773490816,None,,,,,,,,,,,student1,2022-10-21_14h58.47.579,Hippopolis_Updating,2022.2.2,59.942133782036066,
Camponello,stimuli/subj_files/student1_cityB.csv,./stimuli/leipzig.jpg,./stimuli/street_plate2.png,SALÁTA UTCA,stimuli/objects/008a.jpg,object,0,stimuli/objects/008a.jpg,stimuli/scenes/099b.jpg,stimuli/objects/008b.jpg,stimuli/objects/008a.jpg,stimuli/scenes/099a.jpg,dist2,lure,target,dist1,0,1,1,1,0,17,17,73,,,,,,,689.9014532696456,690.9263630155474,690.9263630155474,690.9263630155474,690.9263630155474,693.9347082506865,693.9347082506865,693.9347082506865,693.9347082506865,None,,,,,,,,,,,student1,2022-10-21_14h58.47.579,Hippopolis_Updating,2022.2.2,59.942133782036066,
Camponello,stimuli/subj_files/student1_cityB.csv,./stimuli/leipzig.jpg,./stimuli/street_plate2.png,SZAXOFON UTCA,stimuli/objects/117a.jpg,object,0,stimuli/objects/117a.jpg,stimuli/scenes/021a.jpg,stimuli/objects/117a.jpg,stimuli/objects/117b.jpg,stimuli/scenes/021b.jpg,dist1,target,lure,dist2,0,1,1,1,0,18,18,20,,,,,,,695.9064362142235,696.9285832904279,696.9285832904279,696.9285832904279,696.9285832904279,699.9394383467734,699.9394383467734,699.9394383467734,699.9394383467734,None,,,,,,,,,,,student1,2022-10-21_14h58.47.579,Hippopolis_Updating,2022.2.2,59.942133782036066,
Camponello,stimuli/subj_files/student1_cityB.csv,./stimuli/leipzig.jpg,./stimuli/street_plate2.png,KÍGYÓ UTCA,stimuli/scenes/032a.jpg,scene,0,stimuli/scenes/032a.jpg,stimuli/scenes/032a.jpg,stimuli/objects/088a.jpg,stimuli/scenes/032b.jpg,stimuli/objects/088b.jpg,target,dist1,lure,dist2,0,1,1,1,0,19,19,76,,,,,,,701.9176859371364,702.9492767229676,702.9492767229676,702.9492767229676,702.9492767229676,705.9356359820813,705.9356359820813,705.9356359820813,705.9356359820813,None,,,,,,,,,,,student1,2022-10-21_14h58.47.579,Hippopolis_Updating,2022.2.2,59.942133782036066,
Camponello,stimuli/subj_files/student1_cityB.csv,./stimuli/leipzig.jpg,./stimuli/street_plate2.png,KAKAÓ UTCA,stimuli/objects/099a.jpg,object,1,stimuli/objects/119a.jpg,stimuli/scenes/086a.jpg,stimuli/objects/119a.jpg,stimuli/scenes/086b.jpg,stimuli/objects/119b.jpg,dist1,target,dist2,lure,0,1,1,1,0,20,20,0,,,,,,,707.9196965936571,708.9416607990861,708.9416607990861,708.9416607990861,708.9416607990861,711.9655464012176,711.9655464012176,711.9655464012176,711.9655464012176,None,,,,,,,,,,,student1,2022-10-21_14h58.47.579,Hippopolis_Updating,2022.2.2,59.942133782036066,
Camponello,stimuli/subj_files/student1_cityB.csv,./stimuli/leipzig.jpg,./stimuli/street_plate2.png,SZÖCSKE UTCA,stimuli/scenes/026a.jpg,scene,2,stimuli/objects/061a.jpg,stimuli/scenes/063a.jpg,stimuli/objects/061a.jpg,stimuli/scenes/063b.jpg,stimuli/objects/061b.jpg,dist1,target,dist2,lure,0,1,1,1,0,21,21,71,,,,,,,713.9336545616388,714.9593632817268,714.9593632817268,714.9593632817268,714.9593632817268,717.9559873081744,717.9559873081744,717.9559873081744,717.9559873081744,None,,,,,,,,,,,student1,2022-10-21_14h58.47.579,Hippopolis_Updating,2022.2.2,59.942133782036066,
Camponello,stimuli/subj_files/student1_cityB.csv,./stimuli/leipzig.jpg,./stimuli/street_plate2.png,ZEBRA UTCA,stimuli/scenes/106a.jpg,scene,0,stimuli/scenes/106a.jpg,stimuli/scenes/030a.jpg,stimuli/scenes/106a.jpg,stimuli/scenes/106b.jpg,stimuli/scenes/030b.jpg,dist1,target,lure,dist2,0,1,1,1,0,22,22,12,,,,,,,719.9384356625378,720.9612940102816,720.9612940102816,720.9612940102816,720.9612940102816,723.96245624125,723.96245624125,723.96245624125,723.96245624125,None,,,,,,,,,,,student1,2022-10-21_14h58.47.579,Hippopolis_Updating,2022.2.2,59.942133782036066,
Camponello,stimuli/subj_files/student1_cityB.csv,./stimuli/leipzig.jpg,./stimuli/street_plate2.png,FEJSZE UTCA,stimuli/objects/065a.jpg,object,0,stimuli/objects/065a.jpg,stimuli/scenes/075b.jpg,stimuli/objects/065b.jpg,stimuli/objects/065a.jpg,stimuli/scenes/075a.jpg,dist2,lure,target,dist1,0,1,1,1,0,23,23,9,,,,,,,725.940452227369,726.965340513736,726.965340513736,726.965340513736,726.965340513736,729.9691562522203,729.9691562522203,729.9691562522203,729.9691562522203,None,,,,,,,,,,,student1,2022-10-21_14h58.47.579,Hippopolis_Updating,2022.2.2,59.942133782036066,
Camponello,stimuli/subj_files/student1_cityB.csv,./stimuli/leipzig.jpg,./stimuli/street_plate2.png,LOVAGLÁS UTCA,stimuli/objects/019a.jpg,object,0,stimuli/objects/019a.jpg,stimuli/objects/019b.jpg,stimuli/objects/019a.jpg,stimuli/scenes/017b.jpg,stimuli/scenes/017a.jpg,lure,target,dist2,dist1,0,1,1,1,0,24,24,53,,,,,,,731.958104018122,732.9791442211717,732.9791442211717,732.9791442211717,732.9791442211717,735.9916264638305,735.9916264638305,735.9916264638305,735.9916264638305,None,,,,,,,,,,,student1,2022-10-21_14h58.47.579,Hippopolis_Updating,2022.2.2,59.942133782036066,
Camponello,stimuli/subj_files/student1_cityB.csv,./stimuli/leipzig.jpg,./stimuli/street_plate2.png,PAPRIKA UTCA,stimuli/objects/033a.jpg,object,0,stimuli/objects/033a.jpg,stimuli/scenes/023a.jpg,stimuli/objects/033b.jpg,stimuli/scenes/023b.jpg,stimuli/objects/033a.jpg,dist1,lure,dist2,target,0,1,1,1,0,25,25,30,,,,,,,737.9713833685964,738.9958315808326,738.9958315808326,738.9958315808326,738.9958315808326,741.9882405363023,741.9882405363023,741.9882405363023,741.9882405363023,None,,,,,,,,,,,student1,2022-10-21_14h58.47.579,Hippopolis_Updating,2022.2.2,59.942133782036066,
Camponello,stimuli/subj_files/student1_cityB.csv,./stimuli/leipzig.jpg,./stimuli/street_plate2.png,TIGRIS UTCA,stimuli/scenes/021a.jpg,scene,0,stimuli/scenes/021a.jpg,stimuli/scenes/022b.jpg,stimuli/scenes/021a.jpg,stimuli/scenes/021b.jpg,stimuli/scenes/022a.jpg,dist2,target,lure,dist1,0,1,1,1,0,26,26,68,,,,,,,743.9751341063529,745.0038714073598,745.0038714073598,745.0038714073598,745.0038714073598,747.9937556125224,747.9937556125224,747.9937556125224,747.9937556125224,None,,,,,,,,,,,student1,2022-10-21_14h58.47.579,Hippopolis_Updating,2022.2.2,59.942133782036066,
Camponello,stimuli/subj_files/student1_cityB.csv,./stimuli/leipzig.jpg,./stimuli/street_plate2.png,LEMEZ UTCA,stimuli/scenes/022a.jpg,scene,0,stimuli/scenes/022a.jpg,stimuli/scenes/077b.jpg,stimuli/scenes/022a.jpg,stimuli/scenes/022b.jpg,stimuli/scenes/077a.jpg,dist2,target,lure,dist1,0,1,1,1,0,27,27,13,,,,,,,749.9853397794068,751.0048296172172,751.0048296172172,751.0048296172172,751.0048296172172,754.0008869897574,754.0008869897574,754.0008869897574,754.0008869897574,None,,,,,,,,,,,student1,2022-10-21_14h58.47.579,Hippopolis_Updating,2022.2.2,59.942133782036066,
Camponello,stimuli/subj_files/student1_cityB.csv,./stimuli/leipzig.jpg,./stimuli/street_plate2.png,HARCSA UTCA,stimuli/scenes/080a.jpg,scene,2,stimuli/objects/029a.jpg,stimuli/scenes/054b.jpg,stimuli/scenes/054a.jpg,stimuli/objects/029b.jpg,stimuli/objects/029a.jpg,dist2,dist1,lure,target,0,1,1,1,0,28,28,59,,,,,,,755.9891306366771,757.0091973915696,757.0091973915696,757.0091973915696,757.0091973915696,760.0425795745105,760.0425795745105,760.0425795745105,760.0425795745105,None,,,,,,,,,,,student1,2022-10-21_14h58.47.579,Hippopolis_Updating,2022.2.2,59.942133782036066,
Camponello,stimuli/subj_files/student1_cityB.csv,./stimuli/leipzig.jpg,./stimuli/street_plate2.png,BANÁN UTCA,stimuli/scenes/045a.jpg,scene,0,stimuli/scenes/045a.jpg,stimuli/scenes/045b.jpg,stimuli/scenes/045a.jpg,stimuli/scenes/112b.jpg,stimuli/scenes/112a.jpg,lure,target,dist2,dist1,0,1,1,1,0,29,29,57,,,,,,,761.9894195627421,763.0091560278088,763.0091560278088,763.0091560278088,763.0091560278088,766.0188892837614,766.0188892837614,766.0188892837614,766.0188892837614,None,,,,,,,,,,,student1,2022-10-21_14h58.47.579,Hippopolis_Updating,2022.2.2,59.942133782036066,
Camponello,stimuli/subj_files/student1_cityB.csv,./stimuli/leipzig.jpg,./stimuli/street_plate2.png,TÉRKÉP UTCA,stimuli/scenes/013a.jpg,scene,0,stimuli/scenes/013a.jpg,stimuli/scenes/006b.jpg,stimuli/scenes/006a.jpg,stimuli/scenes/013a.jpg,stimuli/scenes/013b.jpg,dist2,dist1,target,lure,0,1,1,1,0,30,30,63,,,,,,,768.00606742315,769.025440633297,769.025440633297,769.025440633297,769.025440633297,772.0390608478338,772.0390608478338,772.0390608478338,772.0390608478338,None,,,,,,,,,,,student1,2022-10-21_14h58.47.579,Hippopolis_Updating,2022.2.2,59.942133782036066,
Camponello,stimuli/subj_files/student1_cityB.csv,./stimuli/leipzig.jpg,./stimuli/street_plate2.png,LÉPCSŐ UTCA,stimuli/objects/049a.jpg,object,0,stimuli/objects/049a.jpg,stimuli/scenes/076b.jpg,stimuli/scenes/076a.jpg,stimuli/objects/049b.jpg,stimuli/objects/049a.jpg,dist2,dist1,lure,target,0,1,1,1,0,31,31,43,,,,,,,774.0078532211483,775.0260813068599,775.0260813068599,775.0260813068599,775.0260813068599,778.0481173526496,778.0481173526496,778.0481173526496,778.0481173526496,None,775.0260813068599,,,,,,,,,,student1,2022-10-21_14h58.47.579,Hippopolis_Updating,2022.2.2,59.942133782036066,
Camponello,stimuli/subj_files/student1_cityB.csv,./stimuli/leipzig.jpg,./stimuli/street_plate2.png,SZOBOR UTCA,stimuli/objects/031a.jpg,object,1,stimuli/objects/010a.jpg,stimuli/objects/010a.jpg,stimuli/objects/044b.jpg,stimuli/objects/044a.jpg,stimuli/objects/010b.jpg,target,dist2,dist1,lure,0,1,1,1,0,32,32,79,,,,,,,780.020512426272,781.0420601926744,781.0420601926744,781.0420601926744,781.0420601926744,784.0378622282296,784.0378622282296,784.0378622282296,784.0378622282296,None,,,,,,,,,,,student1,2022-10-21_14h58.47.579,Hippopolis_Updating,2022.2.2,59.942133782036066,
Camponello,stimuli/subj_files/student1_cityB.csv,./stimuli/leipzig.jpg,./stimuli/street_plate2.png,TÜKÖR UTCA,stimuli/scenes/006a.jpg,scene,0,stimuli/scenes/006a.jpg,stimuli/objects/116b.jpg,stimuli/objects/116a.jpg,stimuli/scenes/006a.jpg,stimuli/scenes/006b.jpg,dist2,dist1,target,lure,0,1,1,1,0,33,33,25,,,,,,,786.023543804884,787.0466991644353,787.0466991644353,787.0466991644353,787.0466991644353,790.0499827694148,790.0499827694148,790.0499827694148,790.0499827694148,None,,,,,,,,,,,student1,2022-10-21_14h58.47.579,Hippopolis_Updating,2022.2.2,59.942133782036066,
Camponello,stimuli/subj_files/student1_cityB.csv,./stimuli/leipzig.jpg,./stimuli/street_plate2.png,LEGELŐ UTCA,stimuli/objects/030a.jpg,object,0,stimuli/objects/030a.jpg,stimuli/objects/039a.jpg,stimuli/objects/030a.jpg,stimuli/objects/030b.jpg,stimuli/objects/039b.jpg,dist1,target,lure,dist2,0,1,1,1,0,34,34,70,,,,,,,792.038406489417,793.0589123852551,793.0589123852551,793.0589123852551,793.0589123852551,796.0861957315356,796.0861957315356,796.0861957315356,796.0861957315356,None,,,,,,,,,,,student1,2022-10-21_14h58.47.579,Hippopolis_Updating,2022.2.2,59.942133782036066,
Camponello,stimuli/subj_files/student1_cityB.csv,./stimuli/leipzig.jpg,./stimuli/street_plate2.png,TULIPÁN UTCA,stimuli/objects/058a.jpg,object,0,stimuli/objects/058a.jpg,stimuli/objects/117a.jpg,stimuli/objects/117b.jpg,stimuli/objects/058b.jpg,stimuli/objects/058a.jpg,dist1,dist2,lure,target,0,1,1,1,0,35,35,1,,,,,,,798.038605844602,799.0636969078332,799.0636969078332,799.0636969078332,799.0636969078332,802.0734227001667,802.0734227001667,802.0734227001667,802.0734227001667,None,,,,,,,,,,,student1,2022-10-21_14h58.47.579,Hippopolis_Updating,2022.2.2,59.942133782036066,
Camponello,stimuli/subj_files/student1_cityB.csv,./stimuli/leipzig.jpg,./stimuli/street_plate2.png,KATONA UTCA,stimuli/objects/077a.jpg,object,0,stimuli/objects/077a.jpg,stimuli/objects/077a.jpg,stimuli/scenes/115a.jpg,stimuli/scenes/115b.jpg,stimuli/objects/077b.jpg,target,dist1,dist2,lure,0,1,1,1,0,36,36,74,,,,,,,804.0561366528273,805.0753101967275,805.0753101967275,805.0753101967275,805.0753101967275,808.1001518331468,808.1001518331468,808.1001518331468,808.1001518331468,None,,,,,,,,,,,student1,2022-10-21_14h58.47.579,Hippopolis_Updating,2022.2.2,59.942133782036066,
Camponello,stimuli/subj_files/student1_cityB.csv,./stimuli/leipzig.jpg,./stimuli/street_plate2.png,KÓKUSZ UTCA,stimuli/scenes/052a.jpg,scene,0,stimuli/scenes/052a.jpg,stimuli/scenes/052a.jpg,stimuli/objects/077b.jpg,stimuli/objects/077a.jpg,stimuli/scenes/052b.jpg,target,dist2,dist1,lure,0,1,1,1,0,37,37,19,,,,,,,810.0712042916566,811.0920541603118,811.0920541603118,811.0920541603118,811.0920541603118,814.1021553352475,814.1021553352475,814.1021553352475,814.1021553352475,None,,,,,,,,,,,student1,2022-10-21_14h58.47.579,Hippopolis_Updating,2022.2.2,59.942133782036066,
Camponello,stimuli/subj_files/student1_cityB.csv,./stimuli/leipzig.jpg,./stimuli/street_plate2.png,FÉSZEK UTCA,stimuli/objects/042a.jpg,object,1,stimuli/objects/044a.jpg,stimuli/scenes/020b.jpg,stimuli/objects/044a.jpg,stimuli/scenes/020a.jpg,stimuli/objects/044b.jpg,dist2,target,dist1,lure,0,1,1,1,0,38,38,10,,,,,,,816.0745575614274,817.0998902767897,817.0998902767897,817.0998902767897,817.0998902767897,820.107137657702,820.107137657702,820.107137657702,820.107137657702,None,,,,,,,,,,,student1,2022-10-21_14h58.47.579,Hippopolis_Updating,2022.2.2,59.942133782036066,
Camponello,stimuli/subj_files/student1_cityB.csv,./stimuli/leipzig.jpg,./stimuli/street_plate2.png,TÁSKA UTCA,stimuli/objects/110a.jpg,object,2,stimuli/scenes/079a.jpg,stimuli/scenes/079a.jpg,stimuli/objects/037b.jpg,stimuli/objects/037a.jpg,stimuli/scenes/079b.jpg,target,dist2,dist1,lure,0,1,1,1,0,39,39,33,,,,,,,822.0784410983324,823.1082420423627,823.1082420423627,823.1082420423627,823.1082420423627,826.1154984440655,826.1154984440655,826.1154984440655,826.1154984440655,None,,,,,,,,,,,student1,2022-10-21_14h58.47.579,Hippopolis_Updating,2022.2.2,59.942133782036066,
Camponello,stimuli/subj_files/student1_cityB.csv,./stimuli/leipzig.jpg,./stimuli/street_plate2.png,HORGONY UTCA,stimuli/objects/039a.jpg,object,0,stimuli/objects/039a.jpg,stimuli/objects/039b.jpg,stimuli/objects/039a.jpg,stimuli/objects/092b.jpg,stimuli/objects/092a.jpg,lure,target,dist2,dist1,0,1,1,1,0,40,40,26,,,,,,,828.0914843957871,829.1119442619383,829.1119442619383,829.1119442619383,829.1119442619383,832.1350738070905,832.1350738070905,832.1350738070905,832.1350738070905,None,,,,,,,,,,,student1,2022-10-21_14h58.47.579,Hippopolis_Updating,2022.2.2,59.942133782036066,
Camponello,stimuli/subj_files/student1_cityB.csv,./stimuli/leipzig.jpg,./stimuli/street_plate2.png,ZONGORA UTCA,stimuli/objects/034a.jpg,object,0,stimuli/objects/034a.jpg,stimuli/objects/034a.jpg,stimuli/objects/034b.jpg,stimuli/objects/016b.jpg,stimuli/objects/016a.jpg,target,lure,dist2,dist1,0,1,1,1,0,41,41,31,,,,,,,834.1043864954263,835.132989441976,835.132989441976,835.132989441976,835.132989441976,838.1381092295051,838.1381092295051,838.1381092295051,838.1381092295051,None,,,,,,,,,,,student1,2022-10-21_14h58.47.579,Hippopolis_Updating,2022.2.2,59.942133782036066,
Camponello,stimuli/subj_files/student1_cityB.csv,./stimuli/leipzig.jpg,./stimuli/street_plate2.png,SZILVA UTCA,stimuli/objects/105a.jpg,object,0,stimuli/objects/105a.jpg,stimuli/objects/049b.jpg,stimuli/objects/105b.jpg,stimuli/objects/049a.jpg,stimuli/objects/105a.jpg,dist2,lure,dist1,target,0,1,1,1,0,42,42,36,,,,,,,840.1241951156408,841.1450272556394,841.1450272556394,841.1450272556394,841.1450272556394,844.1594060137868,844.1594060137868,844.1594060137868,844.1594060137868,None,,,,,,,,,,,student1,2022-10-21_14h58.47.579,Hippopolis_Updating,2022.2.2,59.942133782036066,
Camponello,stimuli/subj_files/student1_cityB.csv,./stimuli/leipzig.jpg,./stimuli/street_plate2.png,KALAPÁCS UTCA,stimuli/scenes/049a.jpg,scene,0,stimuli/scenes/049a.jpg,stimuli/objects/112b.jpg,stimuli/scenes/049a.jpg,stimuli/objects/112a.jpg,stimuli/scenes/049b.jpg,dist2,target,dist1,lure,0,1,1,1,0,43,43,3,,,,,,,846.1296165790409,847.1562592517585,847.1562592517585,847.1562592517585,847.1562592517585,850.1736071892083,850.1736071892083,850.1736071892083,850.1736071892083,None,,,,,,,,,,,student1,2022-10-21_14h58.47.579,Hippopolis_Updating,2022.2.2,59.942133782036066,
Camponello,stimuli/subj_files/student1_cityB.csv,./stimuli/leipzig.jpg,./stimuli/street_plate2.png,TERÍTŐ UTCA,stimuli/objects/098a.jpg,object,1,stimuli/objects/096a.jpg,stimuli/objects/096b.jpg,stimuli/objects/096a.jpg,stimuli/objects/013b.jpg,stimuli/objects/013a.jpg,lure,target,dist2,dist1,0,1,1,1,0,44,44,39,,,,,,,852.1360027845949,853.1623804792762,853.1623804792762,853.1623804792762,853.1623804792762,856.1627014391124,856.1627014391124,856.1627014391124,856.1627014391124,space,,858.1469719782472,858.1469719782472,4.635689547285438,,,,,,,student1,2022-10-21_14h58.47.579,Hippopolis_Updating,2022.2.2,59.942133782036066,
Camponello,stimuli/subj_files/student1_cityB.csv,./stimuli/leipzig.jpg,./stimuli/street_plate2.png,BETON UTCA,stimuli/objects/104a.jpg,object,2,stimuli/scenes/063a.jpg,stimuli/scenes/063b.jpg,stimuli/scenes/063a.jpg,stimuli/objects/054a.jpg,stimuli/objects/054b.jpg,lure,target,dist1,dist2,0,1,1,1,0,45,45,52,,,,,,,862.814938755706,863.845451593399,863.845451593399,863.845451593399,863.845451593399,866.8406673818827,866.8406673818827,866.8406673818827,866.8406673818827,None,,,,,,,,,,,student1,2022-10-21_14h58.47.579,Hippopolis_Updating,2022.2.2,59.942133782036066,
Camponello,stimuli/subj_files/student1_cityB.csv,./stimuli/leipzig.jpg,./stimuli/street_plate2.png,FÜGE UTCA,stimuli/scenes/115a.jpg,scene,0,stimuli/scenes/115a.jpg,stimuli/scenes/115b.jpg,stimuli/scenes/115a.jpg,stimuli/objects/084b.jpg,stimuli/objects/084a.jpg,lure,target,dist2,dist1,0,1,1,1,0,46,46,47,,,,,,,868.8177462108433,869.8406953718513,869.8406953718513,869.8406953718513,869.8406953718513,872.8512216955423,872.8512216955423,872.8512216955423,872.8512216955423,None,,,,,,,,,,,student1,2022-10-21_14h58.47.579,Hippopolis_Updating,2022.2.2,59.942133782036066,
Camponello,stimuli/subj_files/student1_cityB.csv,./stimuli/leipzig.jpg,./stimuli/street_plate2.png,KESELYŰ UTCA,stimuli/objects/003a.jpg,object,2,stimuli/scenes/100a.jpg,stimuli/objects/029a.jpg,stimuli/scenes/100b.jpg,stimuli/objects/029b.jpg,stimuli/scenes/100a.jpg,dist1,lure,dist2,target,0,1,1,1,0,47,47,6,,,,,,,874.8205972071737,875.8442200087011,875.8442200087011,875.8442200087011,875.8442200087011,878.8561237771064,878.8561237771064,878.8561237771064,878.8561237771064,None,,,,,,,,,,,student1,2022-10-21_14h58.47.579,Hippopolis_Updating,2022.2.2,59.942133782036066,
Camponello,stimuli/subj_files/student1_cityB.csv,./stimuli/leipzig.jpg,./stimuli/street_plate2.png,FÜZET UTCA,stimuli/scenes/047a.jpg,scene,1,stimuli/scenes/012a.jpg,stimuli/scenes/012b.jpg,stimuli/objects/010b.jpg,stimuli/scenes/012a.jpg,stimuli/objects/010a.jpg,lure,dist2,target,dist1,0,1,1,1,0,48,48,56,,,,,,,880.8295038081706,881.8552859257907,881.8552859257907,881.8552859257907,881.8552859257907,884.8622978758067,884.8622978758067,884.8622978758067,884.8622978758067,None,,,,,,,,,,,student1,2022-10-21_14h58.47.579,Hippopolis_Updating,2022.2.2,59.942133782036066,
Camponello,stimuli/subj_files/student1_cityB.csv,./stimuli/leipzig.jpg,./stimuli/street_plate2.png,SIRÁLY UTCA,stimuli/objects/081a.jpg,object,0,stimuli/objects/081a.jpg,stimuli/objects/081a.jpg,stimuli/objects/081b.jpg,stimuli/scenes/019a.jpg,stimuli/scenes/019b.jpg,target,lure,dist1,dist2,0,1,1,1,0,49,49,50,,,,,,,886.8319943472743,887.8576268721372,887.8576268721372,887.8576268721372,887.8576268721372,890.8820191025734,890.8820191025734,890.8820191025734,890.8820191025734,None,,,,,,,,,,,student1,2022-10-21_14h58.47.579,Hippopolis_Updating,2022.2.2,59.942133782036066,
Camponello,stimuli/subj_files/student1_cityB.csv,./stimuli/leipzig.jpg,./stimuli/street_plate2.png,TÁNYÉR UTCA,stimuli/objects/118a.jpg,object,0,stimuli/objects/118a.jpg,stimuli/objects/102b.jpg,stimuli/objects/102a.jpg,stimuli/objects/118b.jpg,stimuli/objects/118a.jpg,dist2,dist1,lure,target,0,1,1,1,0,50,50,28,,,,,,,892.8357348199934,893.8629907984287,893.8629907984287,893.8629907984287,893.8629907984287,896.8656104058027,896.8656104058027,896.8656104058027,896.8656104058027,None,,,,,,,,,,,student1,2022-10-21_14h58.47.579,Hippopolis_Updating,2022.2.2,59.942133782036066,
Camponello,stimuli/subj_files/student1_cityB.csv,./stimuli/leipzig.jpg,./stimuli/street_plate2.png,SÜTŐ UTCA,stimuli/scenes/038a.jpg,scene,0,stimuli/scenes/038a.jpg,stimuli/scenes/038b.jpg,stimuli/objects/033b.jpg,stimuli/objects/033a.jpg,stimuli/scenes/038a.jpg,lure,dist2,dist1,target,0,1,1,1,0,51,51,5,,,,,,,898.8536145780236,899.8741518855095,899.8741518855095,899.8741518855095,899.8741518855095,902.8944602906704,902.8944602906704,902.8944602906704,902.8944602906704,None,,,,,,,,,,,student1,2022-10-21_14h58.47.579,Hippopolis_Updating,2022.2.2,59.942133782036066,
Camponello,stimuli/subj_files/student1_cityB.csv,./stimuli/leipzig.jpg,./stimuli/street_plate2.png,MENTA UTCA,stimuli/objects/092a.jpg,object,0,stimuli/objects/092a.jpg,stimuli/scenes/069a.jpg,stimuli/scenes/069b.jpg,stimuli/objects/092a.jpg,stimuli/objects/092b.jpg,dist1,dist2,target,lure,0,1,1,1,0,52,52,67,,,,,,,904.8657864350826,905.8942643571645,905.8942643571645,905.8942643571645,905.8942643571645,908.8899662494659,908.8899662494659,908.8899662494659,908.8899662494659,None,,,,,,,,,,,student1,2022-10-21_14h58.47.579,Hippopolis_Updating,2022.2.2,59.942133782036066,
Camponello,stimuli/subj_files/student1_cityB.csv,./stimuli/leipzig.jpg,./stimuli/street_plate2.png,FÉSŰ UTCA,stimuli/objects/084a.jpg,object,0,stimuli/objects/084a.jpg,stimuli/objects/118b.jpg,stimuli/objects/118a.jpg,stimuli/objects/084a.jpg,stimuli/objects/084b.jpg,dist2,dist1,target,lure,0,1,1,1,0,53,53,23,,,,,,,910.883480520919,911.9161815997213,911.9161815997213,911.9161815997213,911.9161815997213,914.9239352997392,914.9239352997392,914.9239352997392,914.9239352997392,None,,,,,,,,,,,student1,2022-10-21_14h58.47.579,Hippopolis_Updating,2022.2.2,59.942133782036066,
Camponello,stimuli/subj_files/student1_cityB.csv,./stimuli/leipzig.jpg,./stimuli/street_plate2.png,VITORLA UTCA,stimuli/scenes/110a.jpg,scene,1,stimuli/scenes/062a.jpg,stimuli/scenes/107a.jpg,stimuli/scenes/107b.jpg,stimuli/scenes/062b.jpg,stimuli/scenes/062a.jpg,dist1,dist2,lure,target,0,1,1,1,0,54,54,45,,,,,,,916.901613438502,917.9235810637474,917.9235810637474,917.9235810637474,917.9235810637474,920.9358962941915,920.9358962941915,920.9358962941915,920.9358962941915,None,,,,,,,,,,,student1,2022-10-21_14h58.47.579,Hippopolis_Updating,2022.2.2,59.942133782036066,
Camponello,stimuli/subj_files/student1_cityB.csv,./stimuli/leipzig.jpg,./stimuli/street_plate2.png,TISZTÁS UTCA,stimuli/objects/116a.jpg,object,0,stimuli/objects/116a.jpg,stimuli/objects/058a.jpg,stimuli/objects/116a.jpg,stimuli/objects/116b.jpg,stimuli/objects/058b.jpg,dist1,target,lure,dist2,0,1,1,1,0,55,55,18,,,,,,,922.9213458616287,923.944309329614,923.944309329614,923.944309329614,923.944309329614,926.9374528825283,926.9374528825283,926.9374528825283,926.9374528825283,None,,,,,,,,,,,student1,2022-10-21_14h58.47.579,Hippopolis_Updating,2022.2.2,59.942133782036066,
Camponello,stimuli/subj_files/student1_cityB.csv,./stimuli/leipzig.jpg,./stimuli/street_plate2.png,KUTYA UTCA,stimuli/scenes/030a.jpg,scene,0,stimuli/scenes/030a.jpg,stimuli/scenes/030b.jpg,stimuli/scenes/052b.jpg,stimuli/scenes/052a.jpg,stimuli/scenes/030a.jpg,lure,dist2,dist1,target,0,1,1,1,0,56,56,35,,,,,,,928.9234691020101,929.9428410679102,929.9428410679102,929.9428410679102,929.9428410679102,932.9548879005015,932.9548879005015,932.9548879005015,932.9548879005015,None,929.9428410679102,,,,,,,,,,student1,2022-10-21_14h58.47.579,Hippopolis_Updating,2022.2.2,59.942133782036066,
Camponello,stimuli/subj_files/student1_cityB.csv,./stimuli/leipzig.jpg,./stimuli/street_plate2.png,BOHÓC UTCA,stimuli/objects/064a.jpg,object,0,stimuli/objects/064a.jpg,stimuli/objects/040b.jpg,stimuli/objects/040a.jpg,stimuli/objects/064a.jpg,stimuli/objects/064b.jpg,dist2,dist1,target,lure,0,1,1,1,0,57,57,17,,,,,,,934.9276903923601,935.9583052378148,935.9583052378148,935.9583052378148,935.9583052378148,938.9500433541834,938.9500433541834,938.9500433541834,938.9500433541834,None,,,,,,,,,,,student1,2022-10-21_14h58.47.579,Hippopolis_Updating,2022.2.2,59.942133782036066,
Camponello,stimuli/subj_files/student1_cityB.csv,./stimuli/leipzig.jpg,./stimuli/street_plate2.png,POLIP UTCA,stimuli/scenes/077a.jpg,scene,0,stimuli/scenes/077a.jpg,stimuli/scenes/077b.jpg,stimuli/scenes/077a.jpg,stimuli/scenes/091b.jpg,stimuli/scenes/091a.jpg,lure,target,dist2,dist1,0,1,1,1,0,58,58,49,,,,,,,940.9350040182471,941.942267883569,941.942267883569,941.942267883569,941.942267883569,944.9691861085594,944.9691861085594,944.9691861085594,944.9691861085594,None,,,,,,,,,,,student1,2022-10-21_14h58.47.579,Hippopolis_Updating,2022.2.2,59.942133782036066,
Camponello,stimuli/subj_files/student1_cityB.csv,./stimuli/leipzig.jpg,./stimuli/street_plate2.png,TENISZ UTCA,stimuli/objects/102a.jpg,object,0,stimuli/objects/102a.jpg,stimuli/objects/102b.jpg,stimuli/objects/102a.jpg,stimuli/scenes/038a.jpg,stimuli/scenes/038b.jpg,lure,target,dist1,dist2,0,1,1,1,0,59,59,75,,,,,,,946.9384387731552,947.9588961508125,947.9588961508125,947.9588961508125,947.9588961508125,950.9937114510685,950.9937114510685,950.9937114510685,950.9937114510685,None,,,,,,,,,,,student1,2022-10-21_14h58.47.579,Hippopolis_Updating,2022.2.2,59.942133782036066,
Camponello,stimuli/subj_files/student1_cityB.csv,./stimuli/leipzig.jpg,./stimuli/street_plate2.png,BÚJÓCSKA UTCA,stimuli/scenes/015a.jpg,scene,1,stimuli/scenes/086a.jpg,stimuli/scenes/105b.jpg,stimuli/scenes/086a.jpg,stimuli/scenes/105a.jpg,stimuli/scenes/086b.jpg,dist2,target,dist1,lure,0,1,1,1,0,60,60,48,,,,,,,952.9531590156257,953.9759685359895,953.9759685359895,953.9759685359895,953.9759685359895,956.9864205271006,956.9864205271006,956.9864205271006,956.9864205271006,None,,,,,,,,,,,student1,2022-10-21_14h58.47.579,Hippopolis_Updating,2022.2.2,59.942133782036066,
Camponello,stimuli/subj_files/student1_cityB.csv,./stimuli/leipzig.jpg,./stimuli/street_plate2.png,SUGÁR UTCA,stimuli/objects/094a.jpg,object,0,stimuli/objects/094a.jpg,stimuli/objects/094b.jpg,stimuli/objects/064b.jpg,stimuli/objects/064a.jpg,stimuli/objects/094a.jpg,lure,dist2,dist1,target,0,1,1,1,0,61,61,40,,,,,,,958.9699542932212,959.9897361658514,959.9897361658514,959.9897361658514,959.9897361658514,963.0038465261459,963.0038465261459,963.0038465261459,963.0038465261459,None,,,,,,,,,,,student1,2022-10-21_14h58.47.579,Hippopolis_Updating,2022.2.2,59.942133782036066,
Camponello,stimuli/subj_files/student1_cityB.csv,./stimuli/leipzig.jpg,./stimuli/street_plate2.png,KESZTYŰ UTCA,stimuli/scenes/040a.jpg,scene,1,stimuli/scenes/105a.jpg,stimuli/objects/096b.jpg,stimuli/scenes/105a.jpg,stimuli/scenes/105b.jpg,stimuli/objects/096a.jpg,dist2,target,lure,dist1,0,1,1,1,0,62,62,16,,,,,,,964.9862678237259,966.010038042441,966.010038042441,966.010038042441,966.010038042441,969.0218988917768,969.0218988917768,969.0218988917768,969.0218988917768,None,,,,,,,,,,,student1,2022-10-21_14h58.47.579,Hippopolis_Updating,2022.2.2,59.942133782036066,
Camponello,stimuli/subj_files/student1_cityB.csv,./stimuli/leipzig.jpg,./stimuli/street_plate2.png,KÁRTYA UTCA,stimuli/scenes/076a.jpg,scene,0,stimuli/scenes/076a.jpg,stimuli/objects/008a.jpg,stimuli/scenes/076b.jpg,stimuli/scenes/076a.jpg,stimuli/objects/008b.jpg,dist1,lure,target,dist2,0,1,1,1,0,63,63,64,,,,,,,970.9967586901039,972.023284425959,972.023284425959,972.023284425959,972.023284425959,975.0225890167058,975.0225890167058,975.0225890167058,975.0225890167058,None,,,,,,,,,,,student1,2022-10-21_14h58.47.579,Hippopolis_Updating,2022.2.2,59.942133782036066,
Camponello,stimuli/subj_files/student1_cityB.csv,./stimuli/leipzig.jpg,./stimuli/street_plate2.png,TORONY UTCA,stimuli/scenes/094a.jpg,scene,2,stimuli/objects/054a.jpg,stimuli/scenes/001a.jpg,stimuli/scenes/001b.jpg,stimuli/objects/054b.jpg,stimuli/objects/054a.jpg,dist1,dist2,lure,target,0,1,1,1,0,64,64,62,,,,,,,977.0061837397516,978.0235011968762,978.0235011968762,978.0235011968762,978.0235011968762,981.0503059048206,981.0503059048206,981.0503059048206,981.0503059048206,None,978.0235011968762,,,,,,,,,,student1,2022-10-21_14h58.47.579,Hippopolis_Updating,2022.2.2,59.942133782036066,
Camponello,stimuli/subj_files/student1_cityB.csv,./stimuli/leipzig.jpg,./stimuli/street_plate2.png,LEVÉL UTCA,stimuli/scenes/019a.jpg,scene,0,stimuli/scenes/019a.jpg,stimuli/objects/052a.jpg,stimuli/scenes/019a.jpg,stimuli/scenes/019b.jpg,stimuli/objects/052b.jpg,dist1,target,lure,dist2,0,1,1,1,0,65,65,8,,,,,,,983.0134961213917,984.0437785033137,984.0437785033137,984.0437785033137,984.0437785033137,987.0319901164621,987.0319901164621,987.0319901164621,987.0319901164621,None,,,,,,,,,,,student1,2022-10-21_14h58.47.579,Hippopolis_Updating,2022.2.2,59.942133782036066,
Camponello,stimuli/subj_files/student1_cityB.csv,./stimuli/leipzig.jpg,./stimuli/street_plate2.png,ÁLLOMÁS UTCA,stimuli/scenes/069a.jpg,scene,0,stimuli/scenes/069a.jpg,stimuli/scenes/106a.jpg,stimuli/scenes/106b.jpg,stimuli/scenes/069b.jpg,stimuli/scenes/069a.jpg,dist1,dist2,lure,target,0,1,1,1,0,66,66,42,,,,,,,989.0219819322228,990.0404684618115,990.0404684618115,990.0404684618115,990.0404684618115,993.0614900067449,993.0614900067449,993.0614900067449,993.0614900067449,None,990.0404684618115,,,,,,,,,,student1,2022-10-21_14h58.47.579,Hippopolis_Updating,2022.2.2,59.942133782036066,
Camponello,stimuli/subj_files/student1_cityB.csv,./stimuli/leipzig.jpg,./stimuli/street_plate2.png,KOCSI UTCA,stimuli/scenes/114a.jpg,scene,0,stimuli/scenes/114a.jpg,stimuli/objects/082b.jpg,stimuli/scenes/114b.jpg,stimuli/scenes/114a.jpg,stimuli/objects/082a.jpg,dist2,lure,target,dist1,0,1,1,1,0,67,67,69,,,,,,,995.0392185281962,996.0658531151712,996.0658531151712,996.0658531151712,996.0658531151712,999.0621135737747,999.0621135737747,999.0621135737747,999.0621135737747,None,,,,,,,,,,,student1,2022-10-21_14h58.47.579,Hippopolis_Updating,2022.2.2,59.942133782036066,
Camponello,stimuli/subj_files/student1_cityB.csv,./stimuli/leipzig.jpg,./stimuli/street_plate2.png,HENTES UTCA,stimuli/scenes/092a.jpg,scene,0,stimuli/scenes/092a.jpg,stimuli/scenes/114b.jpg,stimuli/scenes/114a.jpg,stimuli/scenes/092a.jpg,stimuli/scenes/092b.jpg,dist2,dist1,target,lure,0,1,1,1,0,68,68,46,,,,,,,1001.0484283603728,1002.0806141011417,1002.0806141011417,1002.0806141011417,1002.0806141011417,1005.085360057652,1005.085360057652,1005.085360057652,1005.085360057652,None,,,,,,,,,,,student1,2022-10-21_14h58.47.579,Hippopolis_Updating,2022.2.2,59.942133782036066,
Camponello,stimuli/subj_files/student1_cityB.csv,./stimuli/leipzig.jpg,./stimuli/street_plate2.png,TELEFON UTCA,stimuli/scenes/017a.jpg,scene,0,stimuli/scenes/017a.jpg,stimuli/objects/094b.jpg,stimuli/scenes/017b.jpg,stimuli/scenes/017a.jpg,stimuli/objects/094a.jpg,dist2,lure,target,dist1,0,1,1,1,0,69,69,27,,,,,,,1007.051403446123,1008.0727017875761,1008.0727017875761,1008.0727017875761,1008.0727017875761,1011.0672072377056,1011.0672072377056,1011.0672072377056,1011.0672072377056,None,,,,,,,,,,,student1,2022-10-21_14h58.47.579,Hippopolis_Updating,2022.2.2,59.942133782036066,
Camponello,stimuli/subj_files/student1_cityB.csv,./stimuli/leipzig.jpg,./stimuli/street_plate2.png,SZŐLŐ UTCA,stimuli/scenes/099a.jpg,scene,0,stimuli/scenes/099a.jpg,stimuli/objects/105a.jpg,stimuli/scenes/099a.jpg,stimuli/scenes/099b.jpg,stimuli/objects/105b.jpg,dist1,target,lure,dist2,0,1,1,1,0,70,70,55,,,,,,,1013.0517890956253,1014.0771575756371,1014.0771575756371,1014.0771575756371,1014.0771575756371,1017.0763483364135,1017.0763483364135,1017.0763483364135,1017.0763483364135,None,,,,,,,,,,,student1,2022-10-21_14h58.47.579,Hippopolis_Updating,2022.2.2,59.942133782036066,
Camponello,stimuli/subj_files/student1_cityB.csv,./stimuli/leipzig.jpg,./stimuli/street_plate2.png,SÜTEMÉNY UTCA,stimuli/objects/074a.jpg,object,2,stimuli/scenes/102a.jpg,stimuli/objects/061b.jpg,stimuli/objects/061a.jpg,stimuli/scenes/102a.jpg,stimuli/scenes/102b.jpg,dist2,dist1,target,lure,0,1,1,1,0,71,71,32,,,,,,,1019.0553115531802,1020.0754815619439,1020.0754815619439,1020.0754815619439,1020.0754815619439,1023.0864799916744,1023.0864799916744,1023.0864799916744,1023.0864799916744,None,,,,,,,,,,,student1,2022-10-21_14h58.47.579,Hippopolis_Updating,2022.2.2,59.942133782036066,
Camponello,stimuli/subj_files/student1_cityB.csv,./stimuli/leipzig.jpg,./stimuli/street_plate2.png,SAJTÓ UTCA,stimuli/scenes/112a.jpg,scene,0,stimuli/scenes/112a.jpg,stimuli/objects/018a.jpg,stimuli/scenes/112b.jpg,stimuli/scenes/112a.jpg,stimuli/objects/018b.jpg,dist1,lure,target,dist2,0,1,1,1,0,72,72,15,,,,,,,1025.0682279597968,1026.090389965102,1026.090389965102,1026.090389965102,1026.090389965102,1029.101990191266,1029.101990191266,1029.101990191266,1029.101990191266,None,,,,,,,,,,,student1,2022-10-21_14h58.47.579,Hippopolis_Updating,2022.2.2,59.942133782036066,
Camponello,stimuli/subj_files/student1_cityB.csv,./stimuli/leipzig.jpg,./stimuli/street_plate2.png,SZŐNYEG UTCA,stimuli/objects/040a.jpg,object,0,stimuli/objects/040a.jpg,stimuli/objects/040a.jpg,stimuli/objects/040b.jpg,stimuli/objects/019b.jpg,stimuli/objects/019a.jpg,target,lure,dist2,dist1,0,1,1,1,0,73,73,29,,,,,,,1031.0817131977528,1032.1112469863147,1032.1112469863147,1032.1112469863147,1032.1112469863147,1035.1155643761158,1035.1155643761158,1035.1155643761158,1035.1155643761158,None,,,,,,,,,,,student1,2022-10-21_14h58.47.579,Hippopolis_Updating,2022.2.2,59.942133782036066,
Camponello,stimuli/subj_files/student1_cityB.csv,./stimuli/leipzig.jpg,./stimuli/street_plate2.png,PÁRNA UTCA,stimuli/objects/112a.jpg,object,0,stimuli/objects/112a.jpg,stimuli/objects/112b.jpg,stimuli/scenes/032b.jpg,stimuli/scenes/032a.jpg,stimuli/objects/112a.jpg,lure,dist2,dist1,target,0,1,1,1,0,74,74,77,,,,,,,1037.0853833835572,1038.1094742491841,1038.1094742491841,1038.1094742491841,1038.1094742491841,1041.1039324272424,1041.1039324272424,1041.1039324272424,1041.1039324272424,None,,,,,,,,,,,student1,2022-10-21_14h58.47.579,Hippopolis_Updating,2022.2.2,59.942133782036066,
Camponello,stimuli/subj_files/student1_cityB.csv,./stimuli/leipzig.jpg,./stimuli/street_plate2.png,VIHAR UTCA,stimuli/objects/048a.jpg,object,2,stimuli/scenes/054a.jpg,stimuli/scenes/054b.jpg,stimuli/scenes/100b.jpg,stimuli/scenes/054a.jpg,stimuli/scenes/100a.jpg,lure,dist2,target,dist1,0,1,1,1,0,75,75,65,,,,,,,1043.0902845337987,1044.121556226164,1044.121556226164,1044.121556226164,1044.121556226164,1047.1227806583047,1047.1227806583047,1047.1227806583047,1047.1227806583047,None,,,,,,,,,,,student1,2022-10-21_14h58.47.579,Hippopolis_Updating,2022.2.2,59.942133782036066,
Camponello,stimuli/subj_files/student1_cityB.csv,./stimuli/leipzig.jpg,./stimuli/street_plate2.png,MANDARIN UTCA,stimuli/scenes/075a.jpg,scene,0,stimuli/scenes/075a.jpg,stimuli/objects/072a.jpg,stimuli/objects/072b.jpg,stimuli/scenes/075b.jpg,stimuli/scenes/075a.jpg,dist1,dist2,lure,target,0,1,1,1,0,76,76,37,,,,,,,1049.0973969381303,1050.1218435950577,1050.1218435950577,1050.1218435950577,1050.1218435950577,1053.122548647225,1053.122548647225,1053.122548647225,1053.122548647225,None,,,,,,,,,,,student1,2022-10-21_14h58.47.579,Hippopolis_Updating,2022.2.2,59.942133782036066,
Camponello,stimuli/subj_files/student1_cityB.csv,./stimuli/leipzig.jpg,./stimuli/street_plate2.png,ZÁSZLÓ UTCA,stimuli/scenes/103a.jpg,scene,2,stimuli/objects/037a.jpg,stimuli/scenes/102b.jpg,stimuli/objects/037b.jpg,stimuli/scenes/102a.jpg,stimuli/objects/037a.jpg,dist2,lure,dist1,target,0,1,1,1,0,77,77,60,,,,,,,1055.104946307838,1056.1254326086491,1056.1254326086491,1056.1254326086491,1056.1254326086491,1059.1443306021392,1059.1443306021392,1059.1443306021392,1059.1443306021392,None,,,,,,,,,,,student1,2022-10-21_14h58.47.579,Hippopolis_Updating,2022.2.2,59.942133782036066,
Camponello,stimuli/subj_files/student1_cityB.csv,./stimuli/leipzig.jpg,./stimuli/street_plate2.png,SZAPPAN UTCA,stimuli/objects/023a.jpg,object,1,stimuli/objects/087a.jpg,stimuli/scenes/012b.jpg,stimuli/objects/087b.jpg,stimuli/objects/087a.jpg,stimuli/scenes/012a.jpg,dist2,lure,target,dist1,0,1,1,1,0,78,78,7,,,,,,,1061.121161248535,1062.150182498619,1062.150182498619,1062.150182498619,1062.150182498619,1065.1522065270692,1065.1522065270692,1065.1522065270692,1065.1522065270692,None,,,,,,,,,,,student1,2022-10-21_14h58.47.579,Hippopolis_Updating,2022.2.2,59.942133782036066,
Camponello,stimuli/subj_files/student1_cityB.csv,./stimuli/leipzig.jpg,./stimuli/street_plate2.png,VÁSÁR UTCA,stimuli/scenes/089a.jpg,scene,0,stimuli/scenes/089a.jpg,stimuli/scenes/089a.jpg,stimuli/scenes/089b.jpg,stimuli/scenes/082b.jpg,stimuli/scenes/082a.jpg,target,lure,dist2,dist1,0,1,1,1,0,79,79,41,,,,,,,1067.1219073515385,1068.1510502062738,1068.1510502062738,1068.1510502062738,1068.1510502062738,1071.1580027546734,1071.1580027546734,1071.1580027546734,1071.1580027546734,None,,,,,,,,,,,student1,2022-10-21_14h58.47.579,Hippopolis_Updating,2022.2.2,59.942133782036066,
,,,,,,,,,,,,,,,,,,,,,,,,,,,,,,,,,,,,,,,,,,,,,,,None,,1073.1309100538492,1078.130032705143,,,,,,
