CityName,StimuliFile,CityImage,StreetSign,Cue,Image,Category,Novelty,UpdateImage,TestImage1,TestImage2,TestImage3,TestImage4,TestImage1Type,TestImage2Type,TestImage3Type,TestImage4Type,CityBlock.thisRepN,CityBlock.thisTrialN,CityBlock.thisN,CityBlock.thisIndex,LearningTrials.thisRepN,LearningTrials.thisTrialN,LearningTrials.thisN,LearningTrials.thisIndex,trials.thisRepN,trials.thisTrialN,trials.thisN,trials.thisIndex,learning_instructions_text.started,learning_instructions_text.stopped,intro_key.keys,intro_key.rt,intro_key.started,intro_key.stopped,cityname_text.started,cityname_text.stopped,city_image.started,city_image.stopped,plate.started,plate.stopped,city_text.started,city_text.stopped,street_text.started,street_text.stopped,learning_image.started,learning_image.stopped,fx_cross.started,fx_cross.stopped,test_text.started,test_text.stopped,key_resp.keys,key_resp.rt,key_resp.started,key_resp.stopped,plate_test.started,plate_test.stopped,city_text_test.started,city_text_test.stopped,street_text_test.started,street_text_test.stopped,test_question.started,test_question.stopped,test_key_resp.keys,test_key_resp.rt,test_key_resp.started,test_key_resp.stopped,button_image.started,button_image.stopped,plate_verbal.started,plate_verbal.stopped,street_text_verbal.started,street_text_verbal.stopped,city_text_verbal.started,city_text_verbal.stopped,question_verbal.started,question_verbal.stopped,verbal_test_key_resp.keys,verbal_test_key_resp.started,verbal_test_key_resp.stopped,break_text.started,break_text.stopped,break_key_resp.keys,break_key_resp.rt,break_key_resp.started,break_key_resp.stopped,verbal_test_key_resp.rt,participant,date,expName,psychopyVersion,frameRate,
,,,,,,,,,,,,,,,,,,,,,,,,,,,,,18.17939450033009,None,space,34.07115410035476,18.17939450033009,None,,,,,,,,,,,,,,,,,,,,,,,,,,,,,,,,,,,,,,,,,,,,,,,,,,,,,test,2022_Jun_15_1725,Hippopolis_Learning,2021.1.4,60.09066475782378,
Hippopolis,stimuli/subj_files/test_cityA.csv,./stimuli/frankfurt.jpg,./stimuli/street_plate1.png,LOVAGLÁS,stimuli/scenes/084a.jpg,scene,0,stimuli/scenes/084a.jpg,stimuli/scenes/056a.jpg,stimuli/scenes/084b.jpg,stimuli/scenes/084a.jpg,stimuli/scenes/056b.jpg,dist1,lure,target,dist2,0,0,0,0,0,0,0,4,,,,,,,,,,,52.329276100266725,None,52.329276100266725,None,55.289974899962544,None,55.289974899962544,None,55.289974899962544,None,55.289974899962544,None,58.28935160022229,None,,,,,,,,,,,,,,,,,,,,,,,,,,,,,,,,,,,,,,,test,2022_Jun_15_1725,Hippopolis_Learning,2021.1.4,60.09066475782378,
Hippopolis,stimuli/subj_files/test_cityA.csv,./stimuli/frankfurt.jpg,./stimuli/street_plate1.png,TERASZ,stimuli/objects/114a.jpg,object,2,stimuli/scenes/058a.jpg,stimuli/objects/011a.jpg,stimuli/scenes/058a.jpg,stimuli/objects/011b.jpg,stimuli/scenes/058b.jpg,dist1,target,dist2,lure,0,0,0,0,0,1,1,0,,,,,,,,,,,,,,,59.29454930033535,None,59.29454930033535,None,59.29454930033535,None,59.29454930033535,None,62.289286999963224,None,,,,,,,,,,,,,,,,,,,,,,,,,,,,,,,,,,,,,,,test,2022_Jun_15_1725,Hippopolis_Learning,2021.1.4,60.09066475782378,
Hippopolis,stimuli/subj_files/test_cityA.csv,./stimuli/frankfurt.jpg,./stimuli/street_plate1.png,BOLYGÓ,stimuli/objects/065a.jpg,object,1,stimuli/objects/022a.jpg,stimuli/objects/003b.jpg,stimuli/objects/022b.jpg,stimuli/objects/022a.jpg,stimuli/objects/003a.jpg,dist2,lure,target,dist1,0,0,0,0,0,2,2,1,,,,,,,,,,,,,,,63.28928630007431,None,63.28928630007431,None,63.28928630007431,None,63.28928630007431,None,66.28917580004781,None,,,,,,,,,,,,,,,,,,,,,,,,,,,,,,,,,,,,,,,test,2022_Jun_15_1725,Hippopolis_Learning,2021.1.4,60.09066475782378,
Hippopolis,stimuli/subj_files/test_cityA.csv,./stimuli/frankfurt.jpg,./stimuli/street_plate1.png,MÁLNA,stimuli/scenes/101a.jpg,scene,1,stimuli/scenes/036a.jpg,stimuli/objects/095a.jpg,stimuli/objects/095b.jpg,stimuli/scenes/036a.jpg,stimuli/scenes/036b.jpg,dist1,dist2,target,lure,0,0,0,0,0,3,3,3,,,,,,,,,,,,,,,67.29734480008483,None,67.29734480008483,None,67.29734480008483,None,67.29734480008483,None,70.27955250022933,None,,,,,,,,,,,,,,,,,,,,,,,,,,,,,,,,,,,,,,,test,2022_Jun_15_1725,Hippopolis_Learning,2021.1.4,60.09066475782378,
Hippopolis,stimuli/subj_files/test_cityA.csv,./stimuli/frankfurt.jpg,./stimuli/street_plate1.png,ÁRNYÉK,stimuli/objects/028a.jpg,object,0,stimuli/objects/028a.jpg,stimuli/scenes/102a.jpg,stimuli/objects/028b.jpg,stimuli/scenes/102b.jpg,stimuli/objects/028a.jpg,dist1,lure,dist2,target,0,0,0,0,0,4,4,2,,,,,,,,,,,,,,,71.2913008001633,None,71.2913008001633,None,71.2913008001633,None,71.2913008001633,None,74.29032619995996,None,,,,,,,,,,,,,,,,,,,,,,,,,,,,,,,,,,,,,,,test,2022_Jun_15_1725,Hippopolis_Learning,2021.1.4,60.09066475782378,
Hippopolis,stimuli/subj_files/test_cityA.csv,./stimuli/frankfurt.jpg,./stimuli/street_plate1.png,MÁLNA,stimuli/scenes/101a.jpg,scene,1,stimuli/scenes/036a.jpg,stimuli/objects/095a.jpg,stimuli/objects/095b.jpg,stimuli/scenes/036a.jpg,stimuli/scenes/036b.jpg,dist1,dist2,target,lure,0,0,0,0,,,,,0,0,0,3,,,,,,,,,,,,,,,,,,,82.98794090002775,None,75.29020379995927,None,space,4.746805099770427,75.29020379995927,None,80.06589219998568,None,80.06589219998568,None,80.06589219998568,None,80.06589219998568,None,right,2.897554500028491,80.06589219998568,None,80.06589219998568,None,None,None,None,None,None,None,None,None,None,None,None,,,,,,,,test,2022_Jun_15_1725,Hippopolis_Learning,2021.1.4,60.09066475782378,
Hippopolis,stimuli/subj_files/test_cityA.csv,./stimuli/frankfurt.jpg,./stimuli/street_plate1.png,BOLYGÓ,stimuli/objects/065a.jpg,object,1,stimuli/objects/022a.jpg,stimuli/objects/003b.jpg,stimuli/objects/022b.jpg,stimuli/objects/022a.jpg,stimuli/objects/003a.jpg,dist2,lure,target,dist1,0,0,0,0,,,,,0,1,1,1,,,,,,,,,,,,,,,,,,,85.7869589002803,None,,,,,,,83.98701840033755,None,83.98701840033755,None,83.98701840033755,None,83.98701840033755,None,right,1.7811730997636914,83.98701840033755,None,83.98701840033755,None,None,None,None,None,None,None,None,None,None,None,None,,,,,,,,test,2022_Jun_15_1725,Hippopolis_Learning,2021.1.4,60.09066475782378,
Hippopolis,stimuli/subj_files/test_cityA.csv,./stimuli/frankfurt.jpg,./stimuli/street_plate1.png,ÁRNYÉK,stimuli/objects/028a.jpg,object,0,stimuli/objects/028a.jpg,stimuli/scenes/102a.jpg,stimuli/objects/028b.jpg,stimuli/scenes/102b.jpg,stimuli/objects/028a.jpg,dist1,lure,dist2,target,0,0,0,0,,,,,0,2,2,2,,,,,,,,,,,,,,,,,,,89.40461690025404,None,,,,,,,86.78907310031354,None,86.78907310031354,None,86.78907310031354,None,86.78907310031354,None,left,2.5942994002252817,86.78907310031354,None,86.78907310031354,None,None,None,None,None,None,None,None,None,None,None,None,,,,,,,,test,2022_Jun_15_1725,Hippopolis_Learning,2021.1.4,60.09066475782378,
Hippopolis,stimuli/subj_files/test_cityA.csv,./stimuli/frankfurt.jpg,./stimuli/street_plate1.png,TERASZ,stimuli/objects/114a.jpg,object,2,stimuli/scenes/058a.jpg,stimuli/objects/011a.jpg,stimuli/scenes/058a.jpg,stimuli/objects/011b.jpg,stimuli/scenes/058b.jpg,dist1,target,dist2,lure,0,0,0,0,,,,,0,3,3,0,,,,,,,,,,,,,,,,,,,91.77471820032224,None,,,,,,,90.40898590022698,None,90.40898590022698,None,90.40898590022698,None,90.40898590022698,None,right,1.3409708999097347,90.40898590022698,None,90.40898590022698,None,None,None,None,None,None,None,None,None,None,None,None,,,,,,,,test,2022_Jun_15_1725,Hippopolis_Learning,2021.1.4,60.09066475782378,
Hippopolis,stimuli/subj_files/test_cityA.csv,./stimuli/frankfurt.jpg,./stimuli/street_plate1.png,LOVAGLÁS,stimuli/scenes/084a.jpg,scene,0,stimuli/scenes/084a.jpg,stimuli/scenes/056a.jpg,stimuli/scenes/084b.jpg,stimuli/scenes/084a.jpg,stimuli/scenes/056b.jpg,dist1,lure,target,dist2,0,0,0,0,,,,,0,4,4,4,,,,,,,,,,,,,,,,,,,94.05798020027578,None,,,,,,,92.7746186000295,None,92.7746186000295,None,92.7746186000295,None,92.7746186000295,None,right,1.2664950001053512,92.7746186000295,None,92.7746186000295,None,None,None,None,None,None,None,None,None,None,None,None,,,,,,,,test,2022_Jun_15_1725,Hippopolis_Learning,2021.1.4,60.09066475782378,
Camponello,stimuli/subj_files/test_cityB.csv,./stimuli/leipzig.jpg,./stimuli/street_plate2.png,MANDARIN,stimuli/objects/054a.jpg,object,0,stimuli/objects/054a.jpg,stimuli/objects/111b.jpg,stimuli/objects/054a.jpg,stimuli/objects/054b.jpg,stimuli/objects/111a.jpg,dist2,target,lure,dist1,0,1,1,1,0,0,0,3,,,,,,,,,,,100.9251720001921,None,100.9251720001921,None,103.92444330034778,None,103.92444330034778,None,103.92444330034778,None,103.92444330034778,None,106.92367650009692,None,,,,,,,,,,,,,,,,,,,,,,,,,,,,,,,,95.05796639993787,None,space,5.828555299900472,95.05796639993787,None,,test,2022_Jun_15_1725,Hippopolis_Learning,2021.1.4,60.09066475782378,
Camponello,stimuli/subj_files/test_cityB.csv,./stimuli/leipzig.jpg,./stimuli/street_plate2.png,AKÁC,stimuli/scenes/071a.jpg,scene,2,stimuli/objects/077a.jpg,stimuli/scenes/034a.jpg,stimuli/objects/077b.jpg,stimuli/scenes/034b.jpg,stimuli/objects/077a.jpg,dist1,lure,dist2,target,0,1,1,1,0,1,1,2,,,,,,,,,,,,,,,107.92344370018691,None,107.92344370018691,None,107.92344370018691,None,107.92344370018691,None,110.92358610033989,None,,,,,,,,,,,,,,,,,,,,,,,,,,,,,,,,,,,,,,,test,2022_Jun_15_1725,Hippopolis_Learning,2021.1.4,60.09066475782378,
Camponello,stimuli/subj_files/test_cityB.csv,./stimuli/leipzig.jpg,./stimuli/street_plate2.png,TELEP,stimuli/objects/112a.jpg,object,2,stimuli/scenes/035a.jpg,stimuli/scenes/029a.jpg,stimuli/scenes/035a.jpg,stimuli/scenes/035b.jpg,stimuli/scenes/029b.jpg,dist1,target,lure,dist2,0,1,1,1,0,2,2,1,,,,,,,,,,,,,,,111.92389960028231,None,111.92389960028231,None,111.92389960028231,None,111.92389960028231,None,114.92353969998658,None,,,,,,,,,,,,,,,,,,,,,,,,,,,,,,,,,,,,,,,test,2022_Jun_15_1725,Hippopolis_Learning,2021.1.4,60.09066475782378,
Camponello,stimuli/subj_files/test_cityB.csv,./stimuli/leipzig.jpg,./stimuli/street_plate2.png,FEJSZE,stimuli/objects/060a.jpg,object,2,stimuli/scenes/089a.jpg,stimuli/scenes/080b.jpg,stimuli/scenes/089a.jpg,stimuli/scenes/089b.jpg,stimuli/scenes/080a.jpg,dist2,target,lure,dist1,0,1,1,1,0,3,3,4,,,,,,,,,,,,,,,115.92346230009571,None,115.92346230009571,None,115.92346230009571,None,115.92346230009571,None,118.92359240027145,None,,,,,,,,,,,,,,,,,,,,,,,,,,,,,,,,,,,,,,,test,2022_Jun_15_1725,Hippopolis_Learning,2021.1.4,60.09066475782378,
Camponello,stimuli/subj_files/test_cityB.csv,./stimuli/leipzig.jpg,./stimuli/street_plate2.png,KAKAÓ,stimuli/objects/108a.jpg,object,0,stimuli/objects/108a.jpg,stimuli/objects/108a.jpg,stimuli/objects/108b.jpg,stimuli/objects/107a.jpg,stimuli/objects/107b.jpg,target,lure,dist1,dist2,0,1,1,1,0,4,4,0,,,,,,,,,,,,,,,119.92420470016077,None,119.92420470016077,None,119.92420470016077,None,119.92420470016077,None,122.92366249999031,None,,,,,,,,,,,,,,,,,,,,,,,,,,,,,,,,,,,,,,,test,2022_Jun_15_1725,Hippopolis_Learning,2021.1.4,60.09066475782378,
Camponello,stimuli/subj_files/test_cityB.csv,./stimuli/leipzig.jpg,./stimuli/street_plate2.png,TELEP,stimuli/objects/112a.jpg,object,2,stimuli/scenes/035a.jpg,stimuli/scenes/029a.jpg,stimuli/scenes/035a.jpg,stimuli/scenes/035b.jpg,stimuli/scenes/029b.jpg,dist1,target,lure,dist2,0,1,1,1,,,,,0,0,0,1,,,,,,,,,,,,,,,,,,,136.4909477001056,None,123.92371240025386,None,space,5.874222200363874,123.92371240025386,None,129.8273962000385,None,129.8273962000385,None,129.8273962000385,None,129.8273962000385,None,right,3.2756777997128665,129.8273962000385,None,129.8273962000385,None,133.12433580029756,None,133.12433580029756,None,133.12433580029756,None,133.12433580029756,None,space,133.12433580029756,None,,,,,,,3.34733649995178,test,2022_Jun_15_1725,Hippopolis_Learning,2021.1.4,60.09066475782378,
Camponello,stimuli/subj_files/test_cityB.csv,./stimuli/leipzig.jpg,./stimuli/street_plate2.png,AKÁC,stimuli/scenes/071a.jpg,scene,2,stimuli/objects/077a.jpg,stimuli/scenes/034a.jpg,stimuli/objects/077b.jpg,stimuli/scenes/034b.jpg,stimuli/objects/077a.jpg,dist1,lure,dist2,target,0,1,1,1,,,,,0,1,1,2,,,,,,,,,,,,,,,,,,,139.25748539995402,None,,,,,,,137.4908529999666,None,137.4908529999666,None,137.4908529999666,None,137.4908529999666,None,right,1.7359380000270903,137.4908529999666,None,137.4908529999666,None,None,None,None,None,None,None,None,None,None,None,None,,,,,,,,test,2022_Jun_15_1725,Hippopolis_Learning,2021.1.4,60.09066475782378,
Camponello,stimuli/subj_files/test_cityB.csv,./stimuli/leipzig.jpg,./stimuli/street_plate2.png,MANDARIN,stimuli/objects/054a.jpg,object,0,stimuli/objects/054a.jpg,stimuli/objects/111b.jpg,stimuli/objects/054a.jpg,stimuli/objects/054b.jpg,stimuli/objects/111a.jpg,dist2,target,lure,dist1,0,1,1,1,,,,,0,2,2,3,,,,,,,,,,,,,,,,,,,141.9908409002237,None,,,,,,,140.25753380032256,None,140.25753380032256,None,140.25753380032256,None,140.25753380032256,None,right,1.7019823002628982,140.25753380032256,None,140.25753380032256,None,None,None,None,None,None,None,None,None,None,None,None,,,,,,,,test,2022_Jun_15_1725,Hippopolis_Learning,2021.1.4,60.09066475782378,
Camponello,stimuli/subj_files/test_cityB.csv,./stimuli/leipzig.jpg,./stimuli/street_plate2.png,FEJSZE,stimuli/objects/060a.jpg,object,2,stimuli/scenes/089a.jpg,stimuli/scenes/080b.jpg,stimuli/scenes/089a.jpg,stimuli/scenes/089b.jpg,stimuli/scenes/080a.jpg,dist2,target,lure,dist1,0,1,1,1,,,,,0,3,3,4,,,,,,,,,,,,,,,,,,,144.45765630016103,None,,,,,,,142.9908647001721,None,142.9908647001721,None,142.9908647001721,None,142.9908647001721,None,left,1.4419980999082327,142.9908647001721,None,142.9908647001721,None,None,None,None,None,None,None,None,None,None,None,None,,,,,,,,test,2022_Jun_15_1725,Hippopolis_Learning,2021.1.4,60.09066475782378,
Camponello,stimuli/subj_files/test_cityB.csv,./stimuli/leipzig.jpg,./stimuli/street_plate2.png,KAKAÓ,stimuli/objects/108a.jpg,object,0,stimuli/objects/108a.jpg,stimuli/objects/108a.jpg,stimuli/objects/108b.jpg,stimuli/objects/107a.jpg,stimuli/objects/107b.jpg,target,lure,dist1,dist2,0,1,1,1,,,,,0,4,4,0,,,,,,,,,,,,,,,,,,,146.80771550023928,None,,,,,,,145.45772280031815,None,145.45772280031815,None,145.45772280031815,None,145.45772280031815,None,left,1.3288786998018622,145.45772280031815,None,145.45772280031815,None,None,None,None,None,None,None,None,None,None,None,None,,,,,,,,test,2022_Jun_15_1725,Hippopolis_Learning,2021.1.4,60.09066475782378,
,,,,,,,,,,,,,,,,,,,,,,,,,,,,,,,,,,,147.8143913000822,None,147.8143913000822,None,,,,,,,,,,,,,,,,,,,,,,,,,,,,,,,,,,,,,,,,,,None,None,None,,None,None,,,,,,,
